ANN,trial,N1,N2,P1,P2,Succ.,,Ndist,Ndist,Pdist,Pdist,rt,a1,a2,x_acc
1,1,9,6,0,0,1,,3,S,0,S,14,0.798242,0,0
1,2,6,7,0,0,1,,1,S,0,S,16,0.006588,0.783939,0.005165
1,3,9,2,0,0,1,,7,L,0,S,11,0.812895,0,0
1,4,2,5,0,0,1,,3,S,0,S,13,0,0.785842,0
1,5,3,4,0,0,1,,1,S,0,S,14,0.02026,0.760713,0.015412
1,6,8,9,0,0,1,,1,S,0,S,19,0.029036,0.762428,0.022138
1,7,8,1,0,0,1,,7,L,0,S,10,0.766579,0,0
1,8,9,1,0,0,1,,8,L,0,S,10,0.786203,0,0
1,9,6,8,0,0,1,,2,S,0,S,13,0.017727,0.755671,0.013396
1,10,7,8,0,0,1,,1,S,0,S,16,0,0.794951,0
1,11,4,7,0,0,1,,3,S,0,S,13,0,0.789873,0
1,12,9,3,0,0,1,,6,S,0,S,11,0.772515,0,0
1,13,9,4,0,0,1,,5,S,0,S,12,0.803637,0,0
1,14,8,2,0,0,1,,6,S,0,S,11,0.786649,0,0
1,15,1,4,0,0,1,,3,S,0,S,12,0,0.800467,0
1,16,6,4,0,0,1,,2,S,0,S,15,0.797854,0,0
1,17,2,9,0,0,1,,7,L,0,S,11,0,0.782373,0
1,18,1,8,0,0,1,,7,L,0,S,10,0,0.768641,0
1,19,8,4,0,0,1,,4,S,0,S,12,0.758442,0.011492,0.008716
1,20,1,9,0,0,1,,8,L,0,S,10,0,0.76678,0
1,21,4,6,0,0,1,,2,S,0,S,13,0.002489,0.776322,0.001932
1,22,2,8,0,0,1,,6,S,0,S,11,0,0.785253,0
1,23,7,5,0,0,1,,2,S,0,S,14,0.781184,0.00271,0.002117
1,24,8,5,0,0,1,,3,S,0,S,13,0.769099,0.007195,0.005533
1,25,7,3,0,0,1,,4,S,0,S,12,0.773831,0,0
1,26,1,6,0,0,1,,5,S,0,S,11,0,0.803046,0
1,27,7,4,0,0,1,,3,S,0,S,13,0.784289,0,0
1,28,4,8,0,0,1,,4,S,0,S,12,0,0.789968,0
1,29,4,9,0,0,1,,5,S,0,S,12,0,0.785395,0
1,30,5,4,0,0,1,,1,S,0,S,16,0.773114,0.017808,0.013767
1,31,8,6,0,0,1,,2,S,0,S,16,0.781291,0.010346,0.008083
1,32,2,1,0,0,1,,1,S,0,S,13,0.773961,0.003258,0.002522
1,33,3,7,0,0,1,,4,S,0,S,12,0,0.792523,0
1,34,9,7,0,0,1,,2,S,0,S,14,0.768779,0.01335,0.010263
1,35,6,5,0,0,1,,1,S,0,S,17,0.781549,0.010021,0.007832
1,36,9,8,0,0,1,,1,S,0,S,18,0.769278,0.022754,0.017504
1,37,3,8,0,0,1,,5,S,0,S,11,0,0.77341,0
1,38,6,2,0,0,1,,4,S,0,S,12,0.792398,0,0
1,39,5,1,0,0,1,,4,S,0,S,11,0.77988,0,0
1,40,8,7,0,0,1,,1,S,0,S,17,0.764277,0.023548,0.017997
1,41,1,7,0,0,1,,6,S,0,S,11,0,0.807342,0
1,42,3,2,0,0,1,,1,S,0,S,16,0.769198,0.019049,0.014652
1,43,5,7,0,0,1,,2,S,0,S,14,0.024175,0.753214,0.018209
1,44,5,8,0,0,1,,3,S,0,S,13,0,0.790307,0
1,45,5,2,0,0,1,,3,S,0,S,12,0.770033,0.002546,0.00196
1,46,9,5,0,0,1,,4,S,0,S,12,0.770922,0.001126,0.000868
1,47,4,2,0,0,1,,2,S,0,S,13,0.750257,0.021669,0.016257
1,48,4,5,0,0,1,,1,S,0,S,16,0.003932,0.784982,0.003087
1,49,8,3,0,0,1,,5,S,0,S,12,0.795581,0,0
1,50,3,6,0,0,1,,3,S,0,S,12,0,0.784077,0
1,51,2,4,0,0,1,,2,S,0,S,14,0,0.798282,0
1,52,5,3,0,0,1,,2,S,0,S,14,0.783489,0.000987,0.000774
1,53,4,1,0,0,1,,3,S,0,S,12,0.796056,0,0
1,54,1,3,0,0,1,,2,S,0,S,12,0.01239,0.753037,0.00933
1,55,6,3,0,0,1,,3,S,0,S,13,0.770258,0.006403,0.004932
1,56,2,7,0,0,1,,5,S,0,S,12,0,0.80777,0
1,57,1,2,0,0,1,,1,S,0,S,14,0.016037,0.764803,0.012265
1,58,3,9,0,0,1,,6,S,0,S,11,0,0.770161,0
1,59,6,9,0,0,1,,3,S,0,S,14,0,0.798276,0
1,60,2,3,0,0,1,,1,S,0,S,16,0.006408,0.782638,0.005015
1,61,7,1,0,0,1,,6,S,0,S,10,0.755755,0,0
1,62,1,5,0,0,1,,4,S,0,S,11,0,0.760631,0
1,63,4,3,0,0,1,,1,S,0,S,17,0.751826,0.031285,0.023521
1,64,5,6,0,0,1,,1,S,0,S,15,0.01288,0.775076,0.009983
1,65,3,5,0,0,1,,2,S,0,S,13,0.01447,0.758718,0.010979
1,66,3,1,0,0,1,,2,S,0,S,13,0.799028,0,0
1,67,6,1,0,0,1,,5,S,0,S,11,0.793872,0,0
1,68,7,9,0,0,1,,2,S,0,S,16,0.017344,0.771814,0.013386
1,69,7,2,0,0,1,,5,S,0,S,11,0.771395,0,0
1,70,5,9,0,0,1,,4,S,0,S,13,0,0.782908,0
1,71,2,6,0,0,1,,4,S,0,S,12,0,0.800509,0
1,72,7,6,0,0,1,,1,S,0,S,19,0.786227,0.01111,0.008735
2,1,9,4,0,0,1,,5,S,0,S,12,0.796659,0,0
2,2,4,8,0,0,1,,4,S,0,S,12,0,0.776729,0
2,3,1,5,0,0,1,,4,S,0,S,11,0.001318,0.75735,0.000998
2,4,3,4,0,0,1,,1,S,0,S,15,0,0.794394,0
2,5,6,4,0,0,1,,2,S,0,S,13,0.752761,0.02116,0.015928
2,6,7,5,0,0,1,,2,S,0,S,13,0.750994,0.01879,0.014111
2,7,4,7,0,0,1,,3,S,0,S,13,0,0.783792,0
2,8,6,5,0,0,1,,1,S,0,S,15,0.771756,0.013461,0.010388
2,9,3,1,0,0,1,,2,S,0,S,13,0.778585,0,0
2,10,4,9,0,0,1,,5,S,0,S,12,0,0.790558,0
2,11,4,1,0,0,1,,3,S,0,S,12,0.796973,0,0
2,12,1,4,0,0,1,,3,S,0,S,12,0,0.788853,0
2,13,2,1,0,0,1,,1,S,0,S,14,0.778173,0.001462,0.001138
2,14,8,7,0,0,1,,1,S,0,S,19,0.772233,0.021928,0.016933
2,15,4,2,0,0,1,,2,S,0,S,13,0.772724,0.003857,0.00298
2,16,7,3,0,0,1,,4,S,0,S,12,0.780159,0,0
2,17,5,3,0,0,1,,2,S,0,S,14,0.756549,0.020786,0.015726
2,18,9,5,0,0,1,,4,S,0,S,12,0.757501,0.010888,0.008247
2,19,2,3,0,0,1,,1,S,0,S,14,0.019453,0.759882,0.014782
2,20,7,9,0,0,1,,2,S,0,S,16,0.00873,0.77885,0.006799
2,21,9,6,0,0,1,,3,S,0,S,13,0.769075,0.00875,0.006729
2,22,1,8,0,0,1,,7,L,0,S,10,0,0.765846,0
2,23,2,7,0,0,1,,5,S,0,S,11,0,0.768027,0
2,24,8,3,0,0,1,,5,S,0,S,12,0.78342,0,0
2,25,6,7,0,0,1,,1,S,0,S,17,0.036467,0.751423,0.027402
2,26,6,9,0,0,1,,3,S,0,S,14,0,0.791006,0
2,27,3,8,0,0,1,,5,S,0,S,11,0,0.771958,0
2,28,4,5,0,0,1,,1,S,0,S,17,0.011235,0.778748,0.00875
2,29,1,2,0,0,1,,1,S,0,S,15,0,0.795062,0
2,30,7,1,0,0,1,,6,S,0,S,10,0.753058,0,0
2,31,7,8,0,0,1,,1,S,0,S,17,0.028753,0.756026,0.021738
2,32,6,3,0,0,1,,3,S,0,S,13,0.794754,0,0
2,33,1,9,0,0,1,,8,L,0,S,10,0,0.772099,0
2,34,3,7,0,0,1,,4,S,0,S,12,0,0.79991,0
2,35,1,3,0,0,1,,2,S,0,S,12,0.007351,0.761418,0.005597
2,36,4,3,0,0,1,,1,S,0,S,17,0.787103,0.00667,0.00525
2,37,8,4,0,0,1,,4,S,0,S,12,0.753447,0.013755,0.010364
2,38,4,6,0,0,1,,2,S,0,S,15,0,0.799496,0
2,39,2,6,0,0,1,,4,S,0,S,12,0,0.787092,0
2,40,8,9,0,0,1,,1,S,0,S,16,0.008019,0.781896,0.00627
2,41,1,7,0,0,1,,6,S,0,S,11,0,0.810065,0
2,42,9,1,0,0,1,,8,L,0,S,10,0.77505,0,0
2,43,7,2,0,0,1,,5,S,0,S,11,0.777152,0,0
2,44,8,1,0,0,1,,7,L,0,S,10,0.755315,0,0
2,45,6,2,0,0,1,,4,S,0,S,11,0.75194,0.00645,0.00485
2,46,5,7,0,0,1,,2,S,0,S,14,0.010588,0.770926,0.008163
2,47,8,5,0,0,1,,3,S,0,S,13,0.755323,0.017038,0.012869
2,48,7,4,0,0,1,,3,S,0,S,13,0.804865,0,0
2,49,3,9,0,0,1,,6,S,0,S,11,0,0.781465,0
2,50,8,2,0,0,1,,6,S,0,S,11,0.779814,0,0
2,51,9,7,0,0,1,,2,S,0,S,15,0.78436,0.007067,0.005543
2,52,5,8,0,0,1,,3,S,0,S,13,0,0.78731,0
2,53,1,6,0,0,1,,5,S,0,S,11,0,0.781424,0
2,54,2,9,0,0,1,,7,L,0,S,11,0,0.801934,0
2,55,6,8,0,0,1,,2,S,0,S,14,0.02013,0.75992,0.015297
2,56,5,1,0,0,1,,4,S,0,S,11,0.764114,0,0
2,57,6,1,0,0,1,,5,S,0,S,11,0.798773,0,0
2,58,2,8,0,0,1,,6,S,0,S,11,0,0.793856,0
2,59,2,4,0,0,1,,2,S,0,S,13,0.014566,0.759944,0.01107
2,60,3,5,0,0,1,,2,S,0,S,13,0.012786,0.759686,0.009713
2,61,7,6,0,0,1,,1,S,0,S,15,0.784385,0.001841,0.001444
2,62,5,2,0,0,1,,3,S,0,S,12,0.760562,0.005848,0.004448
2,63,5,9,0,0,1,,4,S,0,S,12,0.01368,0.750525,0.010267
2,64,9,2,0,0,1,,7,L,0,S,11,0.805345,0,0
2,65,2,5,0,0,1,,3,S,0,S,12,0.01372,0.751068,0.010305
2,66,8,6,0,0,1,,2,S,0,S,15,0.789812,0,0
2,67,5,6,0,0,1,,1,S,0,S,17,0.023256,0.761898,0.017719
2,68,9,3,0,0,1,,6,S,0,S,11,0.760679,0.002215,0.001685
2,69,5,4,0,0,1,,1,S,0,S,16,0.772539,0.014354,0.011089
2,70,9,8,0,0,1,,1,S,0,S,20,0.777545,0.018967,0.014748
2,71,3,6,0,0,1,,3,S,0,S,12,0.01342,0.751306,0.010083
2,72,3,2,0,0,1,,1,S,0,S,16,0.762352,0.021138,0.016115
3,1,1,9,0,0,1,,8,L,0,S,10,0,0.783263,0
3,2,8,2,0,0,1,,6,S,0,S,11,0.781896,0,0
3,3,9,2,0,0,1,,7,L,0,S,11,0.797949,0,0
3,4,2,9,0,0,1,,7,L,0,S,11,0,0.801839,0
3,5,9,4,0,0,1,,5,S,0,S,12,0.769305,0.004089,0.003145
3,6,7,5,0,0,1,,2,S,0,S,13,0.755539,0.016358,0.012359
3,7,5,7,0,0,1,,2,S,0,S,15,0,0.799683,0
3,8,6,5,0,0,1,,1,S,0,S,15,0.763773,0.020239,0.015458
3,9,9,6,0,0,1,,3,S,0,S,14,0.765056,0.017349,0.013273
3,10,4,9,0,0,1,,5,S,0,S,11,0.003567,0.756339,0.002698
3,11,2,8,0,0,1,,6,S,0,S,11,0,0.776702,0
3,12,6,8,0,0,1,,2,S,0,S,14,0.021017,0.759367,0.015959
3,13,3,5,0,0,1,,2,S,0,S,14,0.024598,0.750653,0.018465
3,14,4,2,0,0,1,,2,S,0,S,13,0.755721,0.015721,0.011881
3,15,6,1,0,0,1,,5,S,0,S,11,0.789743,0,0
3,16,5,8,0,0,1,,3,S,0,S,13,0.008278,0.766851,0.006348
3,17,8,3,0,0,1,,5,S,0,S,12,0.796327,0,0
3,18,2,5,0,0,1,,3,S,0,S,13,0.003403,0.774747,0.002636
3,19,9,1,0,0,1,,8,L,0,S,10,0.76762,0,0
3,20,4,8,0,0,1,,4,S,0,S,12,0,0.778934,0
3,21,7,4,0,0,1,,3,S,0,S,13,0.778106,0.000442,0.000344
3,22,4,1,0,0,1,,3,S,0,S,12,0.782875,0,0
3,23,1,4,0,0,1,,3,S,0,S,11,0.003731,0.753099,0.00281
3,24,7,3,0,0,1,,4,S,0,S,12,0.784354,0,0
3,25,1,7,0,0,1,,6,S,0,S,11,0,0.812561,0
3,26,7,9,0,0,1,,2,S,0,S,15,0,0.798266,0
3,27,3,8,0,0,1,,5,S,0,S,12,0,0.803918,0
3,28,1,8,0,0,1,,7,L,0,S,10,0,0.766094,0
3,29,1,5,0,0,1,,4,S,0,S,11,0,0.76176,0
3,30,5,6,0,0,1,,1,S,0,S,16,0.008062,0.779457,0.006284
3,31,5,4,0,0,1,,1,S,0,S,17,0.764539,0.022229,0.016995
3,32,5,1,0,0,1,,4,S,0,S,11,0.762653,0,0
3,33,6,7,0,0,1,,1,S,0,S,17,0.014601,0.779845,0.011387
3,34,3,9,0,0,1,,6,S,0,S,11,0,0.776069,0
3,35,9,8,0,0,1,,1,S,0,S,21,0.7904,0.010653,0.00842
3,36,5,2,0,0,1,,3,S,0,S,12,0.763748,0.002392,0.001827
3,37,9,5,0,0,1,,4,S,0,S,12,0.752242,0.015828,0.011907
3,38,8,6,0,0,1,,2,S,0,S,15,0.753617,0.026745,0.020156
3,39,4,7,0,0,1,,3,S,0,S,13,0,0.793235,0
3,40,1,6,0,0,1,,5,S,0,S,11,0,0.799062,0
3,41,6,3,0,0,1,,3,S,0,S,13,0.79391,0,0
3,42,4,6,0,0,1,,2,S,0,S,13,0.01614,0.757754,0.01223
3,43,1,3,0,0,1,,2,S,0,S,12,0.004149,0.76258,0.003164
3,44,8,1,0,0,1,,7,L,0,S,10,0.754786,0,0
3,45,5,3,0,0,1,,2,S,0,S,14,0.784825,0,0
3,46,2,1,0,0,1,,1,S,0,S,13,0.752013,0.017294,0.013005
3,47,2,7,0,0,1,,5,S,0,S,11,0.008995,0.750539,0.006751
3,48,8,4,0,0,1,,4,S,0,S,13,0.795558,0,0
3,49,9,3,0,0,1,,6,S,0,S,11,0.758461,0.003856,0.002925
3,50,3,6,0,0,1,,3,S,0,S,13,0,0.79819,0
3,51,4,5,0,0,1,,1,S,0,S,16,0.028144,0.755998,0.021277
3,52,5,9,0,0,1,,4,S,0,S,12,0.003222,0.765126,0.002465
3,53,1,2,0,0,1,,1,S,0,S,14,0.006933,0.769037,0.005332
3,54,7,2,0,0,1,,5,S,0,S,11,0.773097,0,0
3,55,4,3,0,0,1,,1,S,0,S,17,0.781975,0.010587,0.008279
3,56,8,7,0,0,1,,1,S,0,S,17,0.764262,0.025278,0.019319
3,57,3,1,0,0,1,,2,S,0,S,13,0.803012,0,0
3,58,2,6,0,0,1,,4,S,0,S,12,0,0.787946,0
3,59,6,4,0,0,1,,2,S,0,S,14,0.752391,0.026189,0.019704
3,60,7,6,0,0,1,,1,S,0,S,16,0.755443,0.027237,0.020576
3,61,9,7,0,0,1,,2,S,0,S,15,0.762548,0.024806,0.018916
3,62,6,9,0,0,1,,3,S,0,S,13,0,0.782709,0
3,63,6,2,0,0,1,,4,S,0,S,12,0.80161,0,0
3,64,8,5,0,0,1,,3,S,0,S,13,0.775577,0.002179,0.00169
3,65,2,3,0,0,1,,1,S,0,S,16,0.018365,0.769508,0.014132
3,66,8,9,0,0,1,,1,S,0,S,15,0.015453,0.768618,0.011877
3,67,7,1,0,0,1,,6,S,0,S,11,0.810692,0,0
3,68,3,2,0,0,1,,1,S,0,S,15,0.794087,0,0
3,69,3,4,0,0,1,,1,S,0,S,15,0.016062,0.767666,0.01233
3,70,3,7,0,0,1,,4,S,0,S,12,0.000855,0.771139,0.000659
3,71,7,8,0,0,1,,1,S,0,S,18,0.019599,0.770849,0.015108
3,72,2,4,0,0,1,,2,S,0,S,13,0.018556,0.755401,0.014017
4,1,7,5,0,0,1,,2,S,0,S,14,0.774914,0.008604,0.006668
4,2,6,7,0,0,1,,1,S,0,S,16,0.006237,0.786684,0.004907
4,3,5,1,0,0,1,,4,S,0,S,11,0.762118,0,0
4,4,9,3,0,0,1,,6,S,0,S,11,0.785388,0,0
4,5,4,5,0,0,1,,1,S,0,S,17,0.002633,0.790465,0.002081
4,6,4,1,0,0,1,,3,S,0,S,12,0.794371,0,0
4,7,1,3,0,0,1,,2,S,0,S,13,0,0.79936,0
4,8,2,4,0,0,1,,2,S,0,S,14,0,0.797101,0
4,9,8,9,0,0,1,,1,S,0,S,20,0.008695,0.785628,0.006831
4,10,4,6,0,0,1,,2,S,0,S,14,0.021576,0.751053,0.016205
4,11,4,2,0,0,1,,2,S,0,S,13,0.753441,0.01869,0.014082
4,12,6,8,0,0,1,,2,S,0,S,14,0.013812,0.767535,0.010601
4,13,8,2,0,0,1,,6,S,0,S,11,0.776393,0,0
4,14,6,4,0,0,1,,2,S,0,S,14,0.771091,0.011016,0.008494
4,15,5,4,0,0,1,,1,S,0,S,16,0.797648,0,0
4,16,1,5,0,0,1,,4,S,0,S,11,0,0.772678,0
4,17,6,2,0,0,1,,4,S,0,S,12,0.776932,0,0
4,18,1,4,0,0,1,,3,S,0,S,12,0,0.789001,0
4,19,3,2,0,0,1,,1,S,0,S,16,0.783406,0.007285,0.005707
4,20,2,5,0,0,1,,3,S,0,S,12,0.006499,0.763694,0.004963
4,21,7,6,0,0,1,,1,S,0,S,16,0.759423,0.022829,0.017337
4,22,5,2,0,0,1,,3,S,0,S,13,0.80025,0,0
4,23,7,3,0,0,1,,4,S,0,S,12,0.784333,0,0
4,24,3,4,0,0,1,,1,S,0,S,17,0.004675,0.786674,0.003678
4,25,2,1,0,0,1,,1,S,0,S,14,0.765595,0.012953,0.009917
4,26,5,3,0,0,1,,2,S,0,S,14,0.791432,0,0
4,27,6,9,0,0,1,,3,S,0,S,13,0.020877,0.752577,0.015712
4,28,4,7,0,0,1,,3,S,0,S,13,0.01252,0.761106,0.009529
4,29,4,3,0,0,1,,1,S,0,S,15,0.769843,0.010914,0.008402
4,30,1,8,0,0,1,,7,L,0,S,10,0,0.759724,0
4,31,2,3,0,0,1,,1,S,0,S,16,0,0.795763,0
4,32,3,5,0,0,1,,2,S,0,S,14,0,0.791861,0
4,33,9,2,0,0,1,,7,L,0,S,11,0.81055,0,0
4,34,3,6,0,0,1,,3,S,0,S,13,0,0.787612,0
4,35,3,7,0,0,1,,4,S,0,S,12,0,0.772059,0
4,36,5,8,0,0,1,,3,S,0,S,13,0.014018,0.759186,0.010643
4,37,6,5,0,0,1,,1,S,0,S,18,0.783329,0.012688,0.009939
4,38,9,6,0,0,1,,3,S,0,S,13,0.784624,0,0
4,39,8,3,0,0,1,,5,S,0,S,12,0.802938,0,0
4,40,8,7,0,0,1,,1,S,0,S,17,0.791993,0.001322,0.001047
4,41,8,1,0,0,1,,7,L,0,S,10,0.757003,0,0
4,42,2,9,0,0,1,,7,L,0,S,11,0,0.793203,0
4,43,2,6,0,0,1,,4,S,0,S,12,0,0.792721,0
4,44,8,5,0,0,1,,3,S,0,S,13,0.763462,0.011475,0.008761
4,45,1,9,0,0,1,,8,L,0,S,10,0,0.768907,0
4,46,5,6,0,0,1,,1,S,0,S,16,0.022211,0.759636,0.016872
4,47,9,1,0,0,1,,8,L,0,S,10,0.782706,0,0
4,48,4,9,0,0,1,,5,S,0,S,12,0.001996,0.766919,0.001531
4,49,1,2,0,0,1,,1,S,0,S,13,0.014976,0.757141,0.011339
4,50,9,7,0,0,1,,2,S,0,S,14,0.798499,0,0
4,51,4,8,0,0,1,,4,S,0,S,13,0,0.799347,0
4,52,9,5,0,0,1,,4,S,0,S,12,0.778279,0,0
4,53,1,6,0,0,1,,5,S,0,S,11,0,0.790051,0
4,54,2,7,0,0,1,,5,S,0,S,11,0,0.76227,0
4,55,6,1,0,0,1,,5,S,0,S,11,0.781994,0,0
4,56,7,8,0,0,1,,1,S,0,S,18,0.035289,0.750471,0.026483
4,57,7,9,0,0,1,,2,S,0,S,16,0.020158,0.766309,0.015447
4,58,3,9,0,0,1,,6,S,0,S,11,0.003673,0.754988,0.002773
4,59,3,1,0,0,1,,2,S,0,S,13,0.799148,0,0
4,60,7,1,0,0,1,,6,S,0,S,11,0.809872,0,0
4,61,1,7,0,0,1,,6,S,0,S,11,0,0.809929,0
4,62,7,4,0,0,1,,3,S,0,S,13,0.799494,0,0
4,63,5,7,0,0,1,,2,S,0,S,14,0.020803,0.757652,0.015762
4,64,5,9,0,0,1,,4,S,0,S,13,0,0.787995,0
4,65,9,4,0,0,1,,5,S,0,S,11,0.760509,0.000901,0.000685
4,66,9,8,0,0,1,,1,S,0,S,15,0.780574,0.007483,0.005841
4,67,2,8,0,0,1,,6,S,0,S,11,0,0.780859,0
4,68,6,3,0,0,1,,3,S,0,S,13,0.783081,0,0
4,69,8,6,0,0,1,,2,S,0,S,15,0.785463,0,0
4,70,8,4,0,0,1,,4,S,0,S,12,0.769486,0,0
4,71,7,2,0,0,1,,5,S,0,S,11,0.761194,0.000717,0.000546
4,72,3,8,0,0,1,,5,S,0,S,12,0,0.797518,0
5,1,7,2,0,0,1,,5,S,0,S,11,0.761426,0.001021,0.000778
5,2,4,6,0,0,1,,2,S,0,S,14,0,0.787979,0
5,3,2,9,0,0,1,,7,L,0,S,11,0,0.798382,0
5,4,3,6,0,0,1,,3,S,0,S,13,0,0.802363,0
5,5,3,4,0,0,1,,1,S,0,S,16,0.009147,0.779434,0.00713
5,6,4,8,0,0,1,,4,S,0,S,12,0.009772,0.756925,0.007397
5,7,8,5,0,0,1,,3,S,0,S,13,0.770555,0.005246,0.004042
5,8,4,7,0,0,1,,3,S,0,S,13,0,0.784315,0
5,9,1,4,0,0,1,,3,S,0,S,12,0,0.788006,0
5,10,8,7,0,0,1,,1,S,0,S,16,0.753393,0.028371,0.021374
5,11,7,9,0,0,1,,2,S,0,S,14,0.026752,0.751045,0.020092
5,12,7,8,0,0,1,,1,S,0,S,17,0.019813,0.769209,0.01524
5,13,4,2,0,0,1,,2,S,0,S,13,0.756236,0.017864,0.013509
5,14,1,9,0,0,1,,8,L,0,S,10,0,0.773906,0
5,15,3,7,0,0,1,,4,S,0,S,12,0,0.780511,0
5,16,4,1,0,0,1,,3,S,0,S,12,0.794285,0,0
5,17,5,9,0,0,1,,4,S,0,S,12,0.004604,0.765965,0.003526
5,18,7,5,0,0,1,,2,S,0,S,15,0.798047,0,0
5,19,8,2,0,0,1,,6,S,0,S,11,0.786645,0,0
5,20,1,5,0,0,1,,4,S,0,S,11,0,0.768164,0
5,21,2,1,0,0,1,,1,S,0,S,14,0.774374,0.004883,0.003781
5,22,8,9,0,0,1,,1,S,0,S,18,0.022265,0.766298,0.017061
5,23,7,6,0,0,1,,1,S,0,S,18,0.790205,0.005448,0.004305
5,24,3,5,0,0,1,,2,S,0,S,14,0,0.799282,0
5,25,2,8,0,0,1,,6,S,0,S,11,0,0.77546,0
5,26,8,4,0,0,1,,4,S,0,S,12,0.76838,0,0
5,27,6,1,0,0,1,,5,S,0,S,11,0.789751,0,0
5,28,8,1,0,0,1,,7,L,0,S,10,0.763424,0,0
5,29,6,3,0,0,1,,3,S,0,S,13,0.787444,0,0
5,30,9,1,0,0,1,,8,L,0,S,10,0.768608,0,0
5,31,7,3,0,0,1,,4,S,0,S,12,0.770904,0.001455,0.001122
5,32,3,8,0,0,1,,5,S,0,S,12,0,0.800446,0
5,33,1,3,0,0,1,,2,S,0,S,12,0.013394,0.753052,0.010086
5,34,5,2,0,0,1,,3,S,0,S,13,0.800219,0,0
5,35,5,4,0,0,1,,1,S,0,S,17,0.774041,0.014966,0.011584
5,36,5,7,0,0,1,,2,S,0,S,14,0,0.790104,0
5,37,2,3,0,0,1,,1,S,0,S,15,0.009651,0.77421,0.007472
5,38,6,7,0,0,1,,1,S,0,S,17,0.004699,0.785841,0.003692
5,39,3,9,0,0,1,,6,S,0,S,11,0,0.770549,0
5,40,7,4,0,0,1,,3,S,0,S,13,0.776868,0.001239,0.000962
5,41,6,4,0,0,1,,2,S,0,S,14,0.775376,0.004085,0.003167
5,42,4,5,0,0,1,,1,S,0,S,16,0.002207,0.789549,0.001742
5,43,5,6,0,0,1,,1,S,0,S,15,0.015221,0.769546,0.011713
5,44,9,5,0,0,1,,4,S,0,S,13,0.786822,0,0
5,45,9,4,0,0,1,,5,S,0,S,12,0.779876,0,0
5,46,9,6,0,0,1,,3,S,0,S,14,0.77548,0.005553,0.004306
5,47,2,5,0,0,1,,3,S,0,S,12,0.008257,0.757622,0.006256
5,48,2,4,0,0,1,,2,S,0,S,14,0,0.799122,0
5,49,1,2,0,0,1,,1,S,0,S,14,0.006044,0.777664,0.004701
5,50,6,5,0,0,1,,1,S,0,S,17,0.791776,0.000318,0.000252
5,51,6,2,0,0,1,,4,S,0,S,12,0.792809,0,0
5,52,1,8,0,0,1,,7,L,0,S,10,0,0.756574,0
5,53,6,8,0,0,1,,2,S,0,S,15,0.009601,0.773033,0.007422
5,54,4,3,0,0,1,,1,S,0,S,16,0.765564,0.021102,0.016155
5,55,2,7,0,0,1,,5,S,0,S,11,0,0.760248,0
5,56,9,3,0,0,1,,6,S,0,S,11,0.756011,0.002796,0.002114
5,57,9,7,0,0,1,,2,S,0,S,16,0.797072,0,0
5,58,8,6,0,0,1,,2,S,0,S,15,0.799903,0,0
5,59,5,1,0,0,1,,4,S,0,S,11,0.760388,1.5E-05,1.1E-05
5,60,5,8,0,0,1,,3,S,0,S,13,0.002775,0.774972,0.00215
5,61,6,9,0,0,1,,3,S,0,S,14,0,0.801433,0
5,62,3,1,0,0,1,,2,S,0,S,12,0.751546,0.014125,0.010616
5,63,5,3,0,0,1,,2,S,0,S,14,0.759159,0.020333,0.015436
5,64,8,3,0,0,1,,5,S,0,S,12,0.805503,0,0
5,65,4,9,0,0,1,,5,S,0,S,12,0,0.794176,0
5,66,1,7,0,0,1,,6,S,0,S,11,0,0.809165,0
5,67,7,1,0,0,1,,6,S,0,S,11,0.80919,0,0
5,68,9,8,0,0,1,,1,S,0,S,18,0.780571,0.009803,0.007652
5,69,2,6,0,0,1,,4,S,0,S,12,0,0.794612,0
5,70,3,2,0,0,1,,1,S,0,S,15,0.762884,0.021768,0.016607
5,71,9,2,0,0,1,,7,L,0,S,11,0.793582,0,0
5,72,1,6,0,0,1,,5,S,0,S,11,0,0.792363,0
6,1,5,7,0,0,1,,2,S,0,S,14,0.012023,0.772129,0.009284
6,2,1,5,0,0,1,,4,S,0,S,11,0,0.768415,0
6,3,1,8,0,0,1,,7,L,0,S,10,0,0.754956,0
6,4,4,3,0,0,1,,1,S,0,S,17,0.783409,0.007319,0.005734
6,5,5,9,0,0,1,,4,S,0,S,13,0,0.801789,0
6,6,7,3,0,0,1,,4,S,0,S,12,0.768524,0.001204,0.000925
6,7,2,4,0,0,1,,2,S,0,S,13,0.010986,0.76319,0.008384
6,8,2,7,0,0,1,,5,S,0,S,11,0,0.762929,0
6,9,2,5,0,0,1,,3,S,0,S,12,0.002752,0.766662,0.00211
6,10,7,6,0,0,1,,1,S,0,S,15,0.754593,0.02844,0.021461
6,11,6,9,0,0,1,,3,S,0,S,14,0.002294,0.78542,0.001802
6,12,1,4,0,0,1,,3,S,0,S,12,0,0.791326,0
6,13,9,1,0,0,1,,8,L,0,S,10,0.776828,0,0
6,14,2,9,0,0,1,,7,L,0,S,11,0,0.796592,0
6,15,1,3,0,0,1,,2,S,0,S,13,0,0.804412,0
6,16,3,9,0,0,1,,6,S,0,S,11,0.003408,0.756829,0.002579
6,17,9,3,0,0,1,,6,S,0,S,12,0.800629,0,0
6,18,4,2,0,0,1,,2,S,0,S,14,0.786277,0,0
6,19,3,2,0,0,1,,1,S,0,S,16,0.776406,0.009028,0.007009
6,20,7,4,0,0,1,,3,S,0,S,13,0.780578,0,0
6,21,4,1,0,0,1,,3,S,0,S,11,0.756918,0.002658,0.002012
6,22,1,6,0,0,1,,5,S,0,S,11,0,0.781669,0
6,23,9,8,0,0,1,,1,S,0,S,20,0.780304,0.01582,0.012344
6,24,1,9,0,0,1,,8,L,0,S,10,0,0.768459,0
6,25,5,1,0,0,1,,4,S,0,S,11,0.783733,0,0
6,26,3,5,0,0,1,,2,S,0,S,14,0,0.794349,0
6,27,7,2,0,0,1,,5,S,0,S,11,0.755582,0.003761,0.002842
6,28,7,9,0,0,1,,2,S,0,S,16,0,0.797178,0
6,29,3,6,0,0,1,,3,S,0,S,13,0.003877,0.772634,0.002996
6,30,2,3,0,0,1,,1,S,0,S,15,0.000322,0.785397,0.000253
6,31,4,8,0,0,1,,4,S,0,S,12,0.009013,0.760124,0.006851
6,32,8,4,0,0,1,,4,S,0,S,13,0.795588,0,0
6,33,8,7,0,0,1,,1,S,0,S,19,0.795552,0.002227,0.001772
6,34,9,7,0,0,1,,2,S,0,S,16,0.776534,0.014862,0.011541
6,35,8,9,0,0,1,,1,S,0,S,17,0.015204,0.777758,0.011825
6,36,6,7,0,0,1,,1,S,0,S,17,0.017031,0.774957,0.013198
6,37,6,5,0,0,1,,1,S,0,S,17,0.772286,0.017118,0.01322
6,38,3,7,0,0,1,,4,S,0,S,12,0.000291,0.77034,0.000224
6,39,7,1,0,0,1,,6,S,0,S,10,0.761592,0,0
6,40,4,9,0,0,1,,5,S,0,S,12,0,0.787819,0
6,41,6,1,0,0,1,,5,S,0,S,11,0.806961,0,0
6,42,6,2,0,0,1,,4,S,0,S,12,0.783981,0,0
6,43,6,4,0,0,1,,2,S,0,S,14,0.772661,0.008922,0.006894
6,44,7,8,0,0,1,,1,S,0,S,18,0.021165,0.77098,0.016318
6,45,3,4,0,0,1,,1,S,0,S,16,0.007386,0.7793,0.005756
6,46,9,2,0,0,1,,7,L,0,S,11,0.780024,0,0
6,47,3,8,0,0,1,,5,S,0,S,12,0,0.793102,0
6,48,5,4,0,0,1,,1,S,0,S,17,0.789237,0.004742,0.003742
6,49,2,8,0,0,1,,6,S,0,S,11,0,0.779275,0
6,50,2,6,0,0,1,,4,S,0,S,12,0,0.786014,0
6,51,1,7,0,0,1,,6,S,0,S,11,0,0.806674,0
6,52,4,7,0,0,1,,3,S,0,S,13,0,0.784989,0
6,53,2,1,0,0,1,,1,S,0,S,13,0.76909,0.006096,0.004689
6,54,5,6,0,0,1,,1,S,0,S,17,0.014337,0.778955,0.011168
6,55,3,1,0,0,1,,2,S,0,S,12,0.777861,0,0
6,56,4,5,0,0,1,,1,S,0,S,15,0.020387,0.763081,0.015557
6,57,6,3,0,0,1,,3,S,0,S,13,0.780996,0,0
6,58,4,6,0,0,1,,2,S,0,S,14,0.019511,0.761338,0.014854
6,59,8,3,0,0,1,,5,S,0,S,12,0.779369,0,0
6,60,5,2,0,0,1,,3,S,0,S,13,0.793871,0,0
6,61,8,5,0,0,1,,3,S,0,S,14,0.776337,0.005354,0.004157
6,62,5,8,0,0,1,,3,S,0,S,13,0.011463,0.765191,0.008772
6,63,8,6,0,0,1,,2,S,0,S,15,0.791282,0,0
6,64,1,2,0,0,1,,1,S,0,S,14,0,0.788384,0
6,65,5,3,0,0,1,,2,S,0,S,14,0.761134,0.0169,0.012863
6,66,9,6,0,0,1,,3,S,0,S,14,0.790243,0,0
6,67,7,5,0,0,1,,2,S,0,S,15,0.799369,0,0
6,68,9,4,0,0,1,,5,S,0,S,12,0.767574,0.003285,0.002522
6,69,8,1,0,0,1,,7,L,0,S,10,0.765869,0,0
6,70,6,8,0,0,1,,2,S,0,S,15,0.009925,0.776617,0.007708
6,71,8,2,0,0,1,,6,S,0,S,11,0.763346,0,0
6,72,9,5,0,0,1,,4,S,0,S,13,0.764172,0.011779,0.009001
7,1,5,9,0,0,1,,4,S,0,S,12,0.005046,0.76467,0.003859
7,2,4,9,0,0,1,,5,S,0,S,12,0,0.806632,0
7,3,7,6,0,0,1,,1,S,0,S,16,0.759507,0.02618,0.019884
7,4,8,9,0,0,1,,1,S,0,S,16,0.022647,0.764309,0.017309
7,5,2,6,0,0,1,,4,S,0,S,12,0,0.777693,0
7,6,1,8,0,0,1,,7,L,0,S,10,0,0.770923,0
7,7,1,3,0,0,1,,2,S,0,S,12,0,0.777685,0
7,8,8,5,0,0,1,,3,S,0,S,13,0.766049,0.009787,0.007497
7,9,1,4,0,0,1,,3,S,0,S,11,0,0.76595,0
7,10,5,7,0,0,1,,2,S,0,S,15,0,0.793909,0
7,11,6,7,0,0,1,,1,S,0,S,17,4.6E-05,0.791986,3.6E-05
7,12,9,3,0,0,1,,6,S,0,S,12,0.799671,0,0
7,13,4,6,0,0,1,,2,S,0,S,14,0.008077,0.771505,0.006231
7,14,6,3,0,0,1,,3,S,0,S,13,0.77549,0,0
7,15,4,7,0,0,1,,3,S,0,S,13,0,0.777065,0
7,16,1,6,0,0,1,,5,S,0,S,11,0,0.802563,0
7,17,9,4,0,0,1,,5,S,0,S,12,0.755044,0.01307,0.009868
7,18,5,3,0,0,1,,2,S,0,S,14,0.780303,0.000437,0.000341
7,19,2,7,0,0,1,,5,S,0,S,12,0,0.806841,0
7,20,6,5,0,0,1,,1,S,0,S,18,0.788098,0.005353,0.004219
7,21,3,4,0,0,1,,1,S,0,S,16,0.004076,0.786806,0.003207
7,22,3,1,0,0,1,,2,S,0,S,12,0.759238,0.00773,0.005869
7,23,3,8,0,0,1,,5,S,0,S,12,0,0.789337,0
7,24,6,2,0,0,1,,4,S,0,S,12,0.783695,0,0
7,25,5,1,0,0,1,,4,S,0,S,11,0.767189,0,0
7,26,7,9,0,0,1,,2,S,0,S,14,0.004592,0.780606,0.003585
7,27,7,4,0,0,1,,3,S,0,S,13,0.762205,0.013565,0.01034
7,28,4,2,0,0,1,,2,S,0,S,14,0.787273,0,0
7,29,3,5,0,0,1,,2,S,0,S,14,0.002241,0.78105,0.00175
7,30,5,8,0,0,1,,3,S,0,S,14,0,0.800815,0
7,31,5,2,0,0,1,,3,S,0,S,12,0.753854,0.011238,0.008472
7,32,7,2,0,0,1,,5,S,0,S,11,0.757244,0.002212,0.001675
7,33,8,7,0,0,1,,1,S,0,S,16,0.77086,0.015691,0.012095
7,34,2,8,0,0,1,,6,S,0,S,11,0,0.771305,0
7,35,8,3,0,0,1,,5,S,0,S,12,0.802418,0,0
7,36,2,5,0,0,1,,3,S,0,S,12,0.012957,0.751193,0.009733
7,37,9,7,0,0,1,,2,S,0,S,16,0.751827,0.03119,0.02345
7,38,9,1,0,0,1,,8,L,0,S,10,0.762321,0,0
7,39,3,2,0,0,1,,1,S,0,S,15,0.782039,0.003661,0.002863
7,40,3,9,0,0,1,,6,S,0,S,11,0,0.771125,0
7,41,2,3,0,0,1,,1,S,0,S,16,0.002169,0.783349,0.001699
7,42,6,8,0,0,1,,2,S,0,S,15,0.003308,0.787203,0.002604
7,43,4,8,0,0,1,,4,S,0,S,12,0.009861,0.758219,0.007477
7,44,9,2,0,0,1,,7,L,0,S,11,0.781992,0,0
7,45,4,5,0,0,1,,1,S,0,S,15,0.019332,0.760598,0.014704
7,46,8,4,0,0,1,,4,S,0,S,12,0.759384,0.009245,0.00702
7,47,1,9,0,0,1,,8,L,0,S,10,0,0.790672,0
7,48,7,3,0,0,1,,4,S,0,S,12,0.766565,0.001884,0.001444
7,49,8,6,0,0,1,,2,S,0,S,14,0.77601,0.007058,0.005477
7,50,3,7,0,0,1,,4,S,0,S,12,0.007452,0.759308,0.005658
7,51,7,8,0,0,1,,1,S,0,S,18,0.011999,0.785632,0.009427
7,52,1,5,0,0,1,,4,S,0,S,11,0,0.788444,0
7,53,6,1,0,0,1,,5,S,0,S,11,0.786011,0,0
7,54,2,1,0,0,1,,1,S,0,S,14,0.787405,0,0
7,55,4,1,0,0,1,,3,S,0,S,12,0.783695,0,0
7,56,6,9,0,0,1,,3,S,0,S,13,0,0.783805,0
7,57,2,9,0,0,1,,7,L,0,S,11,0,0.802131,0
7,58,4,3,0,0,1,,1,S,0,S,17,0.777425,0.007979,0.006203
7,59,5,4,0,0,1,,1,S,0,S,17,0.783016,0.008862,0.006939
7,60,8,2,0,0,1,,6,S,0,S,11,0.78399,0,0
7,61,9,6,0,0,1,,3,S,0,S,14,0.767195,0.014488,0.011115
7,62,9,8,0,0,1,,1,S,0,S,20,0.783484,0.01602,0.012552
7,63,5,6,0,0,1,,1,S,0,S,17,0.024214,0.762888,0.018472
7,64,1,2,0,0,1,,1,S,0,S,13,0,0.774749,0
7,65,9,5,0,0,1,,4,S,0,S,13,0.7597,0.015224,0.011566
7,66,2,4,0,0,1,,2,S,0,S,13,0.014027,0.758465,0.010639
7,67,8,1,0,0,1,,7,L,0,S,10,0.763671,0,0
7,68,6,4,0,0,1,,2,S,0,S,15,0.789488,0,0
7,69,7,1,0,0,1,,6,S,0,S,11,0.808144,0,0
7,70,3,6,0,0,1,,3,S,0,S,13,0.005811,0.770825,0.004479
7,71,7,5,0,0,1,,2,S,0,S,15,0.79064,0,0
7,72,1,7,0,0,1,,6,S,0,S,10,0,0.755897,0
8,1,9,3,0,0,1,,6,S,0,S,11,0.767197,0,0
8,2,1,5,0,0,1,,4,S,0,S,11,0,0.768698,0
8,3,7,3,0,0,1,,4,S,0,S,12,0.782719,0,0
8,4,5,6,0,0,1,,1,S,0,S,16,2.5E-05,0.790645,2E-05
8,5,5,9,0,0,1,,4,S,0,S,13,0,0.786853,0
8,6,9,4,0,0,1,,5,S,0,S,12,0.770856,0,0
8,7,8,3,0,0,1,,5,S,0,S,11,0.752455,0.005566,0.004188
8,8,5,3,0,0,1,,2,S,0,S,14,0.801822,0,0
8,9,9,8,0,0,1,,1,S,0,S,16,0.751736,0.030706,0.023083
8,10,8,6,0,0,1,,2,S,0,S,15,0.775366,0.009992,0.007748
8,11,3,7,0,0,1,,4,S,0,S,12,0,0.789597,0
8,12,7,2,0,0,1,,5,S,0,S,11,0.758427,0.001288,0.000977
8,13,5,1,0,0,1,,4,S,0,S,11,0.753293,0.003987,0.003003
8,14,3,1,0,0,1,,2,S,0,S,13,0.784787,0,0
8,15,7,1,0,0,1,,6,S,0,S,11,0.799578,0,0
8,16,2,5,0,0,1,,3,S,0,S,12,0.013047,0.751311,0.009802
8,17,9,7,0,0,1,,2,S,0,S,16,0.756782,0.026214,0.019838
8,18,6,1,0,0,1,,5,S,0,S,11,0.784809,0,0
8,19,5,2,0,0,1,,3,S,0,S,12,0.752242,0.012195,0.009174
8,20,5,7,0,0,1,,2,S,0,S,14,0,0.789218,0
8,21,4,7,0,0,1,,3,S,0,S,12,0.008064,0.76139,0.006139
8,22,8,2,0,0,1,,6,S,0,S,11,0.781247,0,0
8,23,3,4,0,0,1,,1,S,0,S,15,0.017621,0.763723,0.013457
8,24,4,2,0,0,1,,2,S,0,S,14,0.787988,0,0
8,25,1,6,0,0,1,,5,S,0,S,11,0,0.798956,0
8,26,2,7,0,0,1,,5,S,0,S,11,0,0.770044,0
8,27,2,1,0,0,1,,1,S,0,S,14,0.751595,0.024522,0.018431
8,28,4,1,0,0,1,,3,S,0,S,12,0.769245,0.001957,0.001505
8,29,3,8,0,0,1,,5,S,0,S,12,0,0.791985,0
8,30,7,5,0,0,1,,2,S,0,S,15,0.796999,0,0
8,31,1,8,0,0,1,,7,L,0,S,10,0,0.757048,0
8,32,2,6,0,0,1,,4,S,0,S,12,0,0.798918,0
8,33,1,4,0,0,1,,3,S,0,S,12,0,0.804169,0
8,34,8,7,0,0,1,,1,S,0,S,19,0.76975,0.02094,0.016119
8,35,6,9,0,0,1,,3,S,0,S,14,0.005324,0.779876,0.004152
8,36,2,8,0,0,1,,6,S,0,S,11,0,0.771984,0
8,37,6,3,0,0,1,,3,S,0,S,12,0.755338,0.012738,0.009621
8,38,7,6,0,0,1,,1,S,0,S,18,0.767254,0.022921,0.017586
8,39,2,3,0,0,1,,1,S,0,S,16,0.016932,0.77052,0.013047
8,40,4,5,0,0,1,,1,S,0,S,15,0.014195,0.769631,0.010925
8,41,1,9,0,0,1,,8,L,0,S,10,0,0.770525,0
8,42,7,4,0,0,1,,3,S,0,S,13,0.758116,0.014391,0.01091
8,43,9,1,0,0,1,,8,L,0,S,10,0.762572,0,0
8,44,4,3,0,0,1,,1,S,0,S,16,0.7749,0.014693,0.011385
8,45,6,8,0,0,1,,2,S,0,S,15,0.028654,0.753889,0.021602
8,46,3,6,0,0,1,,3,S,0,S,13,0,0.804116,0
8,47,2,4,0,0,1,,2,S,0,S,13,0.009238,0.765044,0.007068
8,48,3,2,0,0,1,,1,S,0,S,15,0.760524,0.020727,0.015764
8,49,8,4,0,0,1,,4,S,0,S,13,0.803839,0,0
8,50,6,2,0,0,1,,4,S,0,S,12,0.796619,0,0
8,51,6,7,0,0,1,,1,S,0,S,16,0,0.795805,0
8,52,6,5,0,0,1,,1,S,0,S,16,0.761362,0.023211,0.017672
8,53,1,3,0,0,1,,2,S,0,S,13,0,0.800472,0
8,54,9,5,0,0,1,,4,S,0,S,13,0.788456,0,0
8,55,3,5,0,0,1,,2,S,0,S,14,0,0.7867,0
8,56,1,7,0,0,1,,6,S,0,S,10,0,0.755578,0
8,57,4,9,0,0,1,,5,S,0,S,12,0,0.793434,0
8,58,5,8,0,0,1,,3,S,0,S,14,0,0.793356,0
8,59,1,2,0,0,1,,1,S,0,S,14,0,0.787418,0
8,60,9,6,0,0,1,,3,S,0,S,14,0.773384,0.00788,0.006095
8,61,4,8,0,0,1,,4,S,0,S,12,0.006505,0.764181,0.004971
8,62,3,9,0,0,1,,6,S,0,S,11,0.0025,0.757427,0.001894
8,63,7,9,0,0,1,,2,S,0,S,15,0.025688,0.756167,0.019424
8,64,9,2,0,0,1,,7,L,0,S,11,0.793153,0,0
8,65,7,8,0,0,1,,1,S,0,S,18,0.035877,0.751114,0.026948
8,66,8,1,0,0,1,,7,L,0,S,10,0.753234,0,0
8,67,8,5,0,0,1,,3,S,0,S,13,0.76008,0.011891,0.009038
8,68,5,4,0,0,1,,1,S,0,S,17,0.763983,0.020857,0.015934
8,69,8,9,0,0,1,,1,S,0,S,20,0.005971,0.790468,0.00472
8,70,2,9,0,0,1,,7,L,0,S,11,0,0.790866,0
8,71,6,4,0,0,1,,2,S,0,S,14,0.760262,0.018416,0.014001
8,72,4,6,0,0,1,,2,S,0,S,13,0.01134,0.765345,0.008679
9,1,5,9,0,0,1,,4,S,0,S,13,0.005943,0.773435,0.004596
9,2,7,2,0,0,1,,5,S,0,S,11,0.76409,0,0
9,3,8,1,0,0,1,,7,L,0,S,10,0.762834,0,0
9,4,1,4,0,0,1,,3,S,0,S,11,0.00594,0.750638,0.004459
9,5,7,5,0,0,1,,2,S,0,S,14,0.773957,0.006906,0.005345
9,6,2,5,0,0,1,,3,S,0,S,12,0.011238,0.754531,0.008479
9,7,4,9,0,0,1,,5,S,0,S,12,0,0.786479,0
9,8,7,3,0,0,1,,4,S,0,S,12,0.790611,0,0
9,9,6,4,0,0,1,,2,S,0,S,14,0.799488,0,0
9,10,6,7,0,0,1,,1,S,0,S,17,0.023899,0.762599,0.018226
9,11,8,6,0,0,1,,2,S,0,S,16,0.776507,0.014454,0.011223
9,12,1,2,0,0,1,,1,S,0,S,13,0.013046,0.754838,0.009848
9,13,8,3,0,0,1,,5,S,0,S,12,0.802531,0,0
9,14,7,1,0,0,1,,6,S,0,S,10,0.755752,0,0
9,15,9,6,0,0,1,,3,S,0,S,14,0.763302,0.016822,0.01284
9,16,2,8,0,0,1,,6,S,0,S,11,0,0.783043,0
9,17,7,9,0,0,1,,2,S,0,S,16,0.019454,0.770529,0.01499
9,18,7,6,0,0,1,,1,S,0,S,17,0.771954,0.017925,0.013837
9,19,4,8,0,0,1,,4,S,0,S,12,0.002771,0.767777,0.002128
9,20,3,5,0,0,1,,2,S,0,S,14,0,0.787451,0
9,21,9,3,0,0,1,,6,S,0,S,11,0.765168,0,0
9,22,1,8,0,0,1,,7,L,0,S,10,0,0.770055,0
9,23,5,8,0,0,1,,3,S,0,S,14,0,0.797852,0
9,24,4,3,0,0,1,,1,S,0,S,15,0.75502,0.028424,0.021461
9,25,8,2,0,0,1,,6,S,0,S,11,0.7739,0,0
9,26,3,4,0,0,1,,1,S,0,S,16,0.010306,0.776646,0.008004
9,27,4,6,0,0,1,,2,S,0,S,13,0.021802,0.751539,0.016385
9,28,6,9,0,0,1,,3,S,0,S,14,0.013055,0.770794,0.010063
9,29,7,8,0,0,1,,1,S,0,S,18,0.003798,0.790018,0.003001
9,30,1,7,0,0,1,,6,S,0,S,10,0,0.756315,0
9,31,4,5,0,0,1,,1,S,0,S,16,0.009862,0.779155,0.007684
9,32,9,1,0,0,1,,8,L,0,S,10,0.774523,0,0
9,33,5,4,0,0,1,,1,S,0,S,15,0.779731,0.007122,0.005553
9,34,2,9,0,0,1,,7,L,0,S,11,0,0.795508,0
9,35,2,6,0,0,1,,4,S,0,S,12,0,0.804014,0
9,36,2,3,0,0,1,,1,S,0,S,15,0.031248,0.750066,0.023438
9,37,3,6,0,0,1,,3,S,0,S,12,0.01183,0.752871,0.008906
9,38,2,7,0,0,1,,5,S,0,S,11,0,0.762476,0
9,39,6,2,0,0,1,,4,S,0,S,12,0.796574,0,0
9,40,5,2,0,0,1,,3,S,0,S,12,0.766231,0.000706,0.000541
9,41,9,2,0,0,1,,7,L,0,S,11,0.790707,0,0
9,42,4,2,0,0,1,,2,S,0,S,13,0.754095,0.016737,0.012621
9,43,4,7,0,0,1,,3,S,0,S,13,0,0.786662,0
9,44,8,9,0,0,1,,1,S,0,S,17,0.019249,0.775987,0.014937
9,45,3,7,0,0,1,,4,S,0,S,12,0,0.77668,0
9,46,5,3,0,0,1,,2,S,0,S,13,0.768601,0.0083,0.006379
9,47,3,2,0,0,1,,1,S,0,S,16,0.793349,0,0
9,48,6,8,0,0,1,,2,S,0,S,15,0.004238,0.782341,0.003316
9,49,3,1,0,0,1,,2,S,0,S,12,0.7553,0.009631,0.007274
9,50,9,4,0,0,1,,5,S,0,S,12,0.786599,0,0
9,51,3,8,0,0,1,,5,S,0,S,12,0,0.803312,0
9,52,3,9,0,0,1,,6,S,0,S,11,0.000834,0.760086,0.000634
9,53,2,4,0,0,1,,2,S,0,S,13,0.021396,0.751216,0.016073
9,54,6,1,0,0,1,,5,S,0,S,11,0.801934,0,0
9,55,5,7,0,0,1,,2,S,0,S,15,0.002972,0.783324,0.002328
9,56,4,1,0,0,1,,3,S,0,S,12,0.804765,0,0
9,57,9,8,0,0,1,,1,S,0,S,19,0.753553,0.033695,0.025391
9,58,7,4,0,0,1,,3,S,0,S,13,0.797076,0,0
9,59,5,1,0,0,1,,4,S,0,S,11,0.782685,0,0
9,60,8,5,0,0,1,,3,S,0,S,14,0.797323,0,0
9,61,9,7,0,0,1,,2,S,0,S,16,0.790855,0.000419,0.000331
9,62,9,5,0,0,1,,4,S,0,S,13,0.788458,0,0
9,63,8,7,0,0,1,,1,S,0,S,19,0.758232,0.032007,0.024269
9,64,1,5,0,0,1,,4,S,0,S,11,0,0.779269,0
9,65,2,1,0,0,1,,1,S,0,S,14,0.800862,0,0
9,66,6,3,0,0,1,,3,S,0,S,12,0.756081,0.012043,0.009105
9,67,8,4,0,0,1,,4,S,0,S,12,0.757527,0.012045,0.009125
9,68,6,5,0,0,1,,1,S,0,S,16,0.782172,0.006331,0.004952
9,69,1,6,0,0,1,,5,S,0,S,11,0,0.80894,0
9,70,1,9,0,0,1,,8,L,0,S,10,0,0.779338,0
9,71,1,3,0,0,1,,2,S,0,S,12,0,0.770801,0
9,72,5,6,0,0,1,,1,S,0,S,16,0.031235,0.751351,0.023468
10,1,3,7,0,0,1,,4,S,0,S,11,0.003942,0.755353,0.002978
10,2,4,8,0,0,1,,4,S,0,S,12,0,0.781978,0
10,3,1,7,0,0,1,,6,S,0,S,10,0,0.763219,0
10,4,3,2,0,0,1,,1,S,0,S,16,0.779076,0.008717,0.006791
10,5,1,4,0,0,1,,3,S,0,S,12,0,0.792746,0
10,6,4,9,0,0,1,,5,S,0,S,12,0,0.802932,0
10,7,3,5,0,0,1,,2,S,0,S,13,0,0.781283,0
10,8,5,4,0,0,1,,1,S,0,S,16,0.777789,0.011069,0.008609
10,9,8,4,0,0,1,,4,S,0,S,12,0.783644,0,0
10,10,1,9,0,0,1,,8,L,0,S,10,0,0.777111,0
10,11,1,2,0,0,1,,1,S,0,S,14,0.009184,0.772193,0.007092
10,12,2,1,0,0,1,,1,S,0,S,13,0.755536,0.016696,0.012615
10,13,5,7,0,0,1,,2,S,0,S,13,0.006149,0.771428,0.004744
10,14,2,8,0,0,1,,6,S,0,S,11,0,0.779833,0
10,15,9,1,0,0,1,,8,L,0,S,10,0.777964,0,0
10,16,2,9,0,0,1,,7,L,0,S,11,0,0.794614,0
10,17,8,9,0,0,1,,1,S,0,S,19,0.03661,0.752917,0.027565
10,18,3,1,0,0,1,,2,S,0,S,13,0.790568,0,0
10,19,6,9,0,0,1,,3,S,0,S,14,0,0.785593,0
10,20,5,9,0,0,1,,4,S,0,S,12,0.011579,0.75664,0.008761
10,21,6,5,0,0,1,,1,S,0,S,17,0.775277,0.012552,0.009732
10,22,1,5,0,0,1,,4,S,0,S,11,0,0.779009,0
10,23,9,5,0,0,1,,4,S,0,S,13,0.790138,0,0
10,24,8,3,0,0,1,,5,S,0,S,11,0.757409,0.003404,0.002579
10,25,5,8,0,0,1,,3,S,0,S,13,0,0.783059,0
10,26,1,6,0,0,1,,5,S,0,S,11,0,0.796391,0
10,27,5,2,0,0,1,,3,S,0,S,12,0.756268,0.010184,0.007702
10,28,5,3,0,0,1,,2,S,0,S,14,0.780722,0.004032,0.003148
10,29,8,7,0,0,1,,1,S,0,S,19,0.76467,0.026732,0.020441
10,30,1,8,0,0,1,,7,L,0,S,10,0,0.766458,0
10,31,7,1,0,0,1,,6,S,0,S,10,0.754406,0,0
10,32,7,9,0,0,1,,2,S,0,S,15,0.027992,0.755187,0.021139
10,33,9,7,0,0,1,,2,S,0,S,16,0.753185,0.031919,0.024041
10,34,6,1,0,0,1,,5,S,0,S,11,0.797426,0,0
10,35,4,7,0,0,1,,3,S,0,S,12,0,0.77424,0
10,36,7,6,0,0,1,,1,S,0,S,15,0.755714,0.028968,0.021891
10,37,4,3,0,0,1,,1,S,0,S,17,0.788164,0.006658,0.005248
10,38,7,4,0,0,1,,3,S,0,S,13,0.804579,0,0
10,39,2,5,0,0,1,,3,S,0,S,12,0.008152,0.759062,0.006188
10,40,6,3,0,0,1,,3,S,0,S,12,0.750382,0.015217,0.011418
10,41,7,5,0,0,1,,2,S,0,S,14,0.751157,0.025055,0.01882
10,42,8,1,0,0,1,,7,L,0,S,10,0.768957,0,0
10,43,4,5,0,0,1,,1,S,0,S,14,0.024862,0.751024,0.018672
10,44,9,8,0,0,1,,1,S,0,S,18,0.794294,0.002363,0.001877
10,45,9,4,0,0,1,,5,S,0,S,12,0.801855,0,0
10,46,3,8,0,0,1,,5,S,0,S,11,0,0.761087,0
10,47,7,3,0,0,1,,4,S,0,S,12,0.789775,0,0
10,48,8,5,0,0,1,,3,S,0,S,13,0.761154,0.012438,0.009467
10,49,6,7,0,0,1,,1,S,0,S,15,0.020445,0.761738,0.015574
10,50,9,6,0,0,1,,3,S,0,S,13,0.769666,0.010202,0.007852
10,51,8,6,0,0,1,,2,S,0,S,14,0.787509,0.000525,0.000414
10,52,6,2,0,0,1,,4,S,0,S,12,0.804158,0,0
10,53,1,3,0,0,1,,2,S,0,S,12,0.011003,0.757893,0.008339
10,54,4,1,0,0,1,,3,S,0,S,12,0.788962,0,0
10,55,2,7,0,0,1,,5,S,0,S,11,0,0.774923,0
10,56,6,8,0,0,1,,2,S,0,S,15,0.001168,0.78587,0.000918
10,57,2,4,0,0,1,,2,S,0,S,14,0.005842,0.777452,0.004542
10,58,4,6,0,0,1,,2,S,0,S,14,0,0.800607,0
10,59,5,6,0,0,1,,1,S,0,S,16,0.013071,0.778591,0.010177
10,60,9,3,0,0,1,,6,S,0,S,11,0.772489,0,0
10,61,9,2,0,0,1,,7,L,0,S,11,0.805346,0,0
10,62,7,2,0,0,1,,5,S,0,S,11,0.773969,0,0
10,63,7,8,0,0,1,,1,S,0,S,17,0.030653,0.75594,0.023172
10,64,5,1,0,0,1,,4,S,0,S,11,0.766113,0,0
10,65,2,3,0,0,1,,1,S,0,S,16,0.011581,0.779038,0.009022
10,66,6,4,0,0,1,,2,S,0,S,13,0.752263,0.018936,0.014245
10,67,3,4,0,0,1,,1,S,0,S,15,0.019503,0.762838,0.014878
10,68,4,2,0,0,1,,2,S,0,S,14,0.800746,0,0
10,69,8,2,0,0,1,,6,S,0,S,11,0.793679,0,0
10,70,2,6,0,0,1,,4,S,0,S,12,0,0.786133,0
10,71,3,6,0,0,1,,3,S,0,S,12,0.011242,0.758087,0.008522
10,72,3,9,0,0,1,,6,S,0,S,11,0,0.777733,0
11,1,7,5,0,0,1,,2,S,0,S,15,0.795142,0,0
11,2,9,6,0,0,1,,3,S,0,S,14,0.794272,0,0
11,3,1,4,0,0,1,,3,S,0,S,12,0,0.807278,0
11,4,6,4,0,0,1,,2,S,0,S,14,0.774972,0.009262,0.007177
11,5,2,6,0,0,1,,4,S,0,S,12,0,0.800264,0
11,6,9,7,0,0,1,,2,S,0,S,16,0.776287,0.011594,0.009
11,7,8,2,0,0,1,,6,S,0,S,11,0.776938,0,0
11,8,2,8,0,0,1,,6,S,0,S,11,0,0.789314,0
11,9,9,8,0,0,1,,1,S,0,S,20,0.791176,0.003693,0.002922
11,10,5,3,0,0,1,,2,S,0,S,13,0.756181,0.017483,0.01322
11,11,5,6,0,0,1,,1,S,0,S,17,0,0.797447,0
11,12,9,1,0,0,1,,8,L,0,S,10,0.768267,0,0
11,13,7,4,0,0,1,,3,S,0,S,13,0.764045,0.012071,0.009223
11,14,5,8,0,0,1,,3,S,0,S,13,0.004941,0.771734,0.003813
11,15,5,7,0,0,1,,2,S,0,S,14,0.0037,0.78046,0.002888
11,16,7,9,0,0,1,,2,S,0,S,15,0.03097,0.751021,0.023259
11,17,9,4,0,0,1,,5,S,0,S,12,0.773475,0,0
11,18,3,9,0,0,1,,6,S,0,S,11,0.005314,0.753695,0.004005
11,19,8,4,0,0,1,,4,S,0,S,12,0.750888,0.016042,0.012045
11,20,7,3,0,0,1,,4,S,0,S,12,0.784528,0,0
11,21,8,5,0,0,1,,3,S,0,S,13,0.753803,0.016884,0.012727
11,22,2,4,0,0,1,,2,S,0,S,13,0,0.784919,0
11,23,7,2,0,0,1,,5,S,0,S,11,0.754456,0.005404,0.004077
11,24,3,6,0,0,1,,3,S,0,S,13,0,0.786909,0
11,25,5,2,0,0,1,,3,S,0,S,13,0.803446,0,0
11,26,6,3,0,0,1,,3,S,0,S,12,0.761372,0.008565,0.006521
11,27,2,9,0,0,1,,7,L,0,S,11,0,0.797078,0
11,28,1,7,0,0,1,,6,S,0,S,10,0,0.753302,0
11,29,1,9,0,0,1,,8,L,0,S,10,0,0.770969,0
11,30,2,1,0,0,1,,1,S,0,S,14,0.751321,0.025171,0.018911
11,31,1,5,0,0,1,,4,S,0,S,11,0,0.767314,0
11,32,4,5,0,0,1,,1,S,0,S,16,0.011956,0.773475,0.009247
11,33,5,1,0,0,1,,4,S,0,S,11,0.766279,0,0
11,34,6,7,0,0,1,,1,S,0,S,16,0.028306,0.757627,0.021445
11,35,4,7,0,0,1,,3,S,0,S,13,0,0.794255,0
11,36,3,5,0,0,1,,2,S,0,S,14,0.002082,0.777124,0.001618
11,37,1,8,0,0,1,,7,L,0,S,10,0,0.764791,0
11,38,4,3,0,0,1,,1,S,0,S,15,0.768843,0.016273,0.012512
11,39,8,6,0,0,1,,2,S,0,S,15,0.799658,0,0
11,40,4,6,0,0,1,,2,S,0,S,14,0.007609,0.776667,0.00591
11,41,2,5,0,0,1,,3,S,0,S,12,0.004152,0.761856,0.003164
11,42,4,2,0,0,1,,2,S,0,S,14,0.795465,0,0
11,43,6,1,0,0,1,,5,S,0,S,11,0.795547,0,0
11,44,4,8,0,0,1,,4,S,0,S,12,0.001888,0.768358,0.00145
11,45,4,1,0,0,1,,3,S,0,S,12,0.792481,0,0
11,46,3,8,0,0,1,,5,S,0,S,12,0,0.80239,0
11,47,6,5,0,0,1,,1,S,0,S,16,0.774025,0.012413,0.009608
11,48,1,2,0,0,1,,1,S,0,S,13,0.02012,0.752964,0.01515
11,49,4,9,0,0,1,,5,S,0,S,12,0,0.780426,0
11,50,9,3,0,0,1,,6,S,0,S,11,0.767077,0,0
11,51,8,1,0,0,1,,7,L,0,S,10,0.759694,0,0
11,52,3,4,0,0,1,,1,S,0,S,15,0.023953,0.757062,0.018134
11,53,7,8,0,0,1,,1,S,0,S,16,0.021423,0.763911,0.016365
11,54,6,8,0,0,1,,2,S,0,S,15,0,0.794675,0
11,55,1,3,0,0,1,,2,S,0,S,13,0,0.799482,0
11,56,5,9,0,0,1,,4,S,0,S,13,0,0.787575,0
11,57,7,1,0,0,1,,6,S,0,S,11,0.807566,0,0
11,58,8,7,0,0,1,,1,S,0,S,19,0.792009,0.005396,0.004274
11,59,7,6,0,0,1,,1,S,0,S,17,0.792259,0.003283,0.002601
11,60,6,9,0,0,1,,3,S,0,S,14,0.014863,0.76862,0.011424
11,61,3,1,0,0,1,,2,S,0,S,13,0.80314,0,0
11,62,5,4,0,0,1,,1,S,0,S,17,0.78205,0.010597,0.008288
11,63,3,7,0,0,1,,4,S,0,S,12,0,0.780547,0
11,64,2,3,0,0,1,,1,S,0,S,15,0.021776,0.760387,0.016558
11,65,9,5,0,0,1,,4,S,0,S,13,0.784233,0,0
11,66,3,2,0,0,1,,1,S,0,S,16,0.791031,0.000546,0.000432
11,67,8,3,0,0,1,,5,S,0,S,11,0.7523,0.006908,0.005197
11,68,2,7,0,0,1,,5,S,0,S,11,0,0.773788,0
11,69,6,2,0,0,1,,4,S,0,S,12,0.794912,0,0
11,70,1,6,0,0,1,,5,S,0,S,11,0,0.794162,0
11,71,8,9,0,0,1,,1,S,0,S,19,0.020335,0.774875,0.015757
11,72,9,2,0,0,1,,7,L,0,S,11,0.789156,0,0
12,1,3,9,0,0,1,,6,S,0,S,11,0,0.770135,0
12,2,8,3,0,0,1,,5,S,0,S,12,0.80862,0,0
12,3,3,4,0,0,1,,1,S,0,S,14,0.026358,0.750604,0.019785
12,4,9,2,0,0,1,,7,L,0,S,11,0.801387,0,0
12,5,5,7,0,0,1,,2,S,0,S,13,0.020333,0.752448,0.015299
12,6,7,4,0,0,1,,3,S,0,S,13,0.768275,0.009087,0.006981
12,7,4,5,0,0,1,,1,S,0,S,16,0,0.797895,0
12,8,2,4,0,0,1,,2,S,0,S,13,0.008075,0.767458,0.006197
12,9,3,6,0,0,1,,3,S,0,S,13,0,0.795463,0
12,10,1,7,0,0,1,,6,S,0,S,10,0,0.757456,0
12,11,1,8,0,0,1,,7,L,0,S,10,0,0.771396,0
12,12,5,1,0,0,1,,4,S,0,S,11,0.760631,0,0
12,13,7,9,0,0,1,,2,S,0,S,15,0.014166,0.770021,0.010908
12,14,6,7,0,0,1,,1,S,0,S,15,0.009798,0.774463,0.007589
12,15,2,3,0,0,1,,1,S,0,S,15,0.014237,0.769202,0.010951
12,16,8,9,0,0,1,,1,S,0,S,19,0.018006,0.775692,0.013967
12,17,4,6,0,0,1,,2,S,0,S,14,0.017446,0.762125,0.013296
12,18,4,8,0,0,1,,4,S,0,S,12,0,0.782317,0
12,19,5,6,0,0,1,,1,S,0,S,17,0.019129,0.77309,0.014788
12,20,5,8,0,0,1,,3,S,0,S,13,0,0.794944,0
12,21,9,8,0,0,1,,1,S,0,S,20,0.758233,0.032368,0.024542
12,22,6,9,0,0,1,,3,S,0,S,14,0,0.801428,0
12,23,9,1,0,0,1,,8,L,0,S,10,0.767436,0,0
12,24,1,6,0,0,1,,5,S,0,S,11,0,0.789527,0
12,25,1,9,0,0,1,,8,L,0,S,10,0,0.773264,0
12,26,3,5,0,0,1,,2,S,0,S,13,0.01255,0.761375,0.009555
12,27,4,2,0,0,1,,2,S,0,S,13,0.764152,0.009066,0.006928
12,28,1,5,0,0,1,,4,S,0,S,11,0,0.773468,0
12,29,6,8,0,0,1,,2,S,0,S,14,0,0.788337,0
12,30,3,7,0,0,1,,4,S,0,S,12,0,0.801897,0
12,31,4,3,0,0,1,,1,S,0,S,17,0.789466,0.003475,0.002743
12,32,9,7,0,0,1,,2,S,0,S,16,0.75769,0.025451,0.019284
12,33,8,4,0,0,1,,4,S,0,S,12,0.763927,0.007319,0.005591
12,34,4,9,0,0,1,,5,S,0,S,12,0,0.788094,0
12,35,9,6,0,0,1,,3,S,0,S,13,0.76672,0.009632,0.007385
12,36,8,6,0,0,1,,2,S,0,S,14,0.793613,0,0
12,37,4,7,0,0,1,,3,S,0,S,12,0.013376,0.751396,0.010051
12,38,8,1,0,0,1,,7,L,0,S,10,0.762102,0,0
12,39,4,1,0,0,1,,3,S,0,S,12,0.781779,0,0
12,40,1,2,0,0,1,,1,S,0,S,14,0.011534,0.765847,0.008833
12,41,6,2,0,0,1,,4,S,0,S,12,0.795501,0,0
12,42,6,1,0,0,1,,5,S,0,S,11,0.781297,0,0
12,43,1,3,0,0,1,,2,S,0,S,12,0.003832,0.764858,0.002931
12,44,3,1,0,0,1,,2,S,0,S,13,0.7815,0,0
12,45,9,3,0,0,1,,6,S,0,S,11,0.760219,0.000319,0.000242
12,46,2,8,0,0,1,,6,S,0,S,11,0,0.789181,0
12,47,7,5,0,0,1,,2,S,0,S,14,0.753595,0.023536,0.017736
12,48,8,5,0,0,1,,3,S,0,S,13,0.773609,0.005094,0.003941
12,49,6,4,0,0,1,,2,S,0,S,15,0.791364,0,0
12,50,7,8,0,0,1,,1,S,0,S,16,0.002301,0.791463,0.001821
12,51,5,2,0,0,1,,3,S,0,S,12,0.765746,0.003794,0.002905
12,52,3,8,0,0,1,,5,S,0,S,11,0,0.766133,0
12,53,2,9,0,0,1,,7,L,0,S,11,0,0.792205,0
12,54,5,3,0,0,1,,2,S,0,S,14,0.77577,0.008282,0.006425
12,55,7,6,0,0,1,,1,S,0,S,16,0.795378,0,0
12,56,6,5,0,0,1,,1,S,0,S,17,0.75719,0.027505,0.020827
12,57,2,1,0,0,1,,1,S,0,S,14,0.768325,0.008739,0.006714
12,58,2,5,0,0,1,,3,S,0,S,12,0.010876,0.754233,0.008203
12,59,9,5,0,0,1,,4,S,0,S,13,0.793521,0,0
12,60,6,3,0,0,1,,3,S,0,S,13,0.778587,0,0
12,61,7,2,0,0,1,,5,S,0,S,11,0.769024,0,0
12,62,9,4,0,0,1,,5,S,0,S,12,0.778636,0,0
12,63,3,2,0,0,1,,1,S,0,S,15,0.761452,0.019466,0.014823
12,64,8,7,0,0,1,,1,S,0,S,18,0.754592,0.033853,0.025545
12,65,2,6,0,0,1,,4,S,0,S,12,0,0.780042,0
12,66,7,1,0,0,1,,6,S,0,S,11,0.805453,0,0
12,67,5,9,0,0,1,,4,S,0,S,13,0,0.8034,0
12,68,7,3,0,0,1,,4,S,0,S,12,0.772737,0,0
12,69,8,2,0,0,1,,6,S,0,S,11,0.794482,0,0
12,70,1,4,0,0,1,,3,S,0,S,11,0.006656,0.750678,0.004996
12,71,2,7,0,0,1,,5,S,0,S,11,0,0.769845,0
12,72,5,4,0,0,1,,1,S,0,S,17,0.761266,0.027906,0.021244
13,1,5,3,0,0,1,,2,S,0,S,14,0.766218,0.013146,0.010073
13,2,3,9,0,0,1,,6,S,0,S,11,0,0.771574,0
13,3,9,3,0,0,1,,6,S,0,S,11,0.759656,0.001367,0.001039
13,4,4,7,0,0,1,,3,S,0,S,13,0.004929,0.775093,0.00382
13,5,5,2,0,0,1,,3,S,0,S,12,0.788292,0,0
13,6,7,4,0,0,1,,3,S,0,S,14,0.802095,0,0
13,7,4,5,0,0,1,,1,S,0,S,16,0.010302,0.777643,0.008011
13,8,9,1,0,0,1,,8,L,0,S,10,0.776319,0,0
13,9,7,5,0,0,1,,2,S,0,S,15,0.785605,0.003089,0.002426
13,10,3,5,0,0,1,,2,S,0,S,13,0.019221,0.751121,0.014438
13,11,6,9,0,0,1,,3,S,0,S,13,0.019453,0.756484,0.014716
13,12,4,2,0,0,1,,2,S,0,S,13,0.802962,0,0
13,13,8,9,0,0,1,,1,S,0,S,20,0.015011,0.782941,0.011753
13,14,6,2,0,0,1,,4,S,0,S,11,0.758005,0.001162,0.000881
13,15,4,3,0,0,1,,1,S,0,S,17,0.786793,0.006041,0.004753
13,16,4,9,0,0,1,,5,S,0,S,12,0,0.790484,0
13,17,9,5,0,0,1,,4,S,0,S,13,0.80063,0,0
13,18,1,9,0,0,1,,8,L,0,S,10,0,0.788484,0
13,19,5,7,0,0,1,,2,S,0,S,15,0,0.79799,0
13,20,6,5,0,0,1,,1,S,0,S,17,0.773045,0.016043,0.012402
13,21,6,1,0,0,1,,5,S,0,S,11,0.791775,0,0
13,22,7,1,0,0,1,,6,S,0,S,11,0.809081,0,0
13,23,9,8,0,0,1,,1,S,0,S,15,0.757582,0.027069,0.020507
13,24,2,1,0,0,1,,1,S,0,S,14,0.763103,0.015851,0.012096
13,25,5,9,0,0,1,,4,S,0,S,13,0,0.800322,0
13,26,9,7,0,0,1,,2,S,0,S,14,0.757074,0.023744,0.017976
13,27,7,3,0,0,1,,4,S,0,S,12,0.757493,0.011199,0.008483
13,28,8,1,0,0,1,,7,L,0,S,10,0.767701,0,0
13,29,5,1,0,0,1,,4,S,0,S,11,0.769413,0,0
13,30,3,7,0,0,1,,4,S,0,S,12,0,0.780385,0
13,31,5,6,0,0,1,,1,S,0,S,17,0.004214,0.791,0.003333
13,32,1,7,0,0,1,,6,S,0,S,10,0,0.762874,0
13,33,3,1,0,0,1,,2,S,0,S,13,0.799595,0,0
13,34,5,8,0,0,1,,3,S,0,S,14,0,0.787035,0
13,35,8,6,0,0,1,,2,S,0,S,14,0.783139,0.003347,0.002621
13,36,6,3,0,0,1,,3,S,0,S,13,0.773633,0.004344,0.003361
13,37,6,4,0,0,1,,2,S,0,S,15,0.788534,0.001732,0.001366
13,38,1,4,0,0,1,,3,S,0,S,11,0,0.775236,0
13,39,1,8,0,0,1,,7,L,0,S,10,0,0.770941,0
13,40,1,2,0,0,1,,1,S,0,S,14,0.00042,0.779728,0.000328
13,41,8,2,0,0,1,,6,S,0,S,11,0.806328,0,0
13,42,1,6,0,0,1,,5,S,0,S,11,0,0.811646,0
13,43,7,2,0,0,1,,5,S,0,S,11,0.779583,0,0
13,44,8,7,0,0,1,,1,S,0,S,15,0.755505,0.027769,0.02098
13,45,7,6,0,0,1,,1,S,0,S,17,0.774382,0.019745,0.01529
13,46,6,8,0,0,1,,2,S,0,S,15,0.023559,0.761697,0.017945
13,47,4,1,0,0,1,,3,S,0,S,12,0.798481,0,0
13,48,2,4,0,0,1,,2,S,0,S,13,0,0.795346,0
13,49,4,8,0,0,1,,4,S,0,S,13,0,0.799554,0
13,50,4,6,0,0,1,,2,S,0,S,14,0.010255,0.774257,0.00794
13,51,1,3,0,0,1,,2,S,0,S,12,0,0.797566,0
13,52,6,7,0,0,1,,1,S,0,S,17,0.009031,0.786372,0.007102
13,53,8,4,0,0,1,,4,S,0,S,12,0.760653,0.008474,0.006446
13,54,2,3,0,0,1,,1,S,0,S,14,0.010798,0.770214,0.008317
13,55,7,9,0,0,1,,2,S,0,S,14,0.02784,0.753144,0.020967
13,56,2,8,0,0,1,,6,S,0,S,11,0,0.780589,0
13,57,8,5,0,0,1,,3,S,0,S,13,0.775568,0.001661,0.001288
13,58,8,3,0,0,1,,5,S,0,S,12,0.803034,0,0
13,59,9,6,0,0,1,,3,S,0,S,13,0.76421,0.013766,0.01052
13,60,2,6,0,0,1,,4,S,0,S,12,0,0.803995,0
13,61,3,8,0,0,1,,5,S,0,S,12,0,0.796954,0
13,62,2,7,0,0,1,,5,S,0,S,11,0,0.768328,0
13,63,3,6,0,0,1,,3,S,0,S,13,0,0.802444,0
13,64,5,4,0,0,1,,1,S,0,S,17,0.757169,0.029124,0.022051
13,65,2,5,0,0,1,,3,S,0,S,12,0.000337,0.769545,0.000259
13,66,3,2,0,0,1,,1,S,0,S,14,0.774842,0.005432,0.004209
13,67,7,8,0,0,1,,1,S,0,S,18,0.024617,0.769967,0.018954
13,68,2,9,0,0,1,,7,L,0,S,11,0,0.806052,0
13,69,9,4,0,0,1,,5,S,0,S,12,0.780837,0,0
13,70,9,2,0,0,1,,7,L,0,S,10,0.75306,0,0
13,71,3,4,0,0,1,,1,S,0,S,14,0.026243,0.750446,0.019694
13,72,1,5,0,0,1,,4,S,0,S,11,0,0.79026,0
14,1,4,2,0,0,1,,2,S,0,S,13,0.769862,0.004985,0.003838
14,2,5,7,0,0,1,,2,S,0,S,14,0.002098,0.782938,0.001643
14,3,5,2,0,0,1,,3,S,0,S,13,0.802693,0,0
14,4,1,8,0,0,1,,7,L,0,S,10,0,0.761568,0
14,5,8,6,0,0,1,,2,S,0,S,14,0.760141,0.020502,0.015584
14,6,1,6,0,0,1,,5,S,0,S,11,0,0.802183,0
14,7,8,1,0,0,1,,7,L,0,S,10,0.76342,0,0
14,8,8,2,0,0,1,,6,S,0,S,11,0.783497,0,0
14,9,6,5,0,0,1,,1,S,0,S,17,0.764244,0.024007,0.018347
14,10,8,4,0,0,1,,4,S,0,S,12,0.765115,0.004513,0.003453
14,11,9,8,0,0,1,,1,S,0,S,20,0.792227,0.0061,0.004833
14,12,6,8,0,0,1,,2,S,0,S,15,0.017876,0.764715,0.01367
14,13,9,4,0,0,1,,5,S,0,S,12,0.767667,0.004284,0.003289
14,14,3,6,0,0,1,,3,S,0,S,13,0.003812,0.775197,0.002955
14,15,4,3,0,0,1,,1,S,0,S,15,0.783246,0.003847,0.003013
14,16,7,3,0,0,1,,4,S,0,S,12,0.77557,0,0
14,17,3,5,0,0,1,,2,S,0,S,14,0.007034,0.774779,0.00545
14,18,1,2,0,0,1,,1,S,0,S,14,0,0.797314,0
14,19,2,9,0,0,1,,7,L,0,S,11,0,0.798185,0
14,20,7,2,0,0,1,,5,S,0,S,11,0.755363,0.003036,0.002293
14,21,5,4,0,0,1,,1,S,0,S,17,0.778536,0.013448,0.010469
14,22,2,8,0,0,1,,6,S,0,S,11,0,0.773646,0
14,23,6,7,0,0,1,,1,S,0,S,17,0,0.795246,0
14,24,6,2,0,0,1,,4,S,0,S,12,0.7923,0,0
14,25,7,6,0,0,1,,1,S,0,S,17,0.753995,0.034367,0.025913
14,26,4,9,0,0,1,,5,S,0,S,12,0,0.779364,0
14,27,8,9,0,0,1,,1,S,0,S,18,0.033382,0.7553,0.025213
14,28,2,3,0,0,1,,1,S,0,S,16,0.011186,0.779497,0.008719
14,29,8,7,0,0,1,,1,S,0,S,17,0.78818,0.004685,0.003693
14,30,3,1,0,0,1,,2,S,0,S,12,0.766523,0.002919,0.002237
14,31,3,2,0,0,1,,1,S,0,S,14,0.752294,0.021867,0.016451
14,32,9,2,0,0,1,,7,L,0,S,11,0.78577,0,0
14,33,9,6,0,0,1,,3,S,0,S,14,0.762556,0.020617,0.015722
14,34,9,5,0,0,1,,4,S,0,S,13,0.761382,0.015206,0.011578
14,35,6,3,0,0,1,,3,S,0,S,13,0.801299,0,0
14,36,7,1,0,0,1,,6,S,0,S,11,0.806872,0,0
14,37,5,9,0,0,1,,4,S,0,S,12,0.012296,0.756857,0.009306
14,38,4,6,0,0,1,,2,S,0,S,14,0.019516,0.761104,0.014853
14,39,9,7,0,0,1,,2,S,0,S,17,0.789576,0.00573,0.004524
14,40,7,4,0,0,1,,3,S,0,S,13,0.767484,0.009197,0.007059
14,41,5,8,0,0,1,,3,S,0,S,13,0.013392,0.761119,0.010193
14,42,3,4,0,0,1,,1,S,0,S,17,0.018909,0.768991,0.014541
14,43,6,9,0,0,1,,3,S,0,S,14,0,0.798855,0
14,44,8,3,0,0,1,,5,S,0,S,11,0.75282,0.005431,0.004089
14,45,4,5,0,0,1,,1,S,0,S,16,0.016679,0.770655,0.012854
14,46,2,4,0,0,1,,2,S,0,S,13,0.018264,0.756503,0.013817
14,47,1,4,0,0,1,,3,S,0,S,12,0,0.80774,0
14,48,9,3,0,0,1,,6,S,0,S,11,0.755166,0.00525,0.003965
14,49,7,8,0,0,1,,1,S,0,S,17,0.029073,0.756835,0.022003
14,50,2,1,0,0,1,,1,S,0,S,14,0.791635,0,0
14,51,8,5,0,0,1,,3,S,0,S,13,0.75876,0.015341,0.01164
14,52,1,7,0,0,1,,6,S,0,S,10,0,0.753689,0
14,53,4,7,0,0,1,,3,S,0,S,13,0.008117,0.767573,0.00623
14,54,1,3,0,0,1,,2,S,0,S,12,0.008676,0.758568,0.006581
14,55,3,7,0,0,1,,4,S,0,S,12,0.007789,0.759356,0.005915
14,56,1,5,0,0,1,,4,S,0,S,11,0,0.783142,0
14,57,4,1,0,0,1,,3,S,0,S,12,0.802361,0,0
14,58,3,8,0,0,1,,5,S,0,S,12,0,0.777108,0
14,59,2,6,0,0,1,,4,S,0,S,12,0,0.79621,0
14,60,5,6,0,0,1,,1,S,0,S,16,0,0.798951,0
14,61,3,9,0,0,1,,6,S,0,S,11,0.006492,0.752049,0.004883
14,62,6,1,0,0,1,,5,S,0,S,11,0.791879,0,0
14,63,7,5,0,0,1,,2,S,0,S,15,0.772101,0.013942,0.010764
14,64,5,3,0,0,1,,2,S,0,S,14,0.787761,0,0
14,65,5,1,0,0,1,,4,S,0,S,11,0.763519,0,0
14,66,2,7,0,0,1,,5,S,0,S,11,0.000483,0.761691,0.000368
14,67,1,9,0,0,1,,8,L,0,S,10,0,0.779083,0
14,68,9,1,0,0,1,,8,L,0,S,10,0.765349,0,0
14,69,7,9,0,0,1,,2,S,0,S,15,0,0.796613,0
14,70,2,5,0,0,1,,3,S,0,S,12,0.005976,0.765289,0.004573
14,71,4,8,0,0,1,,4,S,0,S,13,0,0.79155,0
14,72,6,4,0,0,1,,2,S,0,S,14,0.773122,0.008957,0.006925
15,1,7,2,0,0,1,,5,S,0,S,11,0.752751,0.006285,0.004731
15,2,9,7,0,0,1,,2,S,0,S,15,0.77522,0.0106,0.008217
15,3,5,3,0,0,1,,2,S,0,S,14,0.78734,0,0
15,4,4,3,0,0,1,,1,S,0,S,17,0.776319,0.015299,0.011877
15,5,9,6,0,0,1,,3,S,0,S,14,0.799505,0,0
15,6,2,6,0,0,1,,4,S,0,S,12,0,0.783956,0
15,7,5,2,0,0,1,,3,S,0,S,12,0.754699,0.013155,0.009928
15,8,4,6,0,0,1,,2,S,0,S,14,0.002883,0.781112,0.002252
15,9,8,6,0,0,1,,2,S,0,S,14,0.76496,0.016013,0.012249
15,10,4,2,0,0,1,,2,S,0,S,14,0.785912,0.000523,0.000411
15,11,1,3,0,0,1,,2,S,0,S,12,0.002926,0.76631,0.002243
15,12,8,1,0,0,1,,7,L,0,S,10,0.756042,0,0
15,13,1,4,0,0,1,,3,S,0,S,11,0.001353,0.757053,0.001024
15,14,9,4,0,0,1,,5,S,0,S,12,0.76228,0.0053,0.00404
15,15,3,8,0,0,1,,5,S,0,S,12,0,0.803276,0
15,16,2,9,0,0,1,,7,L,0,S,11,0,0.798186,0
15,17,7,1,0,0,1,,6,S,0,S,11,0.797761,0,0
15,18,6,2,0,0,1,,4,S,0,S,12,0.792664,0,0
15,19,4,9,0,0,1,,5,S,0,S,12,0,0.799566,0
15,20,8,2,0,0,1,,6,S,0,S,11,0.782099,0,0
15,21,3,9,0,0,1,,6,S,0,S,11,0,0.770383,0
15,22,7,9,0,0,1,,2,S,0,S,15,0,0.796232,0
15,23,8,7,0,0,1,,1,S,0,S,16,0.756192,0.030577,0.023122
15,24,6,4,0,0,1,,2,S,0,S,15,0.785769,0.003903,0.003067
15,25,6,7,0,0,1,,1,S,0,S,17,0.014569,0.779887,0.011362
15,26,3,2,0,0,1,,1,S,0,S,15,0.751014,0.032208,0.024189
15,27,8,9,0,0,1,,1,S,0,S,18,0.00341,0.7969,0.002718
15,28,3,4,0,0,1,,1,S,0,S,15,0,0.79782,0
15,29,6,9,0,0,1,,3,S,0,S,13,0.022622,0.753586,0.017047
15,30,4,5,0,0,1,,1,S,0,S,15,0.028355,0.753024,0.021352
15,31,2,5,0,0,1,,3,S,0,S,12,0.014191,0.751904,0.01067
15,32,3,5,0,0,1,,2,S,0,S,14,0,0.792623,0
15,33,8,5,0,0,1,,3,S,0,S,13,0.771785,0.006981,0.005388
15,34,7,4,0,0,1,,3,S,0,S,14,0.789522,0,0
15,35,1,5,0,0,1,,4,S,0,S,11,0,0.77249,0
15,36,3,7,0,0,1,,4,S,0,S,12,0,0.778222,0
15,37,5,6,0,0,1,,1,S,0,S,17,0.026505,0.760353,0.020153
15,38,5,9,0,0,1,,4,S,0,S,13,0,0.801088,0
15,39,2,4,0,0,1,,2,S,0,S,13,0,0.780105,0
15,40,1,6,0,0,1,,5,S,0,S,11,0,0.791328,0
15,41,4,7,0,0,1,,3,S,0,S,13,0,0.790177,0
15,42,8,3,0,0,1,,5,S,0,S,12,0.803398,0,0
15,43,9,1,0,0,1,,8,L,0,S,10,0.762786,0,0
15,44,2,1,0,0,1,,1,S,0,S,14,0.753921,0.022574,0.017019
15,45,2,3,0,0,1,,1,S,0,S,15,0.014752,0.77028,0.011364
15,46,2,8,0,0,1,,6,S,0,S,11,0,0.777531,0
15,47,2,7,0,0,1,,5,S,0,S,11,0.002748,0.757975,0.002083
15,48,5,1,0,0,1,,4,S,0,S,11,0.759187,0.001046,0.000794
15,49,9,2,0,0,1,,7,L,0,S,11,0.791367,0,0
15,50,3,1,0,0,1,,2,S,0,S,13,0.791473,0,0
15,51,3,6,0,0,1,,3,S,0,S,13,0,0.788733,0
15,52,7,5,0,0,1,,2,S,0,S,15,0.79891,0,0
15,53,9,8,0,0,1,,1,S,0,S,17,0.777285,0.014426,0.011213
15,54,7,6,0,0,1,,1,S,0,S,17,0.786378,0.005651,0.004444
15,55,7,8,0,0,1,,1,S,0,S,17,0.021186,0.769893,0.016311
15,56,6,8,0,0,1,,2,S,0,S,15,0.008124,0.783483,0.006365
15,57,1,9,0,0,1,,8,L,0,S,10,0,0.777693,0
15,58,4,1,0,0,1,,3,S,0,S,12,0.773507,0,0
15,59,9,5,0,0,1,,4,S,0,S,13,0.795304,0,0
15,60,5,8,0,0,1,,3,S,0,S,13,0.02243,0.751836,0.016864
15,61,4,8,0,0,1,,4,S,0,S,12,0.005067,0.76721,0.003888
15,62,6,1,0,0,1,,5,S,0,S,11,0.784891,0,0
15,63,1,7,0,0,1,,6,S,0,S,11,0,0.81267,0
15,64,1,2,0,0,1,,1,S,0,S,13,0.0163,0.756508,0.012331
15,65,9,3,0,0,1,,6,S,0,S,11,0.75714,0.002225,0.001685
15,66,6,5,0,0,1,,1,S,0,S,16,0.770065,0.019341,0.014894
15,67,6,3,0,0,1,,3,S,0,S,13,0.792356,0,0
15,68,5,4,0,0,1,,1,S,0,S,18,0.782589,0.010581,0.008281
15,69,1,8,0,0,1,,7,L,0,S,10,0,0.762992,0
15,70,8,4,0,0,1,,4,S,0,S,13,0.797826,0,0
15,71,5,7,0,0,1,,2,S,0,S,15,0,0.800224,0
15,72,7,3,0,0,1,,4,S,0,S,12,0.764935,0.004918,0.003762
16,1,5,9,0,0,1,,4,S,0,S,13,0,0.794997,0
16,2,4,6,0,0,1,,2,S,0,S,14,0.014151,0.768502,0.010875
16,3,5,2,0,0,1,,3,S,0,S,13,0.795583,0,0
16,4,5,7,0,0,1,,2,S,0,S,14,0.003581,0.778763,0.002789
16,5,9,4,0,0,1,,5,S,0,S,12,0.791622,0,0
16,6,6,1,0,0,1,,5,S,0,S,11,0.777114,0,0
16,7,3,5,0,0,1,,2,S,0,S,14,0.014092,0.769243,0.010841
16,8,9,6,0,0,1,,3,S,0,S,13,0.755897,0.017189,0.012993
16,9,7,2,0,0,1,,5,S,0,S,12,0.805138,0,0
16,10,4,9,0,0,1,,5,S,0,S,12,0,0.780899,0
16,11,6,3,0,0,1,,3,S,0,S,13,0.758376,0.015143,0.011484
16,12,8,5,0,0,1,,3,S,0,S,13,0.777379,0.002146,0.001668
16,13,5,4,0,0,1,,1,S,0,S,16,0.76089,0.024663,0.018766
16,14,4,8,0,0,1,,4,S,0,S,12,0,0.780293,0
16,15,6,9,0,0,1,,3,S,0,S,13,0.014824,0.7586,0.011245
16,16,4,2,0,0,1,,2,S,0,S,14,0.801971,0,0
16,17,4,3,0,0,1,,1,S,0,S,16,0.753633,0.030406,0.022915
16,18,6,5,0,0,1,,1,S,0,S,17,0.773727,0.018064,0.013976
16,19,5,1,0,0,1,,4,S,0,S,11,0.756063,0.002358,0.001783
16,20,7,4,0,0,1,,3,S,0,S,13,0.766969,0.009807,0.007522
16,21,1,7,0,0,1,,6,S,0,S,11,0,0.804051,0
16,22,7,5,0,0,1,,2,S,0,S,14,0.751611,0.026109,0.019624
16,23,3,7,0,0,1,,4,S,0,S,12,0,0.776033,0
16,24,2,4,0,0,1,,2,S,0,S,14,0,0.784373,0
16,25,9,5,0,0,1,,4,S,0,S,12,0.755916,0.01173,0.008867
16,26,3,8,0,0,1,,5,S,0,S,11,0.00539,0.755085,0.00407
16,27,3,1,0,0,1,,2,S,0,S,13,0.804253,0,0
16,28,1,2,0,0,1,,1,S,0,S,14,0.003764,0.777261,0.002926
16,29,4,1,0,0,1,,3,S,0,S,12,0.790208,0,0
16,30,8,9,0,0,1,,1,S,0,S,19,0.007601,0.786133,0.005975
16,31,8,3,0,0,1,,5,S,0,S,12,0.793609,0,0
16,32,1,6,0,0,1,,5,S,0,S,11,0,0.781286,0
16,33,3,2,0,0,1,,1,S,0,S,15,0.760883,0.023497,0.017878
16,34,2,9,0,0,1,,7,L,0,S,11,0,0.782779,0
16,35,7,9,0,0,1,,2,S,0,S,15,0.000697,0.78679,0.000548
16,36,4,5,0,0,1,,1,S,0,S,17,0.005176,0.791345,0.004096
16,37,2,6,0,0,1,,4,S,0,S,12,0,0.776664,0
16,38,3,9,0,0,1,,6,S,0,S,11,0.004124,0.755344,0.003115
16,39,6,7,0,0,1,,1,S,0,S,15,0.018153,0.765396,0.013894
16,40,2,1,0,0,1,,1,S,0,S,14,0.778971,0.00178,0.001387
16,41,1,4,0,0,1,,3,S,0,S,12,0,0.783768,0
16,42,7,3,0,0,1,,4,S,0,S,12,0.750989,0.014008,0.01052
16,43,9,2,0,0,1,,7,L,0,S,11,0.793498,0,0
16,44,9,3,0,0,1,,6,S,0,S,11,0.756174,0.00237,0.001792
16,45,9,7,0,0,1,,2,S,0,S,15,0.763161,0.018766,0.014322
16,46,9,1,0,0,1,,8,L,0,S,10,0.768168,0,0
16,47,7,1,0,0,1,,6,S,0,S,11,0.797873,0,0
16,48,6,2,0,0,1,,4,S,0,S,12,0.773734,0,0
16,49,1,5,0,0,1,,4,S,0,S,11,0.002983,0.755057,0.002252
16,50,2,8,0,0,1,,6,S,0,S,11,0,0.782903,0
16,51,7,6,0,0,1,,1,S,0,S,18,0.795291,0.001113,0.000885
16,52,6,8,0,0,1,,2,S,0,S,13,0.017826,0.756356,0.013483
16,53,1,9,0,0,1,,8,L,0,S,10,0,0.762073,0
16,54,9,8,0,0,1,,1,S,0,S,20,0.753785,0.03511,0.026465
16,55,5,6,0,0,1,,1,S,0,S,16,0.024094,0.760931,0.018334
16,56,3,4,0,0,1,,1,S,0,S,16,0.027454,0.759778,0.020859
16,57,1,3,0,0,1,,2,S,0,S,13,0,0.801443,0
16,58,6,4,0,0,1,,2,S,0,S,14,0.751798,0.026448,0.019883
16,59,7,8,0,0,1,,1,S,0,S,15,0.005806,0.782017,0.00454
16,60,8,2,0,0,1,,6,S,0,S,11,0.777345,0,0
16,61,5,3,0,0,1,,2,S,0,S,14,0.755634,0.020701,0.015643
16,62,8,7,0,0,1,,1,S,0,S,18,0.791865,0.002616,0.002072
16,63,8,6,0,0,1,,2,S,0,S,14,0.756751,0.021505,0.016274
16,64,3,6,0,0,1,,3,S,0,S,13,0,0.783523,0
16,65,8,4,0,0,1,,4,S,0,S,12,0.765818,0.004683,0.003586
16,66,5,8,0,0,1,,3,S,0,S,13,0,0.793866,0
16,67,4,7,0,0,1,,3,S,0,S,13,0,0.785962,0
16,68,2,5,0,0,1,,3,S,0,S,13,0,0.788375,0
16,69,1,8,0,0,1,,7,L,0,S,10,0,0.762393,0
16,70,2,7,0,0,1,,5,S,0,S,11,0.004003,0.752657,0.003013
16,71,8,1,0,0,1,,7,L,0,S,10,0.756209,0,0
16,72,2,3,0,0,1,,1,S,0,S,15,0.025938,0.751401,0.01949
17,1,4,2,0,0,1,,2,S,0,S,14,0.793727,0,0
17,2,4,8,0,0,1,,4,S,0,S,12,0.004892,0.76558,0.003745
17,3,6,7,0,0,1,,1,S,0,S,17,0.00884,0.782984,0.006921
17,4,2,1,0,0,1,,1,S,0,S,14,0.750477,0.026611,0.019971
17,5,1,8,0,0,1,,7,L,0,S,10,0,0.761652,0
17,6,3,2,0,0,1,,1,S,0,S,15,0.775482,0.011554,0.00896
17,7,9,7,0,0,1,,2,S,0,S,16,0.772512,0.018099,0.013982
17,8,7,4,0,0,1,,3,S,0,S,14,0.795654,0,0
17,9,1,6,0,0,1,,5,S,0,S,11,0,0.798973,0
17,10,8,4,0,0,1,,4,S,0,S,12,0.762039,0.007786,0.005933
17,11,5,6,0,0,1,,1,S,0,S,17,0.004768,0.790099,0.003767
17,12,9,1,0,0,1,,8,L,0,S,10,0.759086,0,0
17,13,4,1,0,0,1,,3,S,0,S,12,0.771774,0,0
17,14,1,5,0,0,1,,4,S,0,S,11,0,0.762469,0
17,15,8,7,0,0,1,,1,S,0,S,15,0.761557,0.022378,0.017042
17,16,8,6,0,0,1,,2,S,0,S,14,0.7786,0.006507,0.005067
17,17,1,4,0,0,1,,3,S,0,S,11,0.002399,0.757413,0.001817
17,18,3,7,0,0,1,,4,S,0,S,12,0,0.773934,0
17,19,4,5,0,0,1,,1,S,0,S,16,0.031407,0.751829,0.023612
17,20,2,7,0,0,1,,5,S,0,S,11,0.000406,0.762194,0.000309
17,21,3,6,0,0,1,,3,S,0,S,13,0,0.800753,0
17,22,2,8,0,0,1,,6,S,0,S,11,0,0.780717,0
17,23,6,1,0,0,1,,5,S,0,S,11,0.780141,0,0
17,24,3,8,0,0,1,,5,S,0,S,12,0,0.798782,0
17,25,8,5,0,0,1,,3,S,0,S,12,0.753919,0.013631,0.010276
17,26,5,1,0,0,1,,4,S,0,S,11,0.763228,0,0
17,27,4,6,0,0,1,,2,S,0,S,13,0.021575,0.751187,0.016207
17,28,3,4,0,0,1,,1,S,0,S,15,0,0.792012,0
17,29,1,2,0,0,1,,1,S,0,S,14,0,0.790873,0
17,30,2,6,0,0,1,,4,S,0,S,12,0,0.801363,0
17,31,8,3,0,0,1,,5,S,0,S,11,0.762572,0.000808,0.000616
17,32,2,5,0,0,1,,3,S,0,S,13,0,0.798034,0
17,33,6,4,0,0,1,,2,S,0,S,15,0.776521,0.009442,0.007332
17,34,6,9,0,0,1,,3,S,0,S,13,0.006084,0.769956,0.004684
17,35,9,2,0,0,1,,7,L,0,S,11,0.788771,0,0
17,36,6,5,0,0,1,,1,S,0,S,15,0.755371,0.025502,0.019264
17,37,4,3,0,0,1,,1,S,0,S,16,0.754323,0.031174,0.023515
17,38,2,4,0,0,1,,2,S,0,S,13,0,0.789242,0
17,39,7,1,0,0,1,,6,S,0,S,11,0.799879,0,0
17,40,5,2,0,0,1,,3,S,0,S,12,0.766733,0.003397,0.002605
17,41,7,5,0,0,1,,2,S,0,S,14,0.782411,0.003196,0.002501
17,42,3,5,0,0,1,,2,S,0,S,14,0.021516,0.758414,0.016318
17,43,8,2,0,0,1,,6,S,0,S,11,0.793745,0,0
17,44,5,9,0,0,1,,4,S,0,S,12,0.014444,0.751431,0.010854
17,45,8,1,0,0,1,,7,L,0,S,10,0.762847,0,0
17,46,8,9,0,0,1,,1,S,0,S,18,0.016094,0.776587,0.012499
17,47,7,8,0,0,1,,1,S,0,S,17,0.020056,0.771693,0.015477
17,48,7,9,0,0,1,,2,S,0,S,14,0.007983,0.775416,0.00619
17,49,6,2,0,0,1,,4,S,0,S,12,0.791172,0,0
17,50,9,6,0,0,1,,3,S,0,S,14,0.755767,0.025192,0.01904
17,51,3,9,0,0,1,,6,S,0,S,11,0,0.774123,0
17,52,7,2,0,0,1,,5,S,0,S,11,0.758956,0.002082,0.00158
17,53,5,3,0,0,1,,2,S,0,S,13,0.757445,0.017977,0.013617
17,54,5,8,0,0,1,,3,S,0,S,14,0,0.792595,0
17,55,1,3,0,0,1,,2,S,0,S,12,0.008527,0.761181,0.006491
17,56,9,3,0,0,1,,6,S,0,S,11,0.755736,0.006718,0.005077
17,57,1,7,0,0,1,,6,S,0,S,11,0,0.811857,0
17,58,4,9,0,0,1,,5,S,0,S,12,0,0.807022,0
17,59,9,4,0,0,1,,5,S,0,S,12,0.751002,0.017023,0.012784
17,60,6,8,0,0,1,,2,S,0,S,15,0.006256,0.781411,0.004889
17,61,7,3,0,0,1,,4,S,0,S,12,0.776074,0,0
17,62,1,9,0,0,1,,8,L,0,S,10,0,0.780608,0
17,63,6,3,0,0,1,,3,S,0,S,13,0.794769,0,0
17,64,4,7,0,0,1,,3,S,0,S,13,0,0.789317,0
17,65,9,5,0,0,1,,4,S,0,S,13,0.797731,0,0
17,66,9,8,0,0,1,,1,S,0,S,20,0.786848,0.012799,0.010071
17,67,5,4,0,0,1,,1,S,0,S,17,0.773564,0.016994,0.013146
17,68,5,7,0,0,1,,2,S,0,S,15,0.0037,0.785096,0.002905
17,69,2,3,0,0,1,,1,S,0,S,15,0.016891,0.771319,0.013028
17,70,2,9,0,0,1,,7,L,0,S,11,0,0.806693,0
17,71,7,6,0,0,1,,1,S,0,S,18,0.784748,0.011375,0.008927
17,72,3,1,0,0,1,,2,S,0,S,13,0.792904,0,0
18,1,2,1,0,0,1,,1,S,0,S,14,0.75668,0.021198,0.01604
18,2,9,3,0,0,1,,6,S,0,S,11,0.764603,0,0
18,3,7,1,0,0,1,,6,S,0,S,11,0.807676,0,0
18,4,1,8,0,0,1,,7,L,0,S,10,0,0.772138,0
18,5,6,4,0,0,1,,2,S,0,S,14,0.785856,0,0
18,6,3,9,0,0,1,,6,S,0,S,11,0,0.781536,0
18,7,8,6,0,0,1,,2,S,0,S,15,0.796901,0,0
18,8,8,3,0,0,1,,5,S,0,S,12,0.807813,0,0
18,9,6,3,0,0,1,,3,S,0,S,13,0.786176,0,0
18,10,3,2,0,0,1,,1,S,0,S,14,0.793631,0,0
18,11,4,7,0,0,1,,3,S,0,S,13,0,0.789602,0
18,12,1,6,0,0,1,,5,S,0,S,10,0,0.750494,0
18,13,5,9,0,0,1,,4,S,0,S,12,0,0.786962,0
18,14,7,3,0,0,1,,4,S,0,S,12,0.777288,0,0
18,15,3,5,0,0,1,,2,S,0,S,14,0,0.792382,0
18,16,2,8,0,0,1,,6,S,0,S,11,0,0.779522,0
18,17,2,9,0,0,1,,7,L,0,S,11,0,0.81213,0
18,18,6,5,0,0,1,,1,S,0,S,17,0.764248,0.022985,0.017566
18,19,8,2,0,0,1,,6,S,0,S,11,0.805625,0,0
18,20,8,4,0,0,1,,4,S,0,S,12,0.778539,0,0
18,21,6,7,0,0,1,,1,S,0,S,15,0.018938,0.763414,0.014457
18,22,2,7,0,0,1,,5,S,0,S,11,0,0.771378,0
18,23,7,8,0,0,1,,1,S,0,S,18,0.014446,0.779605,0.011262
18,24,4,1,0,0,1,,3,S,0,S,12,0.794711,0,0
18,25,5,7,0,0,1,,2,S,0,S,13,0.011733,0.760576,0.008924
18,26,8,5,0,0,1,,3,S,0,S,13,0.768021,0.008368,0.006427
18,27,3,8,0,0,1,,5,S,0,S,12,0,0.797941,0
18,28,8,9,0,0,1,,1,S,0,S,16,0.001094,0.793204,0.000868
18,29,4,2,0,0,1,,2,S,0,S,12,0.757322,0.009882,0.007484
18,30,4,9,0,0,1,,5,S,0,S,12,0,0.805197,0
18,31,9,4,0,0,1,,5,S,0,S,12,0.797125,0,0
18,32,7,6,0,0,1,,1,S,0,S,17,0.7643,0.026165,0.019998
18,33,6,8,0,0,1,,2,S,0,S,15,0,0.792767,0
18,34,1,9,0,0,1,,8,L,0,S,10,0,0.794543,0
18,35,4,8,0,0,1,,4,S,0,S,13,0,0.803805,0
18,36,9,8,0,0,1,,1,S,0,S,17,0.78769,0.006601,0.0052
18,37,7,9,0,0,1,,2,S,0,S,14,0.002389,0.783918,0.001873
18,38,3,6,0,0,1,,3,S,0,S,13,0,0.804572,0
18,39,6,9,0,0,1,,3,S,0,S,13,0,0.792172,0
18,40,6,2,0,0,1,,4,S,0,S,11,0.758432,0.001339,0.001016
18,41,5,8,0,0,1,,3,S,0,S,13,0.000507,0.77734,0.000394
18,42,3,1,0,0,1,,2,S,0,S,13,0.796892,0,0
18,43,1,4,0,0,1,,3,S,0,S,11,0.003403,0.75283,0.002562
18,44,2,5,0,0,1,,3,S,0,S,12,0.006669,0.760884,0.005074
18,45,5,3,0,0,1,,2,S,0,S,15,0.799077,0,0
18,46,5,1,0,0,1,,4,S,0,S,12,0.806397,0,0
18,47,5,4,0,0,1,,1,S,0,S,17,0.787252,0.003597,0.002832
18,48,6,1,0,0,1,,5,S,0,S,11,0.784457,0,0
18,49,9,1,0,0,1,,8,L,0,S,10,0.770446,0,0
18,50,2,4,0,0,1,,2,S,0,S,14,0,0.793865,0
18,51,1,3,0,0,1,,2,S,0,S,12,0,0.785224,0
18,52,5,6,0,0,1,,1,S,0,S,15,0.001166,0.787805,0.000919
18,53,2,3,0,0,1,,1,S,0,S,15,0.012082,0.772611,0.009335
18,54,7,2,0,0,1,,5,S,0,S,11,0.785936,0,0
18,55,2,6,0,0,1,,4,S,0,S,12,0,0.803501,0
18,56,1,2,0,0,1,,1,S,0,S,14,0.004364,0.774937,0.003382
18,57,4,6,0,0,1,,2,S,0,S,14,0.003749,0.782291,0.002933
18,58,9,7,0,0,1,,2,S,0,S,16,0.776659,0.011926,0.009262
18,59,4,5,0,0,1,,1,S,0,S,16,0.025597,0.758616,0.019418
18,60,3,7,0,0,1,,4,S,0,S,12,0,0.787483,0
18,61,9,6,0,0,1,,3,S,0,S,14,0.791136,0,0
18,62,9,5,0,0,1,,4,S,0,S,13,0.796113,0,0
18,63,1,7,0,0,1,,6,S,0,S,10,0,0.766528,0
18,64,4,3,0,0,1,,1,S,0,S,15,0.755162,0.02621,0.019793
18,65,8,7,0,0,1,,1,S,0,S,18,0.761873,0.026892,0.020489
18,66,3,4,0,0,1,,1,S,0,S,17,0.006394,0.785324,0.005021
18,67,5,2,0,0,1,,3,S,0,S,12,0.772904,0,0
18,68,8,1,0,0,1,,7,L,0,S,10,0.761288,0,0
18,69,7,5,0,0,1,,2,S,0,S,14,0.755866,0.021993,0.016623
18,70,9,2,0,0,1,,7,L,0,S,10,0.752511,0,0
18,71,7,4,0,0,1,,3,S,0,S,13,0.795159,0,0
18,72,1,5,0,0,1,,4,S,0,S,11,0,0.788769,0
19,1,7,1,0,0,1,,6,S,0,S,11,0.811032,0,0
19,2,5,2,0,0,1,,3,S,0,S,13,0.783051,0,0
19,3,7,8,0,0,1,,1,S,0,S,17,0.03223,0.759089,0.024466
19,4,6,3,0,0,1,,3,S,0,S,13,0.796597,0,0
19,5,1,6,0,0,1,,5,S,0,S,11,0,0.797277,0
19,6,8,5,0,0,1,,3,S,0,S,13,0.773962,0.005519,0.004272
19,7,6,5,0,0,1,,1,S,0,S,16,0.782959,0.008079,0.006326
19,8,6,7,0,0,1,,1,S,0,S,16,0,0.794887,0
19,9,1,4,0,0,1,,3,S,0,S,12,0,0.795675,0
19,10,3,7,0,0,1,,4,S,0,S,12,0,0.783495,0
19,11,5,6,0,0,1,,1,S,0,S,15,0,0.7892,0
19,12,1,5,0,0,1,,4,S,0,S,11,0.002574,0.7559,0.001945
19,13,6,9,0,0,1,,3,S,0,S,14,0.004098,0.783528,0.003211
19,14,9,1,0,0,1,,8,L,0,S,10,0.772427,0,0
19,15,3,5,0,0,1,,2,S,0,S,14,0.003065,0.776322,0.002379
19,16,1,2,0,0,1,,1,S,0,S,14,0,0.78665,0
19,17,2,7,0,0,1,,5,S,0,S,11,0,0.764085,0
19,18,4,9,0,0,1,,5,S,0,S,12,0,0.787095,0
19,19,9,6,0,0,1,,3,S,0,S,14,0.783787,0.003009,0.002358
19,20,9,4,0,0,1,,5,S,0,S,12,0.789006,0,0
19,21,9,3,0,0,1,,6,S,0,S,11,0.771419,0,0
19,22,4,3,0,0,1,,1,S,0,S,16,0.767741,0.020078,0.015414
19,23,4,7,0,0,1,,3,S,0,S,13,0,0.803481,0
19,24,9,2,0,0,1,,7,L,0,S,11,0.794336,0,0
19,25,4,2,0,0,1,,2,S,0,S,14,0.775159,0.00765,0.00593
19,26,2,6,0,0,1,,4,S,0,S,12,0,0.804526,0
19,27,6,8,0,0,1,,2,S,0,S,14,0.0196,0.763715,0.014968
19,28,7,5,0,0,1,,2,S,0,S,14,0.793252,0,0
19,29,4,5,0,0,1,,1,S,0,S,16,0.014237,0.774775,0.01103
19,30,3,1,0,0,1,,2,S,0,S,13,0.783573,0,0
19,31,3,2,0,0,1,,1,S,0,S,17,0.78388,0.004046,0.003172
19,32,8,7,0,0,1,,1,S,0,S,19,0.752336,0.036467,0.027435
19,33,7,4,0,0,1,,3,S,0,S,13,0.784097,0,0
19,34,4,1,0,0,1,,3,S,0,S,12,0.782987,0,0
19,35,8,3,0,0,1,,5,S,0,S,12,0.805543,0,0
19,36,2,4,0,0,1,,2,S,0,S,13,0.010778,0.764026,0.008234
19,37,8,4,0,0,1,,4,S,0,S,12,0.754384,0.014795,0.011161
19,38,5,9,0,0,1,,4,S,0,S,13,0,0.794935,0
19,39,8,6,0,0,1,,2,S,0,S,16,0.794189,0.00183,0.001453
19,40,7,3,0,0,1,,4,S,0,S,12,0.787857,0,0
19,41,6,1,0,0,1,,5,S,0,S,11,0.787079,0,0
19,42,7,6,0,0,1,,1,S,0,S,18,0.795074,0.003814,0.003033
19,43,8,2,0,0,1,,6,S,0,S,11,0.773974,0,0
19,44,5,3,0,0,1,,2,S,0,S,14,0.77459,0.006709,0.005197
19,45,3,4,0,0,1,,1,S,0,S,15,0.012703,0.769133,0.00977
19,46,2,5,0,0,1,,3,S,0,S,13,0,0.797064,0
19,47,7,9,0,0,1,,2,S,0,S,16,0.028325,0.760749,0.021548
19,48,5,8,0,0,1,,3,S,0,S,13,0,0.783058,0
19,49,5,1,0,0,1,,4,S,0,S,11,0.753816,0.00312,0.002352
19,50,8,1,0,0,1,,7,L,0,S,10,0.757875,0,0
19,51,2,1,0,0,1,,1,S,0,S,14,0.767819,0.010384,0.007973
19,52,2,3,0,0,1,,1,S,0,S,16,0,0.794194,0
19,53,9,7,0,0,1,,2,S,0,S,15,0.754961,0.026025,0.019648
19,54,3,8,0,0,1,,5,S,0,S,12,0,0.80772,0
19,55,1,3,0,0,1,,2,S,0,S,13,0,0.793985,0
19,56,1,9,0,0,1,,8,L,0,S,10,0,0.765118,0
19,57,9,5,0,0,1,,4,S,0,S,12,0.761163,0.008205,0.006246
19,58,7,2,0,0,1,,5,S,0,S,11,0.759299,0.001842,0.001399
19,59,9,8,0,0,1,,1,S,0,S,17,0.777652,0.017339,0.013484
19,60,6,4,0,0,1,,2,S,0,S,14,0.760826,0.02,0.015216
19,61,4,6,0,0,1,,2,S,0,S,13,0.008999,0.769483,0.006925
19,62,1,8,0,0,1,,7,L,0,S,10,0,0.761206,0
19,63,2,8,0,0,1,,6,S,0,S,11,0,0.783821,0
19,64,6,2,0,0,1,,4,S,0,S,12,0.781885,0,0
19,65,5,7,0,0,1,,2,S,0,S,14,0,0.794229,0
19,66,3,9,0,0,1,,6,S,0,S,11,0.0027,0.755887,0.002041
19,67,4,8,0,0,1,,4,S,0,S,12,0,0.778473,0
19,68,2,9,0,0,1,,7,L,0,S,11,0,0.789122,0
19,69,5,4,0,0,1,,1,S,0,S,18,0.785404,0.007983,0.00627
19,70,3,6,0,0,1,,3,S,0,S,12,0.007123,0.759029,0.005407
19,71,1,7,0,0,1,,6,S,0,S,11,0,0.809333,0
19,72,8,9,0,0,1,,1,S,0,S,19,0.020315,0.777937,0.015804
20,1,9,3,0,0,1,,6,S,0,S,11,0.773195,0,0
20,2,3,6,0,0,1,,3,S,0,S,12,0.00507,0.766027,0.003884
20,3,4,9,0,0,1,,5,S,0,S,11,0.008136,0.750525,0.006107
20,4,1,3,0,0,1,,2,S,0,S,13,0,0.795613,0
20,5,6,9,0,0,1,,3,S,0,S,14,0.003269,0.782987,0.00256
20,6,6,8,0,0,1,,2,S,0,S,15,0.011369,0.776756,0.008831
20,7,4,5,0,0,1,,1,S,0,S,15,0.010633,0.773459,0.008224
20,8,2,1,0,0,1,,1,S,0,S,15,0.79831,0,0
20,9,4,1,0,0,1,,3,S,0,S,12,0.776605,0,0
20,10,1,9,0,0,1,,8,L,0,S,10,0,0.779478,0
20,11,8,9,0,0,1,,1,S,0,S,17,0.015943,0.775274,0.012361
20,12,8,4,0,0,1,,4,S,0,S,12,0.770279,0,0
20,13,6,4,0,0,1,,2,S,0,S,13,0.767562,0.008611,0.006609
20,14,9,6,0,0,1,,3,S,0,S,14,0.787416,0.000811,0.000638
20,15,5,3,0,0,1,,2,S,0,S,13,0.779428,0,0
20,16,7,2,0,0,1,,5,S,0,S,11,0.791109,0,0
20,17,5,9,0,0,1,,4,S,0,S,13,0,0.797893,0
20,18,1,5,0,0,1,,4,S,0,S,11,0,0.771234,0
20,19,9,1,0,0,1,,8,L,0,S,10,0.769649,0,0
20,20,7,4,0,0,1,,3,S,0,S,12,0.762375,0.006395,0.004875
20,21,8,2,0,0,1,,6,S,0,S,11,0.795048,0,0
20,22,1,8,0,0,1,,7,L,0,S,10,0,0.769515,0
20,23,5,8,0,0,1,,3,S,0,S,13,0.011569,0.764577,0.008846
20,24,3,2,0,0,1,,1,S,0,S,15,0.774049,0.010356,0.008016
20,25,5,7,0,0,1,,2,S,0,S,14,0.019297,0.756348,0.014595
20,26,2,5,0,0,1,,3,S,0,S,12,0.006804,0.75706,0.005151
20,27,2,3,0,0,1,,1,S,0,S,16,0.013174,0.770155,0.010146
20,28,5,6,0,0,1,,1,S,0,S,17,0.010515,0.783424,0.008238
20,29,3,9,0,0,1,,6,S,0,S,11,0,0.781424,0
20,30,1,7,0,0,1,,6,S,0,S,10,0,0.752572,0
20,31,8,6,0,0,1,,2,S,0,S,15,0.795546,0,0
20,32,8,3,0,0,1,,5,S,0,S,11,0.758676,0.000917,0.000695
20,33,6,7,0,0,1,,1,S,0,S,18,0.001748,0.792253,0.001385
20,34,1,2,0,0,1,,1,S,0,S,14,0.017142,0.757247,0.01298
20,35,8,5,0,0,1,,3,S,0,S,13,0.765835,0.008461,0.006479
20,36,2,8,0,0,1,,6,S,0,S,11,0,0.789582,0
20,37,4,8,0,0,1,,4,S,0,S,12,0,0.789159,0
20,38,3,4,0,0,1,,1,S,0,S,15,0.017564,0.76446,0.013427
20,39,7,5,0,0,1,,2,S,0,S,13,0.753352,0.018528,0.013958
20,40,1,4,0,0,1,,3,S,0,S,12,0,0.79508,0
20,41,3,7,0,0,1,,4,S,0,S,12,0,0.796583,0
20,42,6,2,0,0,1,,4,S,0,S,11,0.765919,0,0
20,43,9,5,0,0,1,,4,S,0,S,13,0.793011,0,0
20,44,2,9,0,0,1,,7,L,0,S,11,0,0.803001,0
20,45,4,7,0,0,1,,3,S,0,S,12,0.01053,0.754417,0.007944
20,46,2,4,0,0,1,,2,S,0,S,13,0.01795,0.75013,0.013465
20,47,1,6,0,0,1,,5,S,0,S,11,0,0.800923,0
20,48,3,1,0,0,1,,2,S,0,S,13,0.779698,0,0
20,49,3,5,0,0,1,,2,S,0,S,13,0.011806,0.761089,0.008985
20,50,6,3,0,0,1,,3,S,0,S,12,0.77829,0,0
20,51,4,2,0,0,1,,2,S,0,S,13,0.763315,0.011043,0.008429
20,52,9,8,0,0,1,,1,S,0,S,20,0.76222,0.030991,0.023622
20,53,9,7,0,0,1,,2,S,0,S,16,0.766666,0.018655,0.014302
20,54,7,9,0,0,1,,2,S,0,S,16,0.017106,0.772542,0.013215
20,55,5,1,0,0,1,,4,S,0,S,11,0.771963,0,0
20,56,4,3,0,0,1,,1,S,0,S,16,0.786041,0.004066,0.003196
20,57,8,7,0,0,1,,1,S,0,S,18,0.761929,0.024199,0.018438
20,58,7,6,0,0,1,,1,S,0,S,15,0.77331,0.014684,0.011355
20,59,3,8,0,0,1,,5,S,0,S,11,0,0.765218,0
20,60,9,2,0,0,1,,7,L,0,S,11,0.806472,0,0
20,61,6,1,0,0,1,,5,S,0,S,11,0.800613,0,0
20,62,6,5,0,0,1,,1,S,0,S,15,0.771633,0.012928,0.009976
20,63,7,3,0,0,1,,4,S,0,S,11,0.753209,0.005443,0.0041
20,64,2,6,0,0,1,,4,S,0,S,12,0,0.802037,0
20,65,7,8,0,0,1,,1,S,0,S,19,0.028539,0.763708,0.021795
20,66,9,4,0,0,1,,5,S,0,S,12,0.789543,0,0
20,67,2,7,0,0,1,,5,S,0,S,11,0,0.766758,0
20,68,7,1,0,0,1,,6,S,0,S,10,0.757001,0,0
20,69,8,1,0,0,1,,7,L,0,S,10,0.760136,0,0
20,70,5,2,0,0,1,,3,S,0,S,12,0.787099,0,0
20,71,5,4,0,0,1,,1,S,0,S,15,0.777459,0.00791,0.00615
20,72,4,6,0,0,1,,2,S,0,S,13,0.012166,0.76499,0.009307
21,1,2,5,0,0,1,,3,S,0,S,12,0.013855,0.751061,0.010406
21,2,2,9,0,0,1,,7,L,0,S,11,0,0.785564,0
21,3,6,3,0,0,1,,3,S,0,S,13,0.766205,0.007749,0.005938
21,4,6,5,0,0,1,,1,S,0,S,18,0.788689,0.003816,0.00301
21,5,1,2,0,0,1,,1,S,0,S,14,0.003571,0.779541,0.002784
21,6,5,2,0,0,1,,3,S,0,S,12,0.77384,0,0
21,7,7,4,0,0,1,,3,S,0,S,13,0.777467,0.001412,0.001098
21,8,8,5,0,0,1,,3,S,0,S,14,0.794404,0,0
21,9,7,9,0,0,1,,2,S,0,S,16,0.004155,0.786497,0.003268
21,10,7,5,0,0,1,,2,S,0,S,15,0.787482,0,0
21,11,3,8,0,0,1,,5,S,0,S,12,0,0.806046,0
21,12,4,1,0,0,1,,3,S,0,S,12,0.806595,0,0
21,13,4,2,0,0,1,,2,S,0,S,13,0.779858,0.000375,0.000293
21,14,6,8,0,0,1,,2,S,0,S,15,0,0.792148,0
21,15,5,6,0,0,1,,1,S,0,S,17,0.026102,0.762353,0.019899
21,16,1,4,0,0,1,,3,S,0,S,12,0,0.80015,0
21,17,2,1,0,0,1,,1,S,0,S,13,0.752423,0.017186,0.012931
21,18,1,5,0,0,1,,4,S,0,S,11,0,0.772277,0
21,19,7,2,0,0,1,,5,S,0,S,11,0.761639,0,0
21,20,4,5,0,0,1,,1,S,0,S,16,0.027156,0.75681,0.020552
21,21,9,3,0,0,1,,6,S,0,S,12,0.800652,0,0
21,22,8,6,0,0,1,,2,S,0,S,15,0.777622,0.008852,0.006883
21,23,1,7,0,0,1,,6,S,0,S,11,0,0.809128,0
21,24,9,7,0,0,1,,2,S,0,S,16,0.765145,0.020557,0.015729
21,25,4,7,0,0,1,,3,S,0,S,13,0.010297,0.764516,0.007872
21,26,2,6,0,0,1,,4,S,0,S,12,0,0.784264,0
21,27,2,7,0,0,1,,5,S,0,S,11,0.004949,0.752369,0.003724
21,28,7,1,0,0,1,,6,S,0,S,11,0.8079,0,0
21,29,2,4,0,0,1,,2,S,0,S,14,0,0.797739,0
21,30,9,4,0,0,1,,5,S,0,S,12,0.775327,0,0
21,31,3,5,0,0,1,,2,S,0,S,13,0.011884,0.761628,0.009051
21,32,6,2,0,0,1,,4,S,0,S,12,0.791313,0,0
21,33,9,6,0,0,1,,3,S,0,S,14,0.767238,0.013844,0.010622
21,34,8,3,0,0,1,,5,S,0,S,12,0.786046,0,0
21,35,4,9,0,0,1,,5,S,0,S,12,0.003537,0.768412,0.002718
21,36,4,8,0,0,1,,4,S,0,S,13,0,0.800812,0
21,37,1,3,0,0,1,,2,S,0,S,12,0.002982,0.765156,0.002282
21,38,4,6,0,0,1,,2,S,0,S,14,0.022322,0.755674,0.016868
21,39,5,4,0,0,1,,1,S,0,S,15,0.762765,0.023044,0.017577
21,40,3,4,0,0,1,,1,S,0,S,15,0.013074,0.77355,0.010114
21,41,1,9,0,0,1,,8,L,0,S,10,0,0.769057,0
21,42,6,7,0,0,1,,1,S,0,S,16,0.024591,0.757168,0.018619
21,43,9,5,0,0,1,,4,S,0,S,13,0.769177,0.007444,0.005726
21,44,8,7,0,0,1,,1,S,0,S,18,0.77404,0.016443,0.012727
21,45,8,1,0,0,1,,7,L,0,S,10,0.759187,0,0
21,46,6,4,0,0,1,,2,S,0,S,14,0.765989,0.014714,0.011271
21,47,4,3,0,0,1,,1,S,0,S,16,0.776032,0.012171,0.009445
21,48,2,3,0,0,1,,1,S,0,S,15,0.014595,0.768435,0.011215
21,49,5,8,0,0,1,,3,S,0,S,14,0,0.795778,0
21,50,1,6,0,0,1,,5,S,0,S,11,0,0.792258,0
21,51,9,2,0,0,1,,7,L,0,S,11,0.791655,0,0
21,52,3,9,0,0,1,,6,S,0,S,11,0,0.763189,0
21,53,8,2,0,0,1,,6,S,0,S,11,0.781235,0,0
21,54,6,9,0,0,1,,3,S,0,S,14,0.000867,0.783727,0.00068
21,55,2,8,0,0,1,,6,S,0,S,11,0,0.772009,0
21,56,9,1,0,0,1,,8,L,0,S,10,0.76696,0,0
21,57,7,8,0,0,1,,1,S,0,S,17,0.032108,0.750445,0.024095
21,58,6,1,0,0,1,,5,S,0,S,11,0.788356,0,0
21,59,5,9,0,0,1,,4,S,0,S,13,0.005129,0.775016,0.003975
21,60,9,8,0,0,1,,1,S,0,S,20,0.78005,0.01483,0.011568
21,61,1,8,0,0,1,,7,L,0,S,10,0,0.759267,0
21,62,5,7,0,0,1,,2,S,0,S,15,0,0.789576,0
21,63,7,6,0,0,1,,1,S,0,S,17,0.776436,0.012288,0.009541
21,64,5,3,0,0,1,,2,S,0,S,14,0.785281,0,0
21,65,8,4,0,0,1,,4,S,0,S,12,0.757253,0.011854,0.008976
21,66,3,1,0,0,1,,2,S,0,S,13,0.79799,0,0
21,67,3,6,0,0,1,,3,S,0,S,13,0,0.804246,0
21,68,3,2,0,0,1,,1,S,0,S,16,0.791951,0.000224,0.000178
21,69,5,1,0,0,1,,4,S,0,S,11,0.777804,0,0
21,70,7,3,0,0,1,,4,S,0,S,12,0.75777,0.007938,0.006015
21,71,8,9,0,0,1,,1,S,0,S,18,0.033215,0.755911,0.025107
21,72,3,7,0,0,1,,4,S,0,S,12,0,0.782957,0
22,1,8,6,0,0,1,,2,S,0,S,14,0.800182,0,0
22,2,9,5,0,0,1,,4,S,0,S,13,0.786217,0,0
22,3,9,6,0,0,1,,3,S,0,S,14,0.791187,0,0
22,4,7,1,0,0,1,,6,S,0,S,11,0.800469,0,0
22,5,7,2,0,0,1,,5,S,0,S,12,0.808109,0,0
22,6,1,7,0,0,1,,6,S,0,S,11,0,0.811447,0
22,7,4,3,0,0,1,,1,S,0,S,16,0.791825,0,0
22,8,8,1,0,0,1,,7,L,0,S,10,0.767517,0,0
22,9,8,9,0,0,1,,1,S,0,S,20,0.040712,0.752052,0.030618
22,10,2,3,0,0,1,,1,S,0,S,16,0.007243,0.781387,0.005659
22,11,7,3,0,0,1,,4,S,0,S,12,0.777674,0,0
22,12,3,1,0,0,1,,2,S,0,S,13,0.793687,0,0
22,13,9,7,0,0,1,,2,S,0,S,16,0.752837,0.030265,0.022785
22,14,2,8,0,0,1,,6,S,0,S,11,0,0.78839,0
22,15,4,5,0,0,1,,1,S,0,S,15,0.022936,0.75738,0.017371
22,16,6,4,0,0,1,,2,S,0,S,13,0.762823,0.012946,0.009875
22,17,7,5,0,0,1,,2,S,0,S,15,0.783632,0.003904,0.003059
22,18,3,5,0,0,1,,2,S,0,S,14,0,0.799919,0
22,19,1,6,0,0,1,,5,S,0,S,11,0,0.786341,0
22,20,9,8,0,0,1,,1,S,0,S,18,0.752337,0.037889,0.028505
22,21,1,8,0,0,1,,7,L,0,S,10,0,0.761202,0
22,22,5,3,0,0,1,,2,S,0,S,13,0.767682,0.008438,0.006477
22,23,2,1,0,0,1,,1,S,0,S,14,0.759621,0.016589,0.012602
22,24,6,5,0,0,1,,1,S,0,S,15,0.754117,0.026789,0.020202
22,25,9,4,0,0,1,,5,S,0,S,12,0.787161,0,0
22,26,3,6,0,0,1,,3,S,0,S,13,0,0.795988,0
22,27,4,2,0,0,1,,2,S,0,S,14,0.780651,0.00182,0.001421
22,28,8,7,0,0,1,,1,S,0,S,16,0.773073,0.015208,0.011757
22,29,2,7,0,0,1,,5,S,0,S,11,0,0.772389,0
22,30,6,7,0,0,1,,1,S,0,S,17,0.012277,0.779189,0.009566
22,31,1,9,0,0,1,,8,L,0,S,10,0,0.775661,0
22,32,8,2,0,0,1,,6,S,0,S,11,0.791886,0,0
22,33,2,4,0,0,1,,2,S,0,S,13,0.019199,0.753815,0.014472
22,34,1,4,0,0,1,,3,S,0,S,12,0,0.785775,0
22,35,5,9,0,0,1,,4,S,0,S,12,0.016721,0.753007,0.012591
22,36,3,8,0,0,1,,5,S,0,S,11,0.008605,0.75239,0.006474
22,37,8,4,0,0,1,,4,S,0,S,12,0.792036,0,0
22,38,6,9,0,0,1,,3,S,0,S,14,0,0.792792,0
22,39,4,9,0,0,1,,5,S,0,S,12,0,0.80443,0
22,40,4,1,0,0,1,,3,S,0,S,12,0.77884,0,0
22,41,3,4,0,0,1,,1,S,0,S,16,0.012149,0.777729,0.009449
22,42,3,2,0,0,1,,1,S,0,S,16,0.77932,0.009795,0.007633
22,43,6,3,0,0,1,,3,S,0,S,12,0.767855,0.002044,0.00157
22,44,4,8,0,0,1,,4,S,0,S,12,0,0.774196,0
22,45,1,5,0,0,1,,4,S,0,S,11,0,0.764662,0
22,46,6,1,0,0,1,,5,S,0,S,11,0.795238,0,0
22,47,4,6,0,0,1,,2,S,0,S,14,0,0.785323,0
22,48,9,1,0,0,1,,8,L,0,S,10,0.76495,0,0
22,49,7,9,0,0,1,,2,S,0,S,14,0.013411,0.771074,0.010341
22,50,6,8,0,0,1,,2,S,0,S,15,0.023936,0.762543,0.018252
22,51,5,1,0,0,1,,4,S,0,S,11,0.767911,0,0
22,52,4,7,0,0,1,,3,S,0,S,13,0,0.803775,0
22,53,5,2,0,0,1,,3,S,0,S,12,0.757778,0.010223,0.007746
22,54,6,2,0,0,1,,4,S,0,S,12,0.800383,0,0
22,55,2,9,0,0,1,,7,L,0,S,11,0,0.807212,0
22,56,7,8,0,0,1,,1,S,0,S,16,0.018104,0.773175,0.013998
22,57,5,6,0,0,1,,1,S,0,S,17,0.026021,0.763212,0.019859
22,58,8,3,0,0,1,,5,S,0,S,11,0.769528,0,0
22,59,2,5,0,0,1,,3,S,0,S,12,0.006015,0.762596,0.004587
22,60,3,9,0,0,1,,6,S,0,S,11,0,0.776707,0
22,61,5,8,0,0,1,,3,S,0,S,13,0.016158,0.762351,0.012318
22,62,1,2,0,0,1,,1,S,0,S,14,0,0.784642,0
22,63,9,2,0,0,1,,7,L,0,S,11,0.788548,0,0
22,64,7,4,0,0,1,,3,S,0,S,13,0.777729,0.001568,0.00122
22,65,7,6,0,0,1,,1,S,0,S,17,0.762285,0.025741,0.019622
22,66,8,5,0,0,1,,3,S,0,S,13,0.793002,0,0
22,67,3,7,0,0,1,,4,S,0,S,12,0,0.79136,0
22,68,5,4,0,0,1,,1,S,0,S,15,0.770932,0.015439,0.011903
22,69,1,3,0,0,1,,2,S,0,S,13,0,0.78384,0
22,70,5,7,0,0,1,,2,S,0,S,14,0.007688,0.775763,0.005964
22,71,9,3,0,0,1,,6,S,0,S,11,0.765661,0,0
22,72,2,6,0,0,1,,4,S,0,S,12,0,0.794731,0
23,1,3,5,0,0,1,,2,S,0,S,14,0,0.798673,0
23,2,1,9,0,0,1,,8,L,0,S,10,0,0.778099,0
23,3,1,8,0,0,1,,7,L,0,S,10,0,0.758794,0
23,4,8,4,0,0,1,,4,S,0,S,12,0.759717,0.007467,0.005673
23,5,5,1,0,0,1,,4,S,0,S,11,0.761295,0,0
23,6,8,5,0,0,1,,3,S,0,S,13,0.764282,0.012411,0.009486
23,7,1,2,0,0,1,,1,S,0,S,14,0.006825,0.774664,0.005287
23,8,8,2,0,0,1,,6,S,0,S,11,0.788041,0,0
23,9,3,2,0,0,1,,1,S,0,S,15,0.764631,0.017597,0.013456
23,10,7,4,0,0,1,,3,S,0,S,13,0.773276,0.003936,0.003044
23,11,6,2,0,0,1,,4,S,0,S,12,0.793287,0,0
23,12,6,7,0,0,1,,1,S,0,S,16,0.016768,0.767917,0.012877
23,13,5,2,0,0,1,,3,S,0,S,12,0.755755,0.010745,0.00812
23,14,2,4,0,0,1,,2,S,0,S,13,0.012791,0.757104,0.009684
23,15,5,4,0,0,1,,1,S,0,S,17,0.785429,0.003292,0.002585
23,16,3,9,0,0,1,,6,S,0,S,11,0,0.773875,0
23,17,5,7,0,0,1,,2,S,0,S,14,0.012156,0.764549,0.009294
23,18,7,8,0,0,1,,1,S,0,S,17,0.024065,0.766682,0.01845
23,19,2,5,0,0,1,,3,S,0,S,12,0.005001,0.763186,0.003817
23,20,7,3,0,0,1,,4,S,0,S,12,0.763305,0.007732,0.005902
23,21,4,9,0,0,1,,5,S,0,S,12,0,0.796826,0
23,22,3,7,0,0,1,,4,S,0,S,12,0,0.773747,0
23,23,9,8,0,0,1,,1,S,0,S,19,0.754785,0.033691,0.025429
23,24,7,6,0,0,1,,1,S,0,S,15,0.75069,0.032405,0.024326
23,25,5,6,0,0,1,,1,S,0,S,18,0,0.796184,0
23,26,2,3,0,0,1,,1,S,0,S,14,0.020062,0.756793,0.015183
23,27,3,6,0,0,1,,3,S,0,S,13,0.001175,0.776904,0.000913
23,28,6,1,0,0,1,,5,S,0,S,11,0.786851,0,0
23,29,2,9,0,0,1,,7,L,0,S,11,0,0.805179,0
23,30,7,9,0,0,1,,2,S,0,S,14,0.011825,0.77141,0.009122
23,31,6,3,0,0,1,,3,S,0,S,13,0.767561,0.009117,0.006998
23,32,6,8,0,0,1,,2,S,0,S,15,0,0.798758,0
23,33,5,3,0,0,1,,2,S,0,S,14,0.750326,0.025269,0.01896
23,34,1,5,0,0,1,,4,S,0,S,11,0,0.770968,0
23,35,8,9,0,0,1,,1,S,0,S,16,0.018687,0.769438,0.014378
23,36,9,6,0,0,1,,3,S,0,S,14,0.79887,0,0
23,37,6,5,0,0,1,,1,S,0,S,17,0.758318,0.028846,0.021875
23,38,8,6,0,0,1,,2,S,0,S,14,0.786039,0.001166,0.000916
23,39,8,3,0,0,1,,5,S,0,S,12,0.795575,0,0
23,40,3,4,0,0,1,,1,S,0,S,16,0,0.788274,0
23,41,7,1,0,0,1,,6,S,0,S,11,0.809949,0,0
23,42,1,6,0,0,1,,5,S,0,S,11,0,0.783929,0
23,43,9,7,0,0,1,,2,S,0,S,16,0.758841,0.023371,0.017735
23,44,3,1,0,0,1,,2,S,0,S,13,0.795309,0,0
23,45,4,8,0,0,1,,4,S,0,S,12,0.015714,0.75153,0.01181
23,46,2,6,0,0,1,,4,S,0,S,12,0,0.782945,0
23,47,7,5,0,0,1,,2,S,0,S,14,0.751721,0.027258,0.02049
23,48,2,8,0,0,1,,6,S,0,S,11,0,0.779543,0
23,49,9,4,0,0,1,,5,S,0,S,12,0.76655,0.001481,0.001135
23,50,4,7,0,0,1,,3,S,0,S,13,0.005521,0.770717,0.004255
23,51,8,1,0,0,1,,7,L,0,S,10,0.762261,0,0
23,52,8,7,0,0,1,,1,S,0,S,17,0.769918,0.018133,0.013961
23,53,4,3,0,0,1,,1,S,0,S,16,0.762076,0.025116,0.019141
23,54,1,7,0,0,1,,6,S,0,S,11,0,0.807267,0
23,55,1,4,0,0,1,,3,S,0,S,12,0,0.792155,0
23,56,9,1,0,0,1,,8,L,0,S,10,0.764675,0,0
23,57,2,1,0,0,1,,1,S,0,S,14,0.759992,0.018179,0.013816
23,58,4,6,0,0,1,,2,S,0,S,15,0.00774,0.782051,0.006053
23,59,2,7,0,0,1,,5,S,0,S,11,0,0.759696,0
23,60,4,2,0,0,1,,2,S,0,S,13,0.777869,0.002502,0.001946
23,61,4,1,0,0,1,,3,S,0,S,12,0.800545,0,0
23,62,5,8,0,0,1,,3,S,0,S,13,0.012628,0.760982,0.00961
23,63,3,8,0,0,1,,5,S,0,S,12,0,0.799346,0
23,64,7,2,0,0,1,,5,S,0,S,11,0.766479,0,0
23,65,5,9,0,0,1,,4,S,0,S,12,0.004528,0.763623,0.003458
23,66,6,4,0,0,1,,2,S,0,S,14,0.754962,0.020449,0.015438
23,67,6,9,0,0,1,,3,S,0,S,13,0.00035,0.778715,0.000273
23,68,9,2,0,0,1,,7,L,0,S,11,0.791381,0,0
23,69,9,5,0,0,1,,4,S,0,S,13,0.774687,0.003523,0.00273
23,70,4,5,0,0,1,,1,S,0,S,16,0.021816,0.766346,0.016719
23,71,9,3,0,0,1,,6,S,0,S,12,0.800714,0,0
23,72,1,3,0,0,1,,2,S,0,S,12,0.002062,0.767396,0.001582
24,1,8,4,0,0,1,,4,S,0,S,12,0.76252,0.007737,0.0059
24,2,5,3,0,0,1,,2,S,0,S,14,0.755594,0.021884,0.016536
24,3,6,2,0,0,1,,4,S,0,S,12,0.799803,0,0
24,4,3,2,0,0,1,,1,S,0,S,15,0.785126,0.000253,0.000199
24,5,1,6,0,0,1,,5,S,0,S,11,0,0.789485,0
24,6,6,9,0,0,1,,3,S,0,S,13,0.025127,0.751795,0.018891
24,7,4,3,0,0,1,,1,S,0,S,16,0.783811,0.004624,0.003624
24,8,9,7,0,0,1,,2,S,0,S,15,0.780972,0.010641,0.00831
24,9,4,5,0,0,1,,1,S,0,S,16,0.012902,0.775435,0.010005
24,10,4,1,0,0,1,,3,S,0,S,12,0.800214,0,0
24,11,8,3,0,0,1,,5,S,0,S,12,0.790825,0,0
24,12,2,7,0,0,1,,5,S,0,S,11,0.002984,0.758998,0.002265
24,13,2,4,0,0,1,,2,S,0,S,14,0,0.796422,0
24,14,3,7,0,0,1,,4,S,0,S,12,0.000783,0.770647,0.000604
24,15,8,9,0,0,1,,1,S,0,S,17,0.026663,0.768738,0.020497
24,16,8,7,0,0,1,,1,S,0,S,17,0.780264,0.015733,0.012276
24,17,3,8,0,0,1,,5,S,0,S,11,0.006364,0.752746,0.00479
24,18,9,4,0,0,1,,5,S,0,S,12,0.78803,0,0
24,19,3,9,0,0,1,,6,S,0,S,11,0.000515,0.762304,0.000393
24,20,6,3,0,0,1,,3,S,0,S,13,0.776198,0.002807,0.002179
24,21,6,7,0,0,1,,1,S,0,S,17,0.007058,0.790285,0.005578
24,22,5,7,0,0,1,,2,S,0,S,14,0.01579,0.767263,0.012115
24,23,4,9,0,0,1,,5,S,0,S,12,0,0.774665,0
24,24,7,1,0,0,1,,6,S,0,S,10,0.754885,0,0
24,25,4,7,0,0,1,,3,S,0,S,13,0.018564,0.755298,0.014021
24,26,7,3,0,0,1,,4,S,0,S,12,0.783799,0,0
24,27,3,1,0,0,1,,2,S,0,S,13,0.798239,0,0
24,28,6,5,0,0,1,,1,S,0,S,18,0.769559,0.023659,0.018207
24,29,1,4,0,0,1,,3,S,0,S,12,0,0.789246,0
24,30,4,2,0,0,1,,2,S,0,S,13,0.784643,0,0
24,31,5,8,0,0,1,,3,S,0,S,13,0,0.792128,0
24,32,9,2,0,0,1,,7,L,0,S,11,0.800507,0,0
24,33,6,1,0,0,1,,5,S,0,S,11,0.789733,0,0
24,34,3,4,0,0,1,,1,S,0,S,16,0.023969,0.757938,0.018167
24,35,6,4,0,0,1,,2,S,0,S,14,0.780712,0.003947,0.003081
24,36,9,6,0,0,1,,3,S,0,S,14,0.791208,0,0
24,37,7,4,0,0,1,,3,S,0,S,12,0.75448,0.011698,0.008826
24,38,8,6,0,0,1,,2,S,0,S,15,0.785356,0.004631,0.003637
24,39,1,7,0,0,1,,6,S,0,S,11,0,0.80895,0
24,40,1,3,0,0,1,,2,S,0,S,12,0.00577,0.761005,0.004391
24,41,7,8,0,0,1,,1,S,0,S,18,0.033418,0.757138,0.025302
24,42,7,5,0,0,1,,2,S,0,S,14,0.779126,0.005217,0.004065
24,43,6,8,0,0,1,,2,S,0,S,14,0.004977,0.783251,0.003898
24,44,1,5,0,0,1,,4,S,0,S,11,0,0.77718,0
24,45,2,8,0,0,1,,6,S,0,S,11,0,0.790156,0
24,46,8,2,0,0,1,,6,S,0,S,11,0.785713,0,0
24,47,3,5,0,0,1,,2,S,0,S,13,0.016133,0.756453,0.012204
24,48,5,4,0,0,1,,1,S,0,S,16,0.769115,0.017807,0.013696
24,49,2,3,0,0,1,,1,S,0,S,15,0.002356,0.785292,0.00185
24,50,9,3,0,0,1,,6,S,0,S,11,0.75306,0.006749,0.005083
24,51,9,1,0,0,1,,8,L,0,S,10,0.770901,0,0
24,52,2,1,0,0,1,,1,S,0,S,14,0.776094,0.007822,0.00607
24,53,9,5,0,0,1,,4,S,0,S,13,0.779967,0.002312,0.001803
24,54,5,1,0,0,1,,4,S,0,S,11,0.762293,0.000215,0.000164
24,55,1,8,0,0,1,,7,L,0,S,10,0,0.76768,0
24,56,2,5,0,0,1,,3,S,0,S,12,0.001917,0.770024,0.001476
24,57,1,2,0,0,1,,1,S,0,S,14,0.018913,0.756586,0.014309
24,58,2,6,0,0,1,,4,S,0,S,12,0,0.789929,0
24,59,9,8,0,0,1,,1,S,0,S,21,0.781242,0.019845,0.015503
24,60,1,9,0,0,1,,8,L,0,S,10,0,0.773477,0
24,61,7,6,0,0,1,,1,S,0,S,15,0.769941,0.014174,0.010913
24,62,4,8,0,0,1,,4,S,0,S,12,0.008192,0.761739,0.00624
24,63,4,6,0,0,1,,2,S,0,S,15,0,0.793435,0
24,64,5,9,0,0,1,,4,S,0,S,12,0.018074,0.751506,0.013583
24,65,2,9,0,0,1,,7,L,0,S,11,0,0.797738,0
24,66,8,5,0,0,1,,3,S,0,S,14,0.790915,0,0
24,67,5,2,0,0,1,,3,S,0,S,12,0.760777,0.007233,0.005503
24,68,3,6,0,0,1,,3,S,0,S,13,0,0.78717,0
24,69,8,1,0,0,1,,7,L,0,S,10,0.759286,0,0
24,70,7,9,0,0,1,,2,S,0,S,17,0.015072,0.780379,0.011762
24,71,5,6,0,0,1,,1,S,0,S,16,0.012672,0.776004,0.009834
24,72,7,2,0,0,1,,5,S,0,S,11,0.780314,0,0
25,1,8,6,0,0,1,,2,S,0,S,15,0.795792,0,0
25,2,3,5,0,0,1,,2,S,0,S,14,0.002119,0.781529,0.001656
25,3,6,9,0,0,1,,3,S,0,S,13,0.019017,0.757077,0.014397
25,4,8,1,0,0,1,,7,L,0,S,10,0.763605,0,0
25,5,8,7,0,0,1,,1,S,0,S,15,0.793731,0,0
25,6,1,7,0,0,1,,6,S,0,S,11,0,0.807245,0
25,7,3,8,0,0,1,,5,S,0,S,12,0,0.805659,0
25,8,9,3,0,0,1,,6,S,0,S,11,0.761099,0,0
25,9,6,4,0,0,1,,2,S,0,S,14,0.756897,0.020925,0.015838
25,10,8,3,0,0,1,,5,S,0,S,11,0.751319,0.007622,0.005727
25,11,4,1,0,0,1,,3,S,0,S,12,0.785577,0,0
25,12,3,9,0,0,1,,6,S,0,S,11,0,0.769553,0
25,13,6,7,0,0,1,,1,S,0,S,18,0.018441,0.774357,0.01428
25,14,1,4,0,0,1,,3,S,0,S,12,0,0.804612,0
25,15,1,8,0,0,1,,7,L,0,S,10,0,0.765101,0
25,16,5,1,0,0,1,,4,S,0,S,11,0.756447,0.00142,0.001074
25,17,8,4,0,0,1,,4,S,0,S,12,0.773775,0,0
25,18,5,9,0,0,1,,4,S,0,S,12,0.013273,0.756543,0.010041
25,19,2,6,0,0,1,,4,S,0,S,12,0,0.807554,0
25,20,7,2,0,0,1,,5,S,0,S,11,0.763899,0,0
25,21,2,4,0,0,1,,2,S,0,S,13,0.010041,0.762293,0.007654
25,22,5,8,0,0,1,,3,S,0,S,13,0.004719,0.774313,0.003654
25,23,6,1,0,0,1,,5,S,0,S,11,0.783026,0,0
25,24,5,4,0,0,1,,1,S,0,S,17,0.768841,0.019932,0.015325
25,25,9,1,0,0,1,,8,L,0,S,10,0.768696,0,0
25,26,9,6,0,0,1,,3,S,0,S,14,0.777533,0.005099,0.003965
25,27,3,6,0,0,1,,3,S,0,S,12,0.007325,0.763799,0.005595
25,28,7,9,0,0,1,,2,S,0,S,16,0.005116,0.78997,0.004041
25,29,3,7,0,0,1,,4,S,0,S,12,0.006764,0.764479,0.005171
25,30,3,2,0,0,1,,1,S,0,S,16,0.777048,0.013815,0.010735
25,31,8,2,0,0,1,,6,S,0,S,11,0.786331,0,0
25,32,9,7,0,0,1,,2,S,0,S,14,0.775841,0.0063,0.004888
25,33,1,9,0,0,1,,8,L,0,S,10,0,0.778464,0
25,34,2,5,0,0,1,,3,S,0,S,13,0,0.801776,0
25,35,2,1,0,0,1,,1,S,0,S,14,0.753378,0.018826,0.014183
25,36,7,3,0,0,1,,4,S,0,S,12,0.780919,0,0
25,37,1,2,0,0,1,,1,S,0,S,13,0.013004,0.762767,0.009919
25,38,2,9,0,0,1,,7,L,0,S,11,0,0.798508,0
25,39,7,8,0,0,1,,1,S,0,S,19,0.021569,0.772347,0.016658
25,40,9,2,0,0,1,,7,L,0,S,11,0.793588,0,0
25,41,4,9,0,0,1,,5,S,0,S,12,0,0.791287,0
25,42,9,8,0,0,1,,1,S,0,S,17,0.791803,0.001577,0.001249
25,43,1,6,0,0,1,,5,S,0,S,11,0,0.806959,0
25,44,5,3,0,0,1,,2,S,0,S,14,0.758392,0.021278,0.016137
25,45,4,6,0,0,1,,2,S,0,S,13,0.016276,0.758104,0.012339
25,46,6,5,0,0,1,,1,S,0,S,16,0.753095,0.028658,0.021582
25,47,6,8,0,0,1,,2,S,0,S,14,0.025023,0.753255,0.018848
25,48,6,2,0,0,1,,4,S,0,S,12,0.780868,0,0
25,49,4,7,0,0,1,,3,S,0,S,13,0.015421,0.759159,0.011707
25,50,5,6,0,0,1,,1,S,0,S,15,0,0.791617,0
25,51,4,3,0,0,1,,1,S,0,S,17,0.789884,0.004419,0.00349
25,52,8,9,0,0,1,,1,S,0,S,21,0.038102,0.755118,0.028771
25,53,7,4,0,0,1,,3,S,0,S,13,0.790219,0,0
25,54,5,7,0,0,1,,2,S,0,S,15,0,0.793302,0
25,55,2,3,0,0,1,,1,S,0,S,15,0,0.794142,0
25,56,8,5,0,0,1,,3,S,0,S,13,0.790111,0,0
25,57,2,7,0,0,1,,5,S,0,S,12,0,0.808001,0
25,58,4,5,0,0,1,,1,S,0,S,16,0.02844,0.752699,0.021407
25,59,6,3,0,0,1,,3,S,0,S,13,0.777111,0.002579,0.002004
25,60,5,2,0,0,1,,3,S,0,S,13,0.792178,0,0
25,61,2,8,0,0,1,,6,S,0,S,11,0,0.780408,0
25,62,9,4,0,0,1,,5,S,0,S,12,0.786223,0,0
25,63,7,6,0,0,1,,1,S,0,S,17,0.76694,0.023244,0.017827
25,64,3,4,0,0,1,,1,S,0,S,15,0.026402,0.755672,0.019951
25,65,1,3,0,0,1,,2,S,0,S,12,0.00032,0.772288,0.000247
25,66,7,1,0,0,1,,6,S,0,S,11,0.810769,0,0
25,67,9,5,0,0,1,,4,S,0,S,12,0.751317,0.011917,0.008953
25,68,7,5,0,0,1,,2,S,0,S,14,0.790693,0,0
25,69,1,5,0,0,1,,4,S,0,S,11,0,0.767918,0
25,70,4,2,0,0,1,,2,S,0,S,14,0.78935,0,0
25,71,4,8,0,0,1,,4,S,0,S,12,0.007458,0.761902,0.005682
25,72,3,1,0,0,1,,2,S,0,S,13,0.797482,0,0
26,1,6,9,0,0,1,,3,S,0,S,14,0.008364,0.775366,0.006486
26,2,9,2,0,0,1,,7,L,0,S,11,0.793737,0,0
26,3,1,6,0,0,1,,5,S,0,S,11,0,0.809455,0
26,4,3,6,0,0,1,,3,S,0,S,13,0.004683,0.774093,0.003625
26,5,8,4,0,0,1,,4,S,0,S,13,0.798157,0,0
26,6,7,3,0,0,1,,4,S,0,S,12,0.771882,0,0
26,7,4,9,0,0,1,,5,S,0,S,12,0,0.777339,0
26,8,2,1,0,0,1,,1,S,0,S,14,0.763842,0.012604,0.009628
26,9,1,2,0,0,1,,1,S,0,S,13,0.010973,0.760397,0.008344
26,10,6,7,0,0,1,,1,S,0,S,16,0.023706,0.761242,0.018046
26,11,4,2,0,0,1,,2,S,0,S,13,0.771654,0.004722,0.003644
26,12,5,6,0,0,1,,1,S,0,S,17,0.009246,0.783586,0.007245
26,13,4,3,0,0,1,,1,S,0,S,16,0.787982,0.003392,0.002673
26,14,7,9,0,0,1,,2,S,0,S,16,0.000718,0.791928,0.000569
26,15,1,4,0,0,1,,3,S,0,S,11,0,0.768256,0
26,16,3,9,0,0,1,,6,S,0,S,12,0,0.80123,0
26,17,2,7,0,0,1,,5,S,0,S,11,0,0.769577,0
26,18,4,5,0,0,1,,1,S,0,S,15,0.017323,0.767618,0.013298
26,19,5,2,0,0,1,,3,S,0,S,12,0.770302,0,0
26,20,9,8,0,0,1,,1,S,0,S,20,0.784826,0.010472,0.008219
26,21,7,4,0,0,1,,3,S,0,S,13,0.758605,0.014978,0.011362
26,22,5,4,0,0,1,,1,S,0,S,16,0.750459,0.031975,0.023996
26,23,1,8,0,0,1,,7,L,0,S,10,0,0.772717,0
26,24,7,6,0,0,1,,1,S,0,S,17,0.773544,0.017044,0.013184
26,25,8,6,0,0,1,,2,S,0,S,15,0.784084,0.003658,0.002868
26,26,6,5,0,0,1,,1,S,0,S,18,0.79062,0.004987,0.003943
26,27,3,5,0,0,1,,2,S,0,S,14,0.002442,0.78192,0.00191
26,28,1,9,0,0,1,,8,L,0,S,10,0,0.780057,0
26,29,9,1,0,0,1,,8,L,0,S,10,0.76669,0,0
26,30,6,4,0,0,1,,2,S,0,S,14,0.754382,0.023488,0.017719
26,31,9,7,0,0,1,,2,S,0,S,16,0.759835,0.024721,0.018784
26,32,6,3,0,0,1,,3,S,0,S,13,0.794208,0,0
26,33,1,5,0,0,1,,4,S,0,S,11,0,0.794704,0
26,34,3,4,0,0,1,,1,S,0,S,16,0.022862,0.762893,0.017442
26,35,6,2,0,0,1,,4,S,0,S,12,0.800373,0,0
26,36,7,1,0,0,1,,6,S,0,S,11,0.807441,0,0
26,37,3,8,0,0,1,,5,S,0,S,12,0,0.7867,0
26,38,7,8,0,0,1,,1,S,0,S,17,0.012922,0.776696,0.010036
26,39,2,9,0,0,1,,7,L,0,S,11,0,0.795316,0
26,40,2,6,0,0,1,,4,S,0,S,12,0,0.802535,0
26,41,4,8,0,0,1,,4,S,0,S,12,0.008333,0.760082,0.006334
26,42,8,7,0,0,1,,1,S,0,S,18,0.760878,0.025631,0.019502
26,43,9,6,0,0,1,,3,S,0,S,14,0.774801,0.008869,0.006872
26,44,7,5,0,0,1,,2,S,0,S,15,0.772119,0.012783,0.00987
26,45,5,1,0,0,1,,4,S,0,S,11,0.771454,0,0
26,46,4,6,0,0,1,,2,S,0,S,14,0.004584,0.780927,0.00358
26,47,3,1,0,0,1,,2,S,0,S,12,0.770789,0,0
26,48,9,5,0,0,1,,4,S,0,S,13,0.765471,0.010569,0.00809
26,49,6,1,0,0,1,,5,S,0,S,11,0.792134,0,0
26,50,4,1,0,0,1,,3,S,0,S,12,0.797188,0,0
26,51,8,1,0,0,1,,7,L,0,S,10,0.757609,0,0
26,52,4,7,0,0,1,,3,S,0,S,13,0,0.786198,0
26,53,5,3,0,0,1,,2,S,0,S,14,0.798187,0,0
26,54,7,2,0,0,1,,5,S,0,S,11,0.763715,0,0
26,55,9,4,0,0,1,,5,S,0,S,12,0.764299,0.00549,0.004196
26,56,8,9,0,0,1,,1,S,0,S,19,0.028426,0.760835,0.021627
26,57,2,3,0,0,1,,1,S,0,S,15,0.001198,0.785715,0.000941
26,58,2,5,0,0,1,,3,S,0,S,12,0,0.778644,0
26,59,1,7,0,0,1,,6,S,0,S,10,0,0.762212,0
26,60,6,8,0,0,1,,2,S,0,S,15,0,0.790029,0
26,61,2,4,0,0,1,,2,S,0,S,13,0,0.78588,0
26,62,5,7,0,0,1,,2,S,0,S,14,0.020544,0.756395,0.015539
26,63,8,5,0,0,1,,3,S,0,S,14,0.787526,0,0
26,64,8,2,0,0,1,,6,S,0,S,11,0.782093,0,0
26,65,5,9,0,0,1,,4,S,0,S,13,0.003113,0.775544,0.002414
26,66,8,3,0,0,1,,5,S,0,S,12,0.797565,0,0
26,67,1,3,0,0,1,,2,S,0,S,12,0,0.781524,0
26,68,3,7,0,0,1,,4,S,0,S,12,0.005721,0.762872,0.004365
26,69,5,8,0,0,1,,3,S,0,S,13,0.020366,0.750569,0.015286
26,70,3,2,0,0,1,,1,S,0,S,14,0.775511,0.005584,0.004331
26,71,2,8,0,0,1,,6,S,0,S,11,0,0.785087,0
26,72,9,3,0,0,1,,6,S,0,S,11,0.754106,0.004606,0.003473
27,1,2,7,0,0,1,,5,S,0,S,11,0,0.777156,0
27,2,2,8,0,0,1,,6,S,0,S,11,0,0.785993,0
27,3,6,9,0,0,1,,3,S,0,S,14,0.010408,0.770638,0.008021
27,4,6,5,0,0,1,,1,S,0,S,16,0.751005,0.028016,0.02104
27,5,6,4,0,0,1,,2,S,0,S,14,0.76444,0.013459,0.010289
27,6,3,7,0,0,1,,4,S,0,S,12,0,0.779627,0
27,7,4,8,0,0,1,,4,S,0,S,12,0.004072,0.762156,0.003104
27,8,4,5,0,0,1,,1,S,0,S,16,0.006486,0.779017,0.005053
27,9,5,3,0,0,1,,2,S,0,S,14,0.769418,0.008416,0.006475
27,10,5,8,0,0,1,,3,S,0,S,13,0.008442,0.765719,0.006464
27,11,9,2,0,0,1,,7,L,0,S,11,0.797119,0,0
27,12,5,7,0,0,1,,2,S,0,S,14,0,0.790652,0
27,13,9,4,0,0,1,,5,S,0,S,12,0.782787,0,0
27,14,7,6,0,0,1,,1,S,0,S,16,0.773372,0.015573,0.012044
27,15,4,1,0,0,1,,3,S,0,S,12,0.784214,0,0
27,16,8,7,0,0,1,,1,S,0,S,21,0.780297,0.018436,0.014386
27,17,5,2,0,0,1,,3,S,0,S,12,0.751479,0.015333,0.011522
27,18,5,9,0,0,1,,4,S,0,S,13,0,0.787894,0
27,19,4,6,0,0,1,,2,S,0,S,14,0.014792,0.763687,0.011297
27,20,4,9,0,0,1,,5,S,0,S,12,0,0.778941,0
27,21,8,6,0,0,1,,2,S,0,S,14,0.750671,0.028223,0.021186
27,22,3,9,0,0,1,,6,S,0,S,12,0,0.807274,0
27,23,4,3,0,0,1,,1,S,0,S,17,0.780324,0.00576,0.004495
27,24,9,5,0,0,1,,4,S,0,S,13,0.795267,0,0
27,25,9,3,0,0,1,,6,S,0,S,11,0.756321,0.002113,0.001598
27,26,8,5,0,0,1,,3,S,0,S,14,0.801813,0,0
27,27,3,4,0,0,1,,1,S,0,S,16,0.019421,0.765349,0.014864
27,28,3,1,0,0,1,,2,S,0,S,12,0.754301,0.010944,0.008255
27,29,7,5,0,0,1,,2,S,0,S,14,0.75141,0.023841,0.017914
27,30,9,7,0,0,1,,2,S,0,S,16,0.78258,0.010302,0.008062
27,31,3,6,0,0,1,,3,S,0,S,13,0.007416,0.768647,0.0057
27,32,6,7,0,0,1,,1,S,0,S,16,0.005939,0.783797,0.004655
27,33,7,8,0,0,1,,1,S,0,S,17,0.00383,0.788204,0.003019
27,34,9,1,0,0,1,,8,L,0,S,10,0.77108,0,0
27,35,6,3,0,0,1,,3,S,0,S,13,0.779461,0,0
27,36,2,5,0,0,1,,3,S,0,S,12,0.005696,0.762269,0.004342
27,37,2,4,0,0,1,,2,S,0,S,13,0.003296,0.77512,0.002555
27,38,1,8,0,0,1,,7,L,0,S,10,0,0.759564,0
27,39,3,8,0,0,1,,5,S,0,S,12,0,0.79312,0
27,40,6,8,0,0,1,,2,S,0,S,15,0,0.787229,0
27,41,5,6,0,0,1,,1,S,0,S,17,0.018132,0.771663,0.013992
27,42,2,3,0,0,1,,1,S,0,S,15,0,0.787386,0
27,43,9,8,0,0,1,,1,S,0,S,18,0.763559,0.025779,0.019684
27,44,7,4,0,0,1,,3,S,0,S,13,0.770123,0.006738,0.005189
27,45,3,2,0,0,1,,1,S,0,S,15,0.77693,0.009714,0.007547
27,46,8,1,0,0,1,,7,L,0,S,10,0.75702,0,0
27,47,7,1,0,0,1,,6,S,0,S,11,0.806752,0,0
27,48,8,3,0,0,1,,5,S,0,S,12,0.789707,0,0
27,49,2,6,0,0,1,,4,S,0,S,12,0,0.793659,0
27,50,1,2,0,0,1,,1,S,0,S,14,0,0.793929,0
27,51,9,6,0,0,1,,3,S,0,S,13,0.760503,0.015745,0.011974
27,52,6,2,0,0,1,,4,S,0,S,12,0.790023,0,0
27,53,7,2,0,0,1,,5,S,0,S,11,0.759097,0.002548,0.001934
27,54,2,9,0,0,1,,7,L,0,S,11,0,0.796687,0
27,55,4,2,0,0,1,,2,S,0,S,14,0.793206,0,0
27,56,5,1,0,0,1,,4,S,0,S,11,0.763124,0,0
27,57,4,7,0,0,1,,3,S,0,S,13,0,0.799538,0
27,58,1,4,0,0,1,,3,S,0,S,12,0,0.798297,0
27,59,8,4,0,0,1,,4,S,0,S,13,0.804494,0,0
27,60,8,9,0,0,1,,1,S,0,S,18,0.016291,0.780089,0.012708
27,61,1,5,0,0,1,,4,S,0,S,11,0,0.765058,0
27,62,6,1,0,0,1,,5,S,0,S,11,0.787134,0,0
27,63,2,1,0,0,1,,1,S,0,S,14,0.759726,0.018892,0.014352
27,64,7,9,0,0,1,,2,S,0,S,16,0,0.795501,0
27,65,1,7,0,0,1,,6,S,0,S,10,0,0.753348,0
27,66,5,4,0,0,1,,1,S,0,S,17,0.791472,0.001742,0.001379
27,67,1,9,0,0,1,,8,L,0,S,10,0,0.768132,0
27,68,7,3,0,0,1,,4,S,0,S,12,0.764198,0.002969,0.002269
27,69,1,3,0,0,1,,2,S,0,S,12,0.011035,0.750473,0.008281
27,70,8,2,0,0,1,,6,S,0,S,11,0.77805,0,0
27,71,1,6,0,0,1,,5,S,0,S,11,0,0.786677,0
27,72,3,5,0,0,1,,2,S,0,S,14,0.011353,0.76633,0.0087
28,1,6,5,0,0,1,,1,S,0,S,17,0.760035,0.027066,0.020571
28,2,6,9,0,0,1,,3,S,0,S,14,0,0.801006,0
28,3,8,3,0,0,1,,5,S,0,S,12,0.785435,0,0
28,4,1,3,0,0,1,,2,S,0,S,13,0,0.802236,0
28,5,1,5,0,0,1,,4,S,0,S,11,0,0.769403,0
28,6,1,9,0,0,1,,8,L,0,S,10,0,0.771163,0
28,7,7,2,0,0,1,,5,S,0,S,12,0.806988,0,0
28,8,3,8,0,0,1,,5,S,0,S,12,0,0.797843,0
28,9,5,2,0,0,1,,3,S,0,S,13,0.803415,0,0
28,10,4,5,0,0,1,,1,S,0,S,16,0.019647,0.77052,0.015139
28,11,2,5,0,0,1,,3,S,0,S,12,0.01,0.757829,0.007579
28,12,3,9,0,0,1,,6,S,0,S,11,0.003369,0.758595,0.002556
28,13,8,2,0,0,1,,6,S,0,S,11,0.761376,0,0
28,14,3,5,0,0,1,,2,S,0,S,14,0,0.786415,0
28,15,8,4,0,0,1,,4,S,0,S,13,0.799102,0,0
28,16,4,8,0,0,1,,4,S,0,S,12,0.012665,0.757386,0.009592
28,17,5,8,0,0,1,,3,S,0,S,14,0,0.799921,0
28,18,1,2,0,0,1,,1,S,0,S,13,0.019593,0.752072,0.014735
28,19,2,7,0,0,1,,5,S,0,S,11,0.000532,0.760479,0.000404
28,20,9,3,0,0,1,,6,S,0,S,11,0.759396,0.000835,0.000634
28,21,6,8,0,0,1,,2,S,0,S,14,0.024545,0.752995,0.018482
28,22,8,7,0,0,1,,1,S,0,S,18,0.756743,0.032132,0.024316
28,23,2,3,0,0,1,,1,S,0,S,15,0.017319,0.761617,0.013191
28,24,5,1,0,0,1,,4,S,0,S,11,0.788759,0,0
28,25,5,6,0,0,1,,1,S,0,S,17,0.014352,0.77626,0.011141
28,26,4,3,0,0,1,,1,S,0,S,16,0.783343,0.005706,0.00447
28,27,2,6,0,0,1,,4,S,0,S,12,0,0.791488,0
28,28,7,1,0,0,1,,6,S,0,S,10,0.757424,0,0
28,29,1,7,0,0,1,,6,S,0,S,11,0,0.810065,0
28,30,1,6,0,0,1,,5,S,0,S,11,0,0.790505,0
28,31,7,6,0,0,1,,1,S,0,S,17,0.764805,0.023849,0.01824
28,32,5,7,0,0,1,,2,S,0,S,15,0,0.793365,0
28,33,3,1,0,0,1,,2,S,0,S,12,0.778572,0,0
28,34,2,9,0,0,1,,7,L,0,S,11,0,0.794232,0
28,35,2,8,0,0,1,,6,S,0,S,11,0,0.779143,0
28,36,2,4,0,0,1,,2,S,0,S,13,0.01313,0.760475,0.009985
28,37,7,3,0,0,1,,4,S,0,S,12,0.768502,0.001368,0.001052
28,38,4,7,0,0,1,,3,S,0,S,13,0.003058,0.778298,0.00238
28,39,6,7,0,0,1,,1,S,0,S,16,0.016427,0.771366,0.012671
28,40,1,8,0,0,1,,7,L,0,S,10,0,0.75988,0
28,41,7,4,0,0,1,,3,S,0,S,13,0.774823,0.004918,0.003811
28,42,3,6,0,0,1,,3,S,0,S,13,0,0.789,0
28,43,4,1,0,0,1,,3,S,0,S,11,0.758732,0.001655,0.001256
28,44,7,8,0,0,1,,1,S,0,S,17,0.022869,0.769775,0.017604
28,45,1,4,0,0,1,,3,S,0,S,12,0,0.797132,0
28,46,9,6,0,0,1,,3,S,0,S,14,0.791921,0,0
28,47,7,9,0,0,1,,2,S,0,S,15,0.019026,0.769624,0.014643
28,48,9,8,0,0,1,,1,S,0,S,17,0.775233,0.019195,0.01488
28,49,9,5,0,0,1,,4,S,0,S,13,0.802023,0,0
28,50,4,6,0,0,1,,2,S,0,S,14,0.008193,0.77451,0.006346
28,51,9,4,0,0,1,,5,S,0,S,12,0.786125,0,0
28,52,4,2,0,0,1,,2,S,0,S,14,0.788875,0,0
28,53,5,4,0,0,1,,1,S,0,S,16,0.795018,0,0
28,54,9,1,0,0,1,,8,L,0,S,10,0.782389,0,0
28,55,3,7,0,0,1,,4,S,0,S,12,0.000132,0.772666,0.000102
28,56,4,9,0,0,1,,5,S,0,S,12,0,0.783093,0
28,57,3,4,0,0,1,,1,S,0,S,16,0.007284,0.783166,0.005704
28,58,6,3,0,0,1,,3,S,0,S,13,0.770787,0.00297,0.002289
28,59,6,4,0,0,1,,2,S,0,S,15,0.798255,0,0
28,60,2,1,0,0,1,,1,S,0,S,13,0.76427,0.008919,0.006816
28,61,5,9,0,0,1,,4,S,0,S,13,0,0.785097,0
28,62,9,7,0,0,1,,2,S,0,S,15,0.7811,0.009696,0.007573
28,63,7,5,0,0,1,,2,S,0,S,14,0.75931,0.02216,0.016826
28,64,6,1,0,0,1,,5,S,0,S,11,0.797262,0,0
28,65,5,3,0,0,1,,2,S,0,S,14,0.79573,0,0
28,66,8,5,0,0,1,,3,S,0,S,14,0.797664,0,0
28,67,8,1,0,0,1,,7,L,0,S,10,0.76482,0,0
28,68,9,2,0,0,1,,7,L,0,S,11,0.788281,0,0
28,69,3,2,0,0,1,,1,S,0,S,16,0.768088,0.017898,0.013747
28,70,8,9,0,0,1,,1,S,0,S,17,0.017476,0.775066,0.013545
28,71,6,2,0,0,1,,4,S,0,S,12,0.766851,0.001836,0.001408
28,72,8,6,0,0,1,,2,S,0,S,15,0.75159,0.027296,0.020516
29,1,2,5,0,0,1,,3,S,0,S,12,0,0.784594,0
29,2,8,7,0,0,1,,1,S,0,S,16,0.792345,0.002656,0.002104
29,3,1,5,0,0,1,,4,S,0,S,11,0,0.776561,0
29,4,8,5,0,0,1,,3,S,0,S,13,0.771618,0.005375,0.004148
29,5,4,8,0,0,1,,4,S,0,S,12,0,0.800126,0
29,6,9,7,0,0,1,,2,S,0,S,14,0.764211,0.017085,0.013057
29,7,9,2,0,0,1,,7,L,0,S,10,0.750632,0,0
29,8,6,2,0,0,1,,4,S,0,S,11,0.751298,0.0072,0.005409
29,9,6,7,0,0,1,,1,S,0,S,16,0.028747,0.759591,0.021836
29,10,7,4,0,0,1,,3,S,0,S,13,0.774409,0.004428,0.003429
29,11,8,1,0,0,1,,7,L,0,S,10,0.778596,0,0
29,12,3,8,0,0,1,,5,S,0,S,11,0.001697,0.758377,0.001287
29,13,2,6,0,0,1,,4,S,0,S,12,0,0.797822,0
29,14,5,6,0,0,1,,1,S,0,S,16,0.031833,0.750821,0.023901
29,15,3,9,0,0,1,,6,S,0,S,11,0.001978,0.760235,0.001504
29,16,5,7,0,0,1,,2,S,0,S,14,0,0.791283,0
29,17,7,8,0,0,1,,1,S,0,S,15,0.005303,0.783811,0.004157
29,18,8,4,0,0,1,,4,S,0,S,12,0.774353,0,0
29,19,6,3,0,0,1,,3,S,0,S,12,0.766122,0.004697,0.003599
29,20,2,9,0,0,1,,7,L,0,S,11,0,0.810659,0
29,21,2,3,0,0,1,,1,S,0,S,15,0.027989,0.752411,0.02106
29,22,2,1,0,0,1,,1,S,0,S,14,0.796583,0,0
29,23,6,1,0,0,1,,5,S,0,S,11,0.806609,0,0
29,24,8,9,0,0,1,,1,S,0,S,21,0.008879,0.792601,0.007037
29,25,9,1,0,0,1,,8,L,0,S,10,0.787515,0,0
29,26,8,2,0,0,1,,6,S,0,S,11,0.801909,0,0
29,27,7,6,0,0,1,,1,S,0,S,16,0.782174,0.007134,0.00558
29,28,8,6,0,0,1,,2,S,0,S,14,0.796475,0,0
29,29,7,3,0,0,1,,4,S,0,S,12,0.796931,0,0
29,30,4,2,0,0,1,,2,S,0,S,13,0.762148,0.011187,0.008526
29,31,6,8,0,0,1,,2,S,0,S,13,0.021447,0.752331,0.016136
29,32,5,9,0,0,1,,4,S,0,S,12,0.009885,0.762246,0.007535
29,33,1,6,0,0,1,,5,S,0,S,11,0,0.785856,0
29,34,4,3,0,0,1,,1,S,0,S,15,0.760446,0.020865,0.015867
29,35,1,4,0,0,1,,3,S,0,S,12,0,0.803534,0
29,36,3,1,0,0,1,,2,S,0,S,12,0.785982,0,0
29,37,5,8,0,0,1,,3,S,0,S,12,0.009311,0.760552,0.007082
29,38,3,2,0,0,1,,1,S,0,S,14,0.778604,0.003512,0.002734
29,39,7,9,0,0,1,,2,S,0,S,15,0.007399,0.783913,0.0058
29,40,4,9,0,0,1,,5,S,0,S,12,0,0.802109,0
29,41,4,5,0,0,1,,1,S,0,S,15,0,0.792549,0
29,42,1,2,0,0,1,,1,S,0,S,15,0,0.798667,0
29,43,1,7,0,0,1,,6,S,0,S,10,0,0.752036,0
29,44,9,4,0,0,1,,5,S,0,S,12,0.796825,0,0
29,45,2,8,0,0,1,,6,S,0,S,11,0,0.80882,0
29,46,1,9,0,0,1,,8,L,0,S,10,0,0.777203,0
29,47,2,4,0,0,1,,2,S,0,S,13,0,0.791622,0
29,48,4,7,0,0,1,,3,S,0,S,13,0,0.80211,0
29,49,9,5,0,0,1,,4,S,0,S,13,0.803737,0,0
29,50,9,6,0,0,1,,3,S,0,S,13,0.782449,0,0
29,51,3,6,0,0,1,,3,S,0,S,13,0.011193,0.761579,0.008524
29,52,6,5,0,0,1,,1,S,0,S,17,0.75491,0.031261,0.023599
29,53,1,8,0,0,1,,7,L,0,S,10,0,0.775529,0
29,54,6,4,0,0,1,,2,S,0,S,14,0.769564,0.012997,0.010002
29,55,2,7,0,0,1,,5,S,0,S,11,0,0.778626,0
29,56,4,1,0,0,1,,3,S,0,S,12,0.80311,0,0
29,57,9,8,0,0,1,,1,S,0,S,20,0.790626,0.006054,0.004786
29,58,3,4,0,0,1,,1,S,0,S,16,0.018799,0.767438,0.014427
29,59,3,7,0,0,1,,4,S,0,S,12,0.001384,0.771074,0.001067
29,60,5,1,0,0,1,,4,S,0,S,11,0.780312,0,0
29,61,4,6,0,0,1,,2,S,0,S,14,0.003977,0.776747,0.003089
29,62,1,3,0,0,1,,2,S,0,S,13,0,0.784759,0
29,63,8,3,0,0,1,,5,S,0,S,11,0.772846,0,0
29,64,5,3,0,0,1,,2,S,0,S,13,0.761488,0.014126,0.010757
29,65,7,1,0,0,1,,6,S,0,S,10,0.758946,0,0
29,66,9,3,0,0,1,,6,S,0,S,11,0.788025,0,0
29,67,7,5,0,0,1,,2,S,0,S,15,0.785248,0.002895,0.002273
29,68,5,4,0,0,1,,1,S,0,S,17,0.757499,0.030552,0.023143
29,69,5,2,0,0,1,,3,S,0,S,12,0.768651,0.002472,0.0019
29,70,6,9,0,0,1,,3,S,0,S,13,0.022604,0.753491,0.017032
29,71,3,5,0,0,1,,2,S,0,S,14,0,0.787761,0
29,72,7,2,0,0,1,,5,S,0,S,11,0.774624,0,0
30,1,7,8,0,0,1,,1,S,0,S,19,0.015592,0.781567,0.012186
30,2,2,6,0,0,1,,4,S,0,S,12,0,0.789237,0
30,3,5,8,0,0,1,,3,S,0,S,14,0,0.799281,0
30,4,2,7,0,0,1,,5,S,0,S,12,0,0.807655,0
30,5,8,6,0,0,1,,2,S,0,S,15,0.767843,0.016892,0.01297
30,6,1,4,0,0,1,,3,S,0,S,11,0,0.763923,0
30,7,5,9,0,0,1,,4,S,0,S,13,0,0.787812,0
30,8,1,8,0,0,1,,7,L,0,S,10,0,0.773396,0
30,9,7,5,0,0,1,,2,S,0,S,14,0.780123,0.002597,0.002026
30,10,6,8,0,0,1,,2,S,0,S,15,0.009209,0.778665,0.007171
30,11,2,9,0,0,1,,7,L,0,S,11,0,0.787458,0
30,12,3,7,0,0,1,,4,S,0,S,12,0,0.780653,0
30,13,7,4,0,0,1,,3,S,0,S,13,0.772037,0.003911,0.003019
30,14,6,7,0,0,1,,1,S,0,S,17,0.007327,0.78114,0.005723
30,15,7,3,0,0,1,,4,S,0,S,12,0.772439,0,0
30,16,3,1,0,0,1,,2,S,0,S,13,0.798576,0,0
30,17,4,8,0,0,1,,4,S,0,S,12,0.002605,0.770508,0.002007
30,18,9,5,0,0,1,,4,S,0,S,13,0.785896,0,0
30,19,2,8,0,0,1,,6,S,0,S,11,0,0.772029,0
30,20,7,9,0,0,1,,2,S,0,S,16,0,0.797827,0
30,21,6,4,0,0,1,,2,S,0,S,15,0.798546,0,0
30,22,6,5,0,0,1,,1,S,0,S,16,0.768457,0.015688,0.012055
30,23,8,9,0,0,1,,1,S,0,S,18,0.001571,0.794132,0.001248
30,24,8,4,0,0,1,,4,S,0,S,13,0.802262,0,0
30,25,1,3,0,0,1,,2,S,0,S,12,0,0.788752,0
30,26,6,3,0,0,1,,3,S,0,S,13,0.778169,0,0
30,27,1,9,0,0,1,,8,L,0,S,10,0,0.782241,0
30,28,9,6,0,0,1,,3,S,0,S,14,0.750234,0.028162,0.021128
30,29,6,2,0,0,1,,4,S,0,S,12,0.790574,0,0
30,30,5,1,0,0,1,,4,S,0,S,11,0.779283,0,0
30,31,3,2,0,0,1,,1,S,0,S,16,0.770869,0.011072,0.008535
