ANN,trial,N1,N2,P1,P2,Succ.,,Ndist,Ndist,Pdist,Pdist,rt,a1,a2,x_acc
1,1,8,5,0,0,1,,3,S,0,S,13,0.753076,0.007045,0.005305
1,2,7,4,0,0,1,,3,S,0,S,13,0.767949,0,0
1,3,9,8,0,0,1,,1,S,0,S,18,0.753252,0.02228,0.016782
1,4,6,1,0,0,1,,5,S,0,S,11,0.777333,0,0
1,5,8,2,0,0,1,,6,S,0,S,11,0.770261,0,0
1,6,2,9,0,0,1,,7,L,0,S,11,0,0.766074,0
1,7,5,6,0,0,1,,1,S,0,S,15,0.012611,0.758928,0.009571
1,8,7,1,0,0,1,,6,S,0,S,11,0.801325,0,0
1,9,4,7,0,0,1,,3,S,0,S,13,0,0.773417,0
1,10,3,7,0,0,1,,4,S,0,S,12,0,0.776012,0
1,11,9,1,0,0,1,,8,L,0,S,10,0.769824,0,0
1,12,6,7,0,0,1,,1,S,0,S,16,0.006451,0.767607,0.004952
1,13,5,1,0,0,1,,4,S,0,S,11,0.763633,0,0
1,14,5,4,0,0,1,,1,S,0,S,16,0.757007,0.017437,0.0132
1,15,1,4,0,0,1,,3,S,0,S,12,0,0.783791,0
1,16,2,3,0,0,1,,1,S,0,S,16,0.006274,0.766333,0.004808
1,17,8,1,0,0,1,,7,L,0,S,10,0.750609,0,0
1,18,3,5,0,0,1,,2,S,0,S,14,0,0.7937,0
1,19,2,5,0,0,1,,3,S,0,S,13,0,0.76947,0
1,20,6,8,0,0,1,,2,S,0,S,14,0,0.790983,0
1,21,9,2,0,0,1,,7,L,0,S,11,0.795959,0,0
1,22,3,2,0,0,1,,1,S,0,S,16,0.753173,0.018652,0.014048
1,23,7,8,0,0,1,,1,S,0,S,16,0,0.778389,0
1,24,5,3,0,0,1,,2,S,0,S,14,0.767166,0.000967,0.000742
1,25,9,6,0,0,1,,3,S,0,S,14,0.781612,0,0
1,26,5,8,0,0,1,,3,S,0,S,13,0,0.773842,0
1,27,8,9,0,0,1,,1,S,0,S,20,0,0.790313,0
1,28,4,8,0,0,1,,4,S,0,S,12,0,0.77351,0
1,29,1,3,0,0,1,,2,S,0,S,13,0,0.791054,0
1,30,1,5,0,0,1,,4,S,0,S,12,0,0.801817,0
1,31,4,1,0,0,1,,3,S,0,S,12,0.779471,0,0
1,32,9,7,0,0,1,,2,S,0,S,14,0.752762,0.013072,0.00984
1,33,1,7,0,0,1,,6,S,0,S,11,0,0.790522,0
1,34,6,4,0,0,1,,2,S,0,S,15,0.781232,0,0
1,35,5,7,0,0,1,,2,S,0,S,15,0,0.786587,0
1,36,3,9,0,0,1,,6,S,0,S,11,0,0.754116,0
1,37,6,3,0,0,1,,3,S,0,S,13,0.754211,0.006269,0.004728
1,38,1,2,0,0,1,,1,S,0,S,15,0,0.797524,0
1,39,4,2,0,0,1,,2,S,0,S,14,0.785881,0,0
1,40,9,3,0,0,1,,6,S,0,S,11,0.756421,0,0
1,41,8,4,0,0,1,,4,S,0,S,13,0.796572,0,0
1,42,6,9,0,0,1,,3,S,0,S,14,0,0.781646,0
1,43,8,7,0,0,1,,1,S,0,S,18,0.793059,0,0
1,44,9,4,0,0,1,,5,S,0,S,12,0.786895,0,0
1,45,3,1,0,0,1,,2,S,0,S,13,0.782381,0,0
1,46,4,5,0,0,1,,1,S,0,S,16,0.00385,0.768628,0.002959
1,47,5,9,0,0,1,,4,S,0,S,13,0,0.766597,0
1,48,6,2,0,0,1,,4,S,0,S,12,0.775889,0,0
1,49,2,8,0,0,1,,6,S,0,S,11,0,0.768893,0
1,50,7,9,0,0,1,,2,S,0,S,16,0.016982,0.755734,0.012834
1,51,2,7,0,0,1,,5,S,0,S,12,0,0.790942,0
1,52,3,8,0,0,1,,5,S,0,S,11,0,0.757297,0
1,53,1,8,0,0,1,,7,L,0,S,10,0,0.752627,0
1,54,4,3,0,0,1,,1,S,0,S,18,0.781153,0,0
1,55,7,2,0,0,1,,5,S,0,S,11,0.755324,0,0
1,56,3,4,0,0,1,,1,S,0,S,15,0,0.793873,0
1,57,1,6,0,0,1,,5,S,0,S,11,0,0.786316,0
1,58,7,3,0,0,1,,4,S,0,S,12,0.757709,0,0
1,59,2,1,0,0,1,,1,S,0,S,13,0.757837,0.003191,0.002418
1,60,2,6,0,0,1,,4,S,0,S,12,0,0.783831,0
1,61,7,5,0,0,1,,2,S,0,S,14,0.76491,0.002653,0.00203
1,62,5,2,0,0,1,,3,S,0,S,12,0.753991,0.002493,0.001879
1,63,9,5,0,0,1,,4,S,0,S,12,0.754861,0.001102,0.000832
1,64,4,6,0,0,1,,2,S,0,S,13,0.002437,0.760148,0.001853
1,65,3,6,0,0,1,,3,S,0,S,12,0,0.767742,0
1,66,8,3,0,0,1,,5,S,0,S,12,0.779006,0,0
1,67,4,9,0,0,1,,5,S,0,S,12,0,0.769032,0
1,68,1,9,0,0,1,,8,L,0,S,10,0,0.750805,0
1,69,7,6,0,0,1,,1,S,0,S,19,0.769847,0.010878,0.008374
1,70,8,6,0,0,1,,2,S,0,S,16,0.765014,0.01013,0.00775
1,71,6,5,0,0,1,,1,S,0,S,17,0.765267,0.009812,0.007509
1,72,2,4,0,0,1,,2,S,0,S,14,0,0.781651,0
2,1,1,3,0,0,1,,2,S,0,S,13,0,0.799113,0
2,2,2,7,0,0,1,,5,S,0,S,11,0,0.752027,0
2,3,4,3,0,0,1,,1,S,0,S,17,0.770705,0.006531,0.005034
2,4,7,9,0,0,1,,2,S,0,S,16,0.008548,0.762623,0.006519
2,5,9,8,0,0,1,,1,S,0,S,20,0.761346,0.018572,0.01414
2,6,4,6,0,0,1,,2,S,0,S,15,0,0.78284,0
2,7,5,8,0,0,1,,3,S,0,S,13,0,0.770907,0
2,8,4,5,0,0,1,,1,S,0,S,17,0.011001,0.762524,0.008389
2,9,5,6,0,0,1,,1,S,0,S,18,0,0.790478,0
2,10,2,1,0,0,1,,1,S,0,S,14,0.761961,0.001431,0.001091
2,11,3,7,0,0,1,,4,S,0,S,12,0,0.783246,0
2,12,2,8,0,0,1,,6,S,0,S,11,0,0.777317,0
2,13,5,1,0,0,1,,4,S,0,S,12,0.80411,0,0
2,14,5,4,0,0,1,,1,S,0,S,16,0.756444,0.014055,0.010632
2,15,9,7,0,0,1,,2,S,0,S,15,0.768019,0.00692,0.005315
2,16,9,4,0,0,1,,5,S,0,S,12,0.780062,0,0
2,17,7,5,0,0,1,,2,S,0,S,14,0.786231,0,0
2,18,4,7,0,0,1,,3,S,0,S,13,0,0.767463,0
2,19,3,4,0,0,1,,1,S,0,S,15,0,0.777844,0
2,20,1,4,0,0,1,,3,S,0,S,12,0,0.772418,0
2,21,7,8,0,0,1,,1,S,0,S,18,0,0.785187,0
2,22,2,3,0,0,1,,1,S,0,S,15,0,0.792877,0
2,23,8,2,0,0,1,,6,S,0,S,11,0.763568,0,0
2,24,7,3,0,0,1,,4,S,0,S,12,0.763906,0,0
2,25,8,6,0,0,1,,2,S,0,S,15,0.773358,0,0
2,26,5,7,0,0,1,,2,S,0,S,14,0.010368,0.754865,0.007826
2,27,1,6,0,0,1,,5,S,0,S,11,0,0.765144,0
2,28,8,1,0,0,1,,7,L,0,S,11,0.800446,0,0
2,29,8,3,0,0,1,,5,S,0,S,12,0.767099,0,0
2,30,7,6,0,0,1,,1,S,0,S,15,0.768043,0.001802,0.001384
2,31,9,1,0,0,1,,8,L,0,S,10,0.758904,0,0
2,32,6,8,0,0,1,,2,S,0,S,15,0,0.79302,0
2,33,2,9,0,0,1,,7,L,0,S,11,0,0.785227,0
2,34,8,5,0,0,1,,3,S,0,S,14,0.790517,0,0
2,35,4,2,0,0,1,,2,S,0,S,13,0.756625,0.003777,0.002858
2,36,6,2,0,0,1,,4,S,0,S,12,0.793715,0,0
2,37,8,9,0,0,1,,1,S,0,S,16,0.007852,0.765607,0.006012
2,38,3,8,0,0,1,,5,S,0,S,11,0,0.755876,0
2,39,3,5,0,0,1,,2,S,0,S,14,0,0.794466,0
2,40,9,2,0,0,1,,7,L,0,S,11,0.788567,0,0
2,41,4,1,0,0,1,,3,S,0,S,12,0.780369,0,0
2,42,1,5,0,0,1,,4,S,0,S,12,0,0.798694,0
2,43,6,3,0,0,1,,3,S,0,S,13,0.778197,0,0
2,44,1,8,0,0,1,,7,L,0,S,11,0,0.810087,0
2,45,4,8,0,0,1,,4,S,0,S,12,0,0.760547,0
2,46,3,2,0,0,1,,1,S,0,S,17,0.7919,0,0
2,47,9,3,0,0,1,,6,S,0,S,12,0.802265,0,0
2,48,2,6,0,0,1,,4,S,0,S,12,0,0.770695,0
2,49,4,9,0,0,1,,5,S,0,S,12,0,0.774088,0
2,50,1,7,0,0,1,,6,S,0,S,11,0,0.793188,0
2,51,3,1,0,0,1,,2,S,0,S,13,0.762365,0,0
2,52,5,9,0,0,1,,4,S,0,S,13,0,0.788607,0
2,53,5,2,0,0,1,,3,S,0,S,13,0.798011,0,0
2,54,9,6,0,0,1,,3,S,0,S,13,0.753053,0.008567,0.006452
2,55,7,4,0,0,1,,3,S,0,S,13,0.788097,0,0
2,56,1,9,0,0,1,,8,L,0,S,10,0,0.756014,0
2,57,7,2,0,0,1,,5,S,0,S,11,0.760961,0,0
2,58,3,9,0,0,1,,6,S,0,S,11,0,0.765185,0
2,59,3,6,0,0,1,,3,S,0,S,13,0,0.789387,0
2,60,8,7,0,0,1,,1,S,0,S,19,0.756145,0.021471,0.016235
2,61,6,4,0,0,1,,2,S,0,S,14,0.788431,0,0
2,62,6,9,0,0,1,,3,S,0,S,14,0,0.774527,0
2,63,6,7,0,0,1,,1,S,0,S,18,0.001236,0.781602,0.000966
2,64,9,5,0,0,1,,4,S,0,S,13,0.795509,0,0
2,65,2,4,0,0,1,,2,S,0,S,14,0,0.794999,0
2,66,2,5,0,0,1,,3,S,0,S,13,0,0.78918,0
2,67,6,5,0,0,1,,1,S,0,S,15,0.755678,0.01318,0.00996
2,68,8,4,0,0,1,,4,S,0,S,13,0.791669,0,0
2,69,6,1,0,0,1,,5,S,0,S,11,0.782132,0,0
2,70,5,3,0,0,1,,2,S,0,S,15,0.789576,0,0
2,71,1,2,0,0,1,,1,S,0,S,15,0,0.778498,0
2,72,7,1,0,0,1,,6,S,0,S,11,0.798235,0,0
3,1,3,2,0,0,1,,1,S,0,S,15,0.777544,0,0
3,2,6,9,0,0,1,,3,S,0,S,13,0,0.766403,0
3,3,6,8,0,0,1,,2,S,0,S,15,0,0.792574,0
3,4,1,2,0,0,1,,1,S,0,S,14,0.006788,0.753015,0.005112
3,5,9,6,0,0,1,,3,S,0,S,15,0.79799,0,0
3,6,8,6,0,0,1,,2,S,0,S,16,0.785261,0,0
3,7,4,2,0,0,1,,2,S,0,S,14,0.79074,0,0
3,8,6,3,0,0,1,,3,S,0,S,13,0.777371,0,0
3,9,2,6,0,0,1,,4,S,0,S,12,0,0.771531,0
3,10,6,1,0,0,1,,5,S,0,S,11,0.77329,0,0
3,11,2,9,0,0,1,,7,L,0,S,11,0,0.785134,0
3,12,1,6,0,0,1,,5,S,0,S,11,0,0.782415,0
3,13,1,5,0,0,1,,4,S,0,S,12,0,0.802378,0
3,14,9,5,0,0,1,,4,S,0,S,13,0.790692,0,0
3,15,7,2,0,0,1,,5,S,0,S,11,0.756991,0,0
3,16,9,1,0,0,1,,8,L,0,S,10,0.751628,0,0
3,17,2,4,0,0,1,,2,S,0,S,14,0,0.790821,0
3,18,7,8,0,0,1,,1,S,0,S,18,0.01919,0.75479,0.014485
3,19,1,8,0,0,1,,7,L,0,S,10,0,0.750134,0
3,20,9,4,0,0,1,,5,S,0,S,12,0.753278,0.004003,0.003016
3,21,3,8,0,0,1,,5,S,0,S,12,0,0.78717,0
3,22,2,8,0,0,1,,6,S,0,S,11,0,0.760521,0
3,23,5,8,0,0,1,,3,S,0,S,13,0.008106,0.750875,0.006086
3,24,3,7,0,0,1,,4,S,0,S,12,0.000837,0.755074,0.000632
3,25,8,4,0,0,1,,4,S,0,S,13,0.778984,0,0
3,26,3,1,0,0,1,,2,S,0,S,13,0.786282,0,0
3,27,7,1,0,0,1,,6,S,0,S,11,0.793803,0,0
3,28,2,5,0,0,1,,3,S,0,S,13,0.003332,0.758607,0.002528
3,29,9,3,0,0,1,,6,S,0,S,12,0.800165,0,0
3,30,8,2,0,0,1,,6,S,0,S,11,0.765607,0,0
3,31,8,1,0,0,1,,7,L,0,S,11,0.799916,0,0
3,32,4,8,0,0,1,,4,S,0,S,12,0,0.762706,0
3,33,6,7,0,0,1,,1,S,0,S,17,0.014297,0.763598,0.010917
3,34,9,7,0,0,1,,2,S,0,S,16,0.794366,0,0
3,35,8,9,0,0,1,,1,S,0,S,15,0.015131,0.752605,0.011388
3,36,6,2,0,0,1,,4,S,0,S,12,0.78491,0,0
3,37,8,7,0,0,1,,1,S,0,S,18,0.79334,0,0
3,38,5,1,0,0,1,,4,S,0,S,12,0.802823,0,0
3,39,5,9,0,0,1,,4,S,0,S,13,0,0.802414,0
3,40,1,4,0,0,1,,3,S,0,S,12,0,0.794576,0
3,41,7,4,0,0,1,,3,S,0,S,13,0.761896,0.000433,0.00033
3,42,4,9,0,0,1,,5,S,0,S,12,0,0.797927,0
3,43,6,4,0,0,1,,2,S,0,S,15,0.786028,0,0
3,44,7,6,0,0,1,,1,S,0,S,17,0.785601,0,0
3,45,1,9,0,0,1,,8,L,0,S,10,0,0.766945,0
3,46,6,5,0,0,1,,1,S,0,S,16,0.794937,0,0
3,47,1,7,0,0,1,,6,S,0,S,11,0,0.795633,0
3,48,2,1,0,0,1,,1,S,0,S,14,0.787079,0,0
3,49,2,7,0,0,1,,5,S,0,S,12,0,0.792575,0
3,50,4,6,0,0,1,,2,S,0,S,14,0,0.792934,0
3,51,5,4,0,0,1,,1,S,0,S,18,0.793108,0,0
3,52,4,7,0,0,1,,3,S,0,S,13,0,0.776709,0
3,53,8,3,0,0,1,,5,S,0,S,12,0.779737,0,0
3,54,3,4,0,0,1,,1,S,0,S,15,0.015727,0.751673,0.011822
3,55,5,2,0,0,1,,3,S,0,S,13,0.800857,0,0
3,56,7,3,0,0,1,,4,S,0,S,12,0.768013,0,0
3,57,5,6,0,0,1,,1,S,0,S,16,0.007894,0.763218,0.006025
3,58,3,5,0,0,1,,2,S,0,S,15,0,0.783955,0
3,59,3,9,0,0,1,,6,S,0,S,11,0,0.759901,0
3,60,9,2,0,0,1,,7,L,0,S,11,0.781325,0,0
3,61,5,3,0,0,1,,2,S,0,S,14,0.768475,0,0
3,62,4,3,0,0,1,,1,S,0,S,17,0.765684,0.010366,0.007937
3,63,3,6,0,0,1,,3,S,0,S,13,0,0.781561,0
3,64,5,7,0,0,1,,2,S,0,S,15,0,0.783023,0
3,65,7,5,0,0,1,,2,S,0,S,14,0.790643,0,0
3,66,7,9,0,0,1,,2,S,0,S,15,0,0.781635,0
3,67,9,8,0,0,1,,1,S,0,S,21,0.773933,0.010431,0.008073
3,68,4,5,0,0,1,,1,S,0,S,17,0,0.786341,0
3,69,2,3,0,0,1,,1,S,0,S,16,0.017983,0.753477,0.013549
3,70,8,5,0,0,1,,3,S,0,S,13,0.759419,0.002133,0.00162
3,71,1,3,0,0,1,,2,S,0,S,13,0,0.799883,0
3,72,4,1,0,0,1,,3,S,0,S,12,0.766565,0,0
4,1,5,9,0,0,1,,4,S,0,S,13,0,0.771579,0
4,2,1,5,0,0,1,,4,S,0,S,11,0,0.75658,0
4,3,1,2,0,0,1,,1,S,0,S,14,0,0.79212,0
4,4,3,6,0,0,1,,3,S,0,S,13,0,0.771203,0
4,5,4,8,0,0,1,,4,S,0,S,13,0,0.782694,0
4,6,7,5,0,0,1,,2,S,0,S,14,0.75877,0.008425,0.006393
4,7,6,1,0,0,1,,5,S,0,S,11,0.765702,0,0
4,8,7,4,0,0,1,,3,S,0,S,13,0.782838,0,0
4,9,9,5,0,0,1,,4,S,0,S,12,0.762065,0,0
4,10,2,4,0,0,1,,2,S,0,S,14,0,0.780495,0
4,11,5,2,0,0,1,,3,S,0,S,13,0.783578,0,0
4,12,8,2,0,0,1,,6,S,0,S,11,0.760218,0,0
4,13,6,2,0,0,1,,4,S,0,S,12,0.760746,0,0
4,14,6,8,0,0,1,,2,S,0,S,14,0.013524,0.751545,0.010164
4,15,4,2,0,0,1,,2,S,0,S,14,0.788786,0,0
4,16,5,1,0,0,1,,4,S,0,S,12,0.802908,0,0
4,17,8,9,0,0,1,,1,S,0,S,20,0.008513,0.769261,0.006549
4,18,9,1,0,0,1,,8,L,0,S,10,0.7664,0,0
4,19,7,9,0,0,1,,2,S,0,S,16,0.019738,0.750344,0.01481
4,20,7,1,0,0,1,,6,S,0,S,11,0.793,0,0
4,21,8,6,0,0,1,,2,S,0,S,15,0.769099,0,0
4,22,7,3,0,0,1,,4,S,0,S,12,0.767993,0,0
4,23,2,8,0,0,1,,6,S,0,S,11,0,0.764592,0
4,24,1,4,0,0,1,,3,S,0,S,12,0,0.772564,0
4,25,6,7,0,0,1,,1,S,0,S,16,0.006107,0.770295,0.004704
4,26,3,5,0,0,1,,2,S,0,S,14,0,0.775364,0
4,27,5,6,0,0,1,,1,S,0,S,17,0,0.789199,0
4,28,7,8,0,0,1,,1,S,0,S,19,0.000624,0.779416,0.000487
4,29,8,7,0,0,1,,1,S,0,S,17,0.775493,0.001294,0.001004
4,30,4,6,0,0,1,,2,S,0,S,15,0,0.783901,0
4,31,3,2,0,0,1,,1,S,0,S,16,0.767085,0.007133,0.005472
4,32,5,3,0,0,1,,2,S,0,S,14,0.774944,0,0
4,33,2,9,0,0,1,,7,L,0,S,11,0,0.776678,0
4,34,9,2,0,0,1,,7,L,0,S,11,0.793664,0,0
4,35,3,4,0,0,1,,1,S,0,S,17,0.004577,0.770285,0.003526
4,36,4,3,0,0,1,,1,S,0,S,15,0.753804,0.010687,0.008056
4,37,2,1,0,0,1,,1,S,0,S,15,0.797877,0,0
4,38,7,6,0,0,1,,1,S,0,S,17,0.78908,0,0
4,39,3,7,0,0,1,,4,S,0,S,12,0,0.755974,0
4,40,8,5,0,0,1,,3,S,0,S,14,0.798231,0,0
4,41,9,8,0,0,1,,1,S,0,S,15,0.764312,0.007327,0.0056
4,42,4,7,0,0,1,,3,S,0,S,14,0,0.795916,0
4,43,5,7,0,0,1,,2,S,0,S,15,0,0.790739,0
4,44,4,5,0,0,1,,1,S,0,S,17,0.002578,0.773997,0.001996
4,45,3,1,0,0,1,,2,S,0,S,13,0.782499,0,0
4,46,1,6,0,0,1,,5,S,0,S,11,0,0.773592,0
4,47,8,3,0,0,1,,5,S,0,S,12,0.78621,0,0
4,48,4,1,0,0,1,,3,S,0,S,12,0.777822,0,0
4,49,9,4,0,0,1,,5,S,0,S,12,0.801926,0,0
4,50,5,8,0,0,1,,3,S,0,S,14,0,0.794125,0
4,51,2,5,0,0,1,,3,S,0,S,13,0,0.80137,0
4,52,5,4,0,0,1,,1,S,0,S,16,0.781031,0,0
4,53,3,8,0,0,1,,5,S,0,S,12,0,0.780903,0
4,54,8,4,0,0,1,,4,S,0,S,12,0.753455,0,0
4,55,1,8,0,0,1,,7,L,0,S,11,0,0.804344,0
4,56,6,3,0,0,1,,3,S,0,S,13,0.766767,0,0
4,57,9,6,0,0,1,,3,S,0,S,13,0.768278,0,0
4,58,7,2,0,0,1,,5,S,0,S,12,0.802615,0,0
4,59,1,3,0,0,1,,2,S,0,S,13,0,0.782706,0
4,60,9,7,0,0,1,,2,S,0,S,14,0.781863,0,0
4,61,9,3,0,0,1,,6,S,0,S,11,0.769025,0,0
4,62,4,9,0,0,1,,5,S,0,S,12,0.001955,0.750942,0.001468
4,63,3,9,0,0,1,,6,S,0,S,12,0,0.796536,0
4,64,1,9,0,0,1,,8,L,0,S,10,0,0.752888,0
4,65,2,3,0,0,1,,1,S,0,S,16,0,0.779185,0
4,66,6,5,0,0,1,,1,S,0,S,18,0.767009,0.012424,0.009529
4,67,2,7,0,0,1,,5,S,0,S,12,0,0.803533,0
4,68,6,9,0,0,1,,3,S,0,S,14,0,0.788198,0
4,69,8,1,0,0,1,,7,L,0,S,11,0.801978,0,0
4,70,2,6,0,0,1,,4,S,0,S,12,0,0.776206,0
4,71,1,7,0,0,1,,6,S,0,S,11,0,0.793056,0
4,72,6,4,0,0,1,,2,S,0,S,14,0.755026,0.010787,0.008144
5,1,6,7,0,0,1,,1,S,0,S,17,0.004601,0.769469,0.00354
5,2,3,4,0,0,1,,1,S,0,S,16,0.008957,0.763196,0.006836
5,3,4,8,0,0,1,,4,S,0,S,13,0,0.794756,0
5,4,9,2,0,0,1,,7,L,0,S,11,0.777049,0,0
5,5,9,5,0,0,1,,4,S,0,S,13,0.77043,0,0
5,6,5,2,0,0,1,,3,S,0,S,13,0.783547,0,0
5,7,4,1,0,0,1,,3,S,0,S,12,0.777738,0,0
5,8,6,4,0,0,1,,2,S,0,S,14,0.759223,0.003999,0.003036
5,9,1,7,0,0,1,,6,S,0,S,11,0,0.792307,0
5,10,1,4,0,0,1,,3,S,0,S,12,0,0.77159,0
5,11,7,4,0,0,1,,3,S,0,S,13,0.760683,0.001213,0.000923
5,12,7,9,0,0,1,,2,S,0,S,15,0,0.784698,0
5,13,5,6,0,0,1,,1,S,0,S,15,0.014904,0.753514,0.01123
5,14,6,9,0,0,1,,3,S,0,S,14,0,0.784737,0
5,15,9,3,0,0,1,,6,S,0,S,12,0.797489,0,0
5,16,7,8,0,0,1,,1,S,0,S,17,0.0194,0.753184,0.014612
5,17,2,7,0,0,1,,5,S,0,S,12,0,0.801248,0
5,18,3,8,0,0,1,,5,S,0,S,12,0,0.78377,0
5,19,8,9,0,0,1,,1,S,0,S,18,0.021801,0.750333,0.016358
5,20,6,1,0,0,1,,5,S,0,S,11,0.773298,0,0
5,21,5,7,0,0,1,,2,S,0,S,14,0,0.773644,0
5,22,1,9,0,0,1,,8,L,0,S,10,0,0.757783,0
5,23,2,9,0,0,1,,7,L,0,S,11,0,0.781749,0
5,24,3,6,0,0,1,,3,S,0,S,13,0,0.785647,0
5,25,4,3,0,0,1,,1,S,0,S,17,0.795299,0,0
5,26,4,5,0,0,1,,1,S,0,S,16,0.002161,0.773101,0.00167
5,27,9,1,0,0,1,,8,L,0,S,10,0.752596,0,0
5,28,8,1,0,0,1,,7,L,0,S,11,0.807698,0,0
5,29,2,4,0,0,1,,2,S,0,S,14,0,0.782473,0
5,30,9,6,0,0,1,,3,S,0,S,14,0.759324,0.005437,0.004129
5,31,1,6,0,0,1,,5,S,0,S,11,0,0.775856,0
5,32,3,7,0,0,1,,4,S,0,S,12,0,0.76425,0
5,33,3,5,0,0,1,,2,S,0,S,14,0,0.782631,0
5,34,6,3,0,0,1,,3,S,0,S,13,0.771039,0,0
5,35,4,2,0,0,1,,2,S,0,S,14,0.791595,0,0
5,36,1,5,0,0,1,,4,S,0,S,11,0,0.752161,0
5,37,7,3,0,0,1,,4,S,0,S,12,0.754844,0.001425,0.001075
5,38,7,2,0,0,1,,5,S,0,S,12,0.802893,0,0
5,39,4,9,0,0,1,,5,S,0,S,12,0,0.777631,0
5,40,1,2,0,0,1,,1,S,0,S,14,0.005919,0.761463,0.004507
5,41,7,1,0,0,1,,6,S,0,S,11,0.792332,0,0
5,42,8,7,0,0,1,,1,S,0,S,17,0.783617,0,0
5,43,8,4,0,0,1,,4,S,0,S,12,0.752372,0,0
5,44,7,6,0,0,1,,1,S,0,S,18,0.773742,0.005335,0.004128
5,45,2,5,0,0,1,,3,S,0,S,13,0,0.795274,0
5,46,3,1,0,0,1,,2,S,0,S,13,0.789735,0,0
5,47,2,8,0,0,1,,6,S,0,S,11,0,0.759304,0
5,48,3,2,0,0,1,,1,S,0,S,16,0.794244,0,0
5,49,6,5,0,0,1,,1,S,0,S,17,0.775281,0.000311,0.000241
5,50,9,4,0,0,1,,5,S,0,S,12,0.763629,0,0
5,51,5,9,0,0,1,,4,S,0,S,12,0.004508,0.750007,0.003381
5,52,8,6,0,0,1,,2,S,0,S,15,0.783238,0,0
5,53,4,7,0,0,1,,3,S,0,S,13,0,0.767975,0
5,54,5,4,0,0,1,,1,S,0,S,17,0.757915,0.014654,0.011107
5,55,1,8,0,0,1,,7,L,0,S,11,0,0.801854,0
5,56,5,1,0,0,1,,4,S,0,S,12,0.80169,0,0
5,57,3,9,0,0,1,,6,S,0,S,11,0,0.754496,0
5,58,6,2,0,0,1,,4,S,0,S,12,0.776293,0,0
5,59,8,3,0,0,1,,5,S,0,S,12,0.788722,0,0
5,60,8,5,0,0,1,,3,S,0,S,13,0.754502,0.005136,0.003875
5,61,2,1,0,0,1,,1,S,0,S,14,0.758241,0.004781,0.003626
5,62,5,8,0,0,1,,3,S,0,S,13,0.002717,0.758826,0.002062
5,63,1,3,0,0,1,,2,S,0,S,13,0,0.791208,0
5,64,4,6,0,0,1,,2,S,0,S,14,0,0.771562,0
5,65,2,3,0,0,1,,1,S,0,S,15,0.00945,0.758081,0.007164
5,66,8,2,0,0,1,,6,S,0,S,11,0.770256,0,0
5,67,6,8,0,0,1,,2,S,0,S,15,0.009401,0.756928,0.007116
5,68,9,8,0,0,1,,1,S,0,S,18,0.764309,0.009599,0.007336
5,69,5,3,0,0,1,,2,S,0,S,15,0.792252,0,0
5,70,9,7,0,0,1,,2,S,0,S,16,0.780466,0,0
5,71,7,5,0,0,1,,2,S,0,S,15,0.781421,0,0
5,72,2,6,0,0,1,,4,S,0,S,12,0,0.778057,0
6,1,6,1,0,0,1,,5,S,0,S,11,0.790149,0,0
6,2,3,1,0,0,1,,2,S,0,S,12,0.761656,0,0
6,3,4,5,0,0,1,,1,S,0,S,16,0,0.79423,0
6,4,4,8,0,0,1,,4,S,0,S,13,0,0.79799,0
6,5,4,9,0,0,1,,5,S,0,S,12,0,0.771406,0
6,6,9,8,0,0,1,,1,S,0,S,20,0.764048,0.01549,0.011835
6,7,5,7,0,0,1,,2,S,0,S,14,0.011773,0.756043,0.008901
6,8,1,4,0,0,1,,3,S,0,S,12,0,0.77484,0
6,9,2,4,0,0,1,,2,S,0,S,14,0,0.797874,0
6,10,3,5,0,0,1,,2,S,0,S,14,0,0.7778,0
6,11,8,3,0,0,1,,5,S,0,S,12,0.763132,0,0
6,12,2,3,0,0,1,,1,S,0,S,15,0.000315,0.769035,0.000242
6,13,6,5,0,0,1,,1,S,0,S,17,0.756197,0.016761,0.012675
6,14,6,7,0,0,1,,1,S,0,S,17,0.016676,0.758812,0.012654
6,15,1,3,0,0,1,,2,S,0,S,13,0,0.787653,0
6,16,7,1,0,0,1,,6,S,0,S,11,0.806418,0,0
6,17,9,4,0,0,1,,5,S,0,S,12,0.751583,0.003217,0.002418
6,18,3,9,0,0,1,,6,S,0,S,12,0,0.798417,0
6,19,7,3,0,0,1,,4,S,0,S,12,0.752513,0.001179,0.000887
6,20,7,4,0,0,1,,3,S,0,S,13,0.764316,0,0
6,21,8,7,0,0,1,,1,S,0,S,19,0.778978,0.002181,0.001699
6,22,2,5,0,0,1,,3,S,0,S,12,0.002695,0.750689,0.002023
6,23,8,9,0,0,1,,1,S,0,S,17,0.014887,0.761555,0.011337
6,24,6,3,0,0,1,,3,S,0,S,13,0.764725,0,0
6,25,5,6,0,0,1,,1,S,0,S,17,0.014039,0.762727,0.010708
6,26,4,7,0,0,1,,3,S,0,S,13,0,0.768635,0
6,27,2,7,0,0,1,,5,S,0,S,12,0,0.804159,0
6,28,1,2,0,0,1,,1,S,0,S,14,0,0.77196,0
6,29,7,5,0,0,1,,2,S,0,S,15,0.782716,0,0
6,30,5,2,0,0,1,,3,S,0,S,13,0.777332,0,0
6,31,5,9,0,0,1,,4,S,0,S,13,0,0.785085,0
6,32,7,9,0,0,1,,2,S,0,S,16,0,0.78057,0
6,33,6,4,0,0,1,,2,S,0,S,14,0.756564,0.008736,0.006609
6,34,9,7,0,0,1,,2,S,0,S,16,0.760357,0.014553,0.011065
6,35,1,7,0,0,1,,6,S,0,S,11,0,0.789868,0
6,36,8,2,0,0,1,,6,S,0,S,12,0.804016,0,0
6,37,8,1,0,0,1,,7,L,0,S,11,0.80992,0,0
6,38,9,3,0,0,1,,6,S,0,S,12,0.78395,0,0
6,39,3,7,0,0,1,,4,S,0,S,12,0.000285,0.754292,0.000215
6,40,2,6,0,0,1,,4,S,0,S,12,0,0.769639,0
6,41,8,5,0,0,1,,3,S,0,S,14,0.760163,0.005242,0.003985
6,42,9,6,0,0,1,,3,S,0,S,14,0.773779,0,0
6,43,6,9,0,0,1,,3,S,0,S,14,0.002246,0.769057,0.001728
6,44,1,8,0,0,1,,7,L,0,S,11,0,0.800285,0
6,45,6,8,0,0,1,,2,S,0,S,15,0.009719,0.760438,0.00739
6,46,5,1,0,0,1,,4,S,0,S,11,0.767405,0,0
6,47,2,8,0,0,1,,6,S,0,S,11,0,0.76304,0
6,48,9,1,0,0,1,,8,L,0,S,10,0.760644,0,0
6,49,4,2,0,0,1,,2,S,0,S,14,0.769896,0,0
6,50,4,3,0,0,1,,1,S,0,S,17,0.767088,0.007166,0.005497
6,51,1,6,0,0,1,,5,S,0,S,11,0,0.765384,0
6,52,7,2,0,0,1,,5,S,0,S,12,0.797164,0,0
6,53,4,1,0,0,1,,3,S,0,S,12,0.798415,0,0
6,54,8,4,0,0,1,,4,S,0,S,13,0.779013,0,0
6,55,8,6,0,0,1,,2,S,0,S,15,0.774797,0,0
6,56,9,5,0,0,1,,4,S,0,S,14,0.79902,0,0
6,57,5,8,0,0,1,,3,S,0,S,14,0,0.80004,0
6,58,4,6,0,0,1,,2,S,0,S,15,0,0.794415,0
6,59,1,5,0,0,1,,4,S,0,S,11,0,0.752406,0
6,60,7,6,0,0,1,,1,S,0,S,16,0.78656,0,0
6,61,7,8,0,0,1,,1,S,0,S,18,0.020724,0.754918,0.015645
6,62,6,2,0,0,1,,4,S,0,S,12,0.767648,0,0
6,63,3,4,0,0,1,,1,S,0,S,16,0.007233,0.763065,0.005519
6,64,9,2,0,0,1,,7,L,0,S,11,0.763773,0,0
6,65,2,9,0,0,1,,7,L,0,S,11,0,0.779996,0
6,66,3,6,0,0,1,,3,S,0,S,13,0.003797,0.756537,0.002872
6,67,2,1,0,0,1,,1,S,0,S,13,0.753068,0.005969,0.004495
6,68,1,9,0,0,1,,8,L,0,S,10,0,0.75245,0
6,69,3,8,0,0,1,,5,S,0,S,12,0,0.776579,0
6,70,5,3,0,0,1,,2,S,0,S,15,0.793799,0,0
6,71,3,2,0,0,1,,1,S,0,S,16,0.760231,0.00884,0.00672
6,72,5,4,0,0,1,,1,S,0,S,17,0.772794,0.004643,0.003588
7,1,9,1,0,0,1,,8,L,0,S,11,0.807102,0,0
7,2,5,2,0,0,1,,3,S,0,S,13,0.791749,0,0
7,3,1,9,0,0,1,,8,L,0,S,10,0,0.7742,0
7,4,6,9,0,0,1,,3,S,0,S,13,0,0.767475,0
7,5,9,3,0,0,1,,6,S,0,S,12,0.783011,0,0
7,6,5,4,0,0,1,,1,S,0,S,17,0.766703,0.008677,0.006653
7,7,7,5,0,0,1,,2,S,0,S,15,0.774168,0,0
7,8,7,6,0,0,1,,1,S,0,S,17,0.789732,0,0
7,9,9,5,0,0,1,,4,S,0,S,14,0.794839,0,0
7,10,6,8,0,0,1,,2,S,0,S,15,0.003239,0.770803,0.002497
7,11,8,6,0,0,1,,2,S,0,S,14,0.759843,0.006911,0.005251
7,12,4,7,0,0,1,,3,S,0,S,13,0,0.760876,0
7,13,6,3,0,0,1,,3,S,0,S,13,0.759334,0,0
7,14,2,1,0,0,1,,1,S,0,S,14,0.771001,0,0
7,15,2,8,0,0,1,,6,S,0,S,11,0,0.755236,0
7,16,3,9,0,0,1,,6,S,0,S,11,0,0.75506,0
7,17,4,6,0,0,1,,2,S,0,S,14,0.007908,0.755432,0.005974
7,18,5,8,0,0,1,,3,S,0,S,14,0,0.784132,0
7,19,2,5,0,0,1,,3,S,0,S,13,0,0.789205,0
7,20,4,9,0,0,1,,5,S,0,S,12,0,0.789827,0
7,21,4,1,0,0,1,,3,S,0,S,12,0.767368,0,0
7,22,5,7,0,0,1,,2,S,0,S,15,0,0.777369,0
7,23,3,1,0,0,1,,2,S,0,S,13,0.79689,0,0
7,24,8,5,0,0,1,,3,S,0,S,13,0.750089,0.009583,0.007188
7,25,3,4,0,0,1,,1,S,0,S,16,0.003991,0.770414,0.003074
7,26,1,7,0,0,1,,6,S,0,S,11,0,0.800895,0
7,27,9,8,0,0,1,,1,S,0,S,20,0.767161,0.015686,0.012034
7,28,3,7,0,0,1,,4,S,0,S,13,0,0.796924,0
7,29,2,7,0,0,1,,5,S,0,S,12,0,0.790031,0
7,30,8,3,0,0,1,,5,S,0,S,12,0.785701,0,0
7,31,2,6,0,0,1,,4,S,0,S,12,0,0.761491,0
7,32,9,4,0,0,1,,5,S,0,S,13,0.793243,0,0
7,33,5,6,0,0,1,,1,S,0,S,18,0,0.791698,0
7,34,8,7,0,0,1,,1,S,0,S,16,0.7548,0.015364,0.011597
7,35,1,6,0,0,1,,5,S,0,S,11,0,0.785843,0
7,36,4,8,0,0,1,,4,S,0,S,13,0,0.796119,0
7,37,2,4,0,0,1,,2,S,0,S,14,0,0.793369,0
7,38,8,2,0,0,1,,6,S,0,S,11,0.767657,0,0
7,39,7,1,0,0,1,,6,S,0,S,11,0.791308,0,0
7,40,7,3,0,0,1,,4,S,0,S,12,0.750595,0.001845,0.001385
7,41,4,3,0,0,1,,1,S,0,S,17,0.761228,0.007813,0.005948
7,42,6,2,0,0,1,,4,S,0,S,12,0.767368,0,0
7,43,4,5,0,0,1,,1,S,0,S,16,0,0.791434,0
7,44,6,1,0,0,1,,5,S,0,S,11,0.769636,0,0
7,45,1,2,0,0,1,,1,S,0,S,13,0,0.758608,0
7,46,9,7,0,0,1,,2,S,0,S,17,0.782426,0,0
7,47,5,1,0,0,1,,4,S,0,S,11,0.751206,0,0
7,48,6,5,0,0,1,,1,S,0,S,18,0.771679,0.005242,0.004045
7,49,4,2,0,0,1,,2,S,0,S,14,0.770871,0,0
7,50,8,9,0,0,1,,1,S,0,S,17,0,0.794228,0
7,51,3,8,0,0,1,,5,S,0,S,12,0,0.772892,0
7,52,5,3,0,0,1,,2,S,0,S,14,0.764046,0.000428,0.000327
7,53,2,9,0,0,1,,7,L,0,S,11,0,0.78542,0
7,54,7,9,0,0,1,,2,S,0,S,14,0.004496,0.764343,0.003437
7,55,1,3,0,0,1,,2,S,0,S,12,0,0.761483,0
7,56,3,2,0,0,1,,1,S,0,S,15,0.765746,0.003585,0.002745
7,57,1,8,0,0,1,,7,L,0,S,10,0,0.754862,0
7,58,7,4,0,0,1,,3,S,0,S,14,0.797221,0,0
7,59,1,4,0,0,1,,3,S,0,S,12,0,0.80619,0
7,60,3,5,0,0,1,,2,S,0,S,14,0.002194,0.764778,0.001678
7,61,6,7,0,0,1,,1,S,0,S,17,4.5E-05,0.775486,3.5E-05
7,62,3,6,0,0,1,,3,S,0,S,13,0.00569,0.754766,0.004295
7,63,1,5,0,0,1,,4,S,0,S,11,0,0.772018,0
7,64,8,4,0,0,1,,4,S,0,S,13,0.79725,0,0
7,65,7,2,0,0,1,,5,S,0,S,12,0.798698,0,0
7,66,6,4,0,0,1,,2,S,0,S,15,0.77304,0,0
7,67,9,6,0,0,1,,3,S,0,S,14,0.751212,0.014186,0.010657
7,68,5,9,0,0,1,,4,S,0,S,13,0,0.80219,0
7,69,8,1,0,0,1,,7,L,0,S,11,0.808175,0,0
7,70,9,2,0,0,1,,7,L,0,S,11,0.765701,0,0
7,71,2,3,0,0,1,,1,S,0,S,16,0.002123,0.767029,0.001629
7,72,7,8,0,0,1,,1,S,0,S,18,0.011749,0.769265,0.009038
8,1,4,6,0,0,1,,2,S,0,S,14,0,0.800184,0
8,2,7,1,0,0,1,,6,S,0,S,11,0.78292,0,0
8,3,6,1,0,0,1,,5,S,0,S,11,0.768459,0,0
8,4,8,5,0,0,1,,3,S,0,S,14,0.794746,0,0
8,5,6,9,0,0,1,,3,S,0,S,14,0.005213,0.763629,0.003981
8,6,4,2,0,0,1,,2,S,0,S,14,0.771572,0,0
8,7,2,6,0,0,1,,4,S,0,S,12,0,0.782274,0
8,8,9,6,0,0,1,,3,S,0,S,14,0.757271,0.007716,0.005843
8,9,9,1,0,0,1,,8,L,0,S,11,0.807065,0,0
8,10,7,2,0,0,1,,5,S,0,S,12,0.799812,0,0
8,11,3,7,0,0,1,,4,S,0,S,12,0,0.773147,0
8,12,7,5,0,0,1,,2,S,0,S,15,0.780395,0,0
8,13,7,8,0,0,1,,1,S,0,S,19,0.001042,0.780204,0.000813
8,14,7,6,0,0,1,,1,S,0,S,18,0.75127,0.022443,0.016861
8,15,9,5,0,0,1,,4,S,0,S,13,0.77203,0,0
8,16,2,3,0,0,1,,1,S,0,S,16,0.01658,0.754468,0.012509
8,17,4,3,0,0,1,,1,S,0,S,16,0.758757,0.014387,0.010916
8,18,4,1,0,0,1,,3,S,0,S,12,0.753219,0.001916,0.001443
8,19,5,7,0,0,1,,2,S,0,S,14,0,0.772776,0
8,20,5,3,0,0,1,,2,S,0,S,14,0.785117,0,0
8,21,5,2,0,0,1,,3,S,0,S,13,0.790196,0,0
8,22,3,6,0,0,1,,3,S,0,S,13,0,0.787363,0
8,23,3,2,0,0,1,,1,S,0,S,16,0.791586,0,0
8,24,1,2,0,0,1,,1,S,0,S,14,0,0.771013,0
8,25,8,1,0,0,1,,7,L,0,S,11,0.798912,0,0
8,26,1,6,0,0,1,,5,S,0,S,11,0,0.782311,0
8,27,5,8,0,0,1,,3,S,0,S,14,0,0.776828,0
8,28,9,3,0,0,1,,6,S,0,S,11,0.751214,0,0
8,29,8,4,0,0,1,,4,S,0,S,13,0.787092,0,0
8,30,9,4,0,0,1,,5,S,0,S,12,0.754796,0,0
8,31,7,9,0,0,1,,2,S,0,S,16,0,0.787784,0
8,32,6,3,0,0,1,,3,S,0,S,13,0.793505,0,0
8,33,4,8,0,0,1,,4,S,0,S,13,0,0.801878,0
8,34,4,9,0,0,1,,5,S,0,S,12,0,0.776905,0
8,35,8,2,0,0,1,,6,S,0,S,11,0.764971,0,0
8,36,9,7,0,0,1,,2,S,0,S,17,0.78685,0,0
8,37,1,4,0,0,1,,3,S,0,S,12,0,0.787415,0
8,38,8,9,0,0,1,,1,S,0,S,20,0.005846,0.774,0.004525
8,39,1,9,0,0,1,,8,L,0,S,10,0,0.754472,0
8,40,7,4,0,0,1,,3,S,0,S,14,0.793057,0,0
8,41,1,3,0,0,1,,2,S,0,S,13,0,0.783796,0
8,42,6,7,0,0,1,,1,S,0,S,16,0,0.779225,0
8,43,1,8,0,0,1,,7,L,0,S,11,0,0.802349,0
8,44,3,8,0,0,1,,5,S,0,S,12,0,0.775485,0
8,45,3,1,0,0,1,,2,S,0,S,13,0.768437,0,0
8,46,2,9,0,0,1,,7,L,0,S,11,0,0.77439,0
8,47,7,3,0,0,1,,4,S,0,S,12,0.766412,0,0
8,48,5,9,0,0,1,,4,S,0,S,13,0,0.770461,0
8,49,5,4,0,0,1,,1,S,0,S,18,0.792275,0,0
8,50,6,5,0,0,1,,1,S,0,S,17,0.791201,0,0
8,51,2,7,0,0,1,,5,S,0,S,11,0,0.754001,0
8,52,8,6,0,0,1,,2,S,0,S,15,0.759212,0.009784,0.007428
8,53,6,8,0,0,1,,2,S,0,S,16,0,0.785851,0
8,54,2,5,0,0,1,,3,S,0,S,13,0,0.789341,0
8,55,6,2,0,0,1,,4,S,0,S,12,0.780023,0,0
8,56,2,1,0,0,1,,1,S,0,S,15,0.784936,0,0
8,57,5,1,0,0,1,,4,S,0,S,12,0.794812,0,0
8,58,3,5,0,0,1,,2,S,0,S,14,0,0.77031,0
8,59,9,2,0,0,1,,7,L,0,S,11,0.776629,0,0
8,60,2,8,0,0,1,,6,S,0,S,11,0,0.755901,0
8,61,3,9,0,0,1,,6,S,0,S,12,0,0.798925,0
8,62,1,5,0,0,1,,4,S,0,S,11,0,0.752684,0
8,63,3,4,0,0,1,,1,S,0,S,16,0,0.794458,0
8,64,5,6,0,0,1,,1,S,0,S,16,2.5E-05,0.774173,1.9E-05
8,65,2,4,0,0,1,,2,S,0,S,14,0,0.799559,0
8,66,8,3,0,0,1,,5,S,0,S,12,0.79414,0,0
8,67,9,8,0,0,1,,1,S,0,S,17,0.782249,0,0
8,68,6,4,0,0,1,,2,S,0,S,15,0.793117,0,0
8,69,8,7,0,0,1,,1,S,0,S,19,0.753713,0.020504,0.015454
8,70,4,7,0,0,1,,3,S,0,S,13,0,0.799181,0
8,71,1,7,0,0,1,,6,S,0,S,11,0,0.800978,0
8,72,4,5,0,0,1,,1,S,0,S,15,0.0139,0.753597,0.010475
9,1,1,9,0,0,1,,8,L,0,S,10,0,0.763102,0
9,2,5,3,0,0,1,,2,S,0,S,13,0.752588,0.008127,0.006116
9,3,8,1,0,0,1,,7,L,0,S,11,0.80774,0,0
9,4,1,7,0,0,1,,6,S,0,S,11,0,0.801341,0
9,5,3,4,0,0,1,,1,S,0,S,16,0.010091,0.760466,0.007674
9,6,8,9,0,0,1,,1,S,0,S,17,0.018848,0.75982,0.014321
9,7,9,1,0,0,1,,8,L,0,S,10,0.758387,0,0
9,8,3,6,0,0,1,,3,S,0,S,13,0,0.790803,0
9,9,8,2,0,0,1,,6,S,0,S,11,0.757777,0,0
9,10,9,7,0,0,1,,2,S,0,S,16,0.774379,0.00041,0.000318
9,11,4,7,0,0,1,,3,S,0,S,13,0,0.770273,0
9,12,6,7,0,0,1,,1,S,0,S,18,0,0.791336,0
9,13,7,8,0,0,1,,1,S,0,S,18,0.003719,0.773559,0.002877
9,14,8,5,0,0,1,,3,S,0,S,14,0.780712,0,0
9,15,2,3,0,0,1,,1,S,0,S,16,0,0.782226,0
9,16,9,8,0,0,1,,1,S,0,S,20,0.78167,0,0
9,17,7,2,0,0,1,,5,S,0,S,12,0.804423,0,0
9,18,4,6,0,0,1,,2,S,0,S,14,0,0.787243,0
9,19,2,6,0,0,1,,4,S,0,S,12,0,0.787264,0
9,20,7,1,0,0,1,,6,S,0,S,11,0.801267,0,0
9,21,1,2,0,0,1,,1,S,0,S,14,0,0.789406,0
9,22,4,5,0,0,1,,1,S,0,S,16,0.009657,0.762923,0.007367
9,23,6,8,0,0,1,,2,S,0,S,15,0.00415,0.766042,0.003179
9,24,2,5,0,0,1,,3,S,0,S,13,0,0.792457,0
9,25,7,6,0,0,1,,1,S,0,S,17,0.755872,0.017552,0.013267
9,26,9,4,0,0,1,,5,S,0,S,12,0.770211,0,0
9,27,3,2,0,0,1,,1,S,0,S,16,0.776821,0,0
9,28,5,1,0,0,1,,4,S,0,S,11,0.766379,0,0
9,29,1,6,0,0,1,,5,S,0,S,11,0,0.792087,0
9,30,9,5,0,0,1,,4,S,0,S,13,0.772031,0,0
9,31,6,2,0,0,1,,4,S,0,S,12,0.779979,0,0
9,32,3,8,0,0,1,,5,S,0,S,12,0,0.786576,0
9,33,9,2,0,0,1,,7,L,0,S,11,0.774234,0,0
9,34,4,2,0,0,1,,2,S,0,S,14,0.789184,0,0
9,35,4,3,0,0,1,,1,S,0,S,16,0.787008,0,0
9,36,5,6,0,0,1,,1,S,0,S,17,0,0.781928,0
9,37,7,5,0,0,1,,2,S,0,S,14,0.757833,0.006762,0.005124
9,38,3,1,0,0,1,,2,S,0,S,13,0.793037,0,0
9,39,5,2,0,0,1,,3,S,0,S,12,0.750268,0.000692,0.000519
9,40,4,9,0,0,1,,5,S,0,S,12,0,0.770094,0
9,41,2,9,0,0,1,,7,L,0,S,11,0,0.778935,0
9,42,3,5,0,0,1,,2,S,0,S,14,0,0.771046,0
9,43,3,9,0,0,1,,6,S,0,S,12,0,0.801479,0
9,44,6,4,0,0,1,,2,S,0,S,14,0.782832,0,0
9,45,2,7,0,0,1,,5,S,0,S,12,0,0.803472,0
9,46,5,9,0,0,1,,4,S,0,S,13,0.005819,0.757322,0.004407
9,47,6,5,0,0,1,,1,S,0,S,16,0.765877,0.006199,0.004747
9,48,4,1,0,0,1,,3,S,0,S,12,0.787999,0,0
9,49,2,1,0,0,1,,1,S,0,S,14,0.784177,0,0
9,50,4,8,0,0,1,,4,S,0,S,12,0.002714,0.751782,0.00204
9,51,6,1,0,0,1,,5,S,0,S,11,0.785227,0,0
9,52,8,4,0,0,1,,4,S,0,S,13,0.795692,0,0
9,53,5,4,0,0,1,,1,S,0,S,15,0.763487,0.006973,0.005324
9,54,3,7,0,0,1,,4,S,0,S,12,0,0.760499,0
9,55,8,6,0,0,1,,2,S,0,S,16,0.76033,0.014152,0.010761
9,56,7,4,0,0,1,,3,S,0,S,13,0.78047,0,0
9,57,9,3,0,0,1,,6,S,0,S,12,0.806162,0,0
9,58,1,8,0,0,1,,7,L,0,S,10,0,0.754012,0
9,59,2,8,0,0,1,,6,S,0,S,11,0,0.766729,0
9,60,7,3,0,0,1,,4,S,0,S,12,0.77414,0,0
9,61,2,4,0,0,1,,2,S,0,S,14,0,0.786847,0
9,62,7,9,0,0,1,,2,S,0,S,16,0.019049,0.754476,0.014372
9,63,8,7,0,0,1,,1,S,0,S,20,0.786365,0,0
9,64,6,3,0,0,1,,3,S,0,S,13,0.794185,0,0
9,65,1,3,0,0,1,,2,S,0,S,12,0,0.754743,0
9,66,1,4,0,0,1,,3,S,0,S,12,0,0.792296,0
9,67,5,8,0,0,1,,3,S,0,S,14,0,0.78123,0
9,68,5,7,0,0,1,,2,S,0,S,15,0.00291,0.767005,0.002232
9,69,1,5,0,0,1,,4,S,0,S,11,0,0.763034,0
9,70,8,3,0,0,1,,5,S,0,S,12,0.785811,0,0
9,71,6,9,0,0,1,,3,S,0,S,14,0.012783,0.754736,0.009648
9,72,9,6,0,0,1,,3,S,0,S,15,0.796067,0,0
10,1,6,4,0,0,1,,2,S,0,S,14,0.787586,0,0
10,2,1,9,0,0,1,,8,L,0,S,10,0,0.760921,0
10,3,7,6,0,0,1,,1,S,0,S,16,0.787824,0,0
10,4,1,8,0,0,1,,7,L,0,S,10,0,0.75049,0
10,5,7,8,0,0,1,,1,S,0,S,18,0,0.785421,0
10,6,1,3,0,0,1,,2,S,0,S,13,0,0.795934,0
10,7,8,2,0,0,1,,6,S,0,S,11,0.777144,0,0
10,8,9,7,0,0,1,,2,S,0,S,17,0.783983,0,0
10,9,4,1,0,0,1,,3,S,0,S,12,0.772525,0,0
10,10,3,8,0,0,1,,5,S,0,S,12,0,0.802238,0
10,11,5,6,0,0,1,,1,S,0,S,16,0.012799,0.762371,0.009758
10,12,5,2,0,0,1,,3,S,0,S,13,0.794126,0,0
10,13,5,1,0,0,1,,4,S,0,S,11,0.750152,0,0
10,14,3,5,0,0,1,,2,S,0,S,13,0,0.765007,0
10,15,1,4,0,0,1,,3,S,0,S,12,0,0.776231,0
10,16,3,6,0,0,1,,3,S,0,S,13,0,0.796168,0
10,17,8,3,0,0,1,,5,S,0,S,12,0.799018,0,0
10,18,7,5,0,0,1,,2,S,0,S,15,0.784557,0,0
10,19,5,7,0,0,1,,2,S,0,S,13,0.006021,0.755357,0.004548
10,20,6,5,0,0,1,,1,S,0,S,17,0.759125,0.012291,0.00933
10,21,1,7,0,0,1,,6,S,0,S,11,0,0.807991,0
10,22,8,1,0,0,1,,7,L,0,S,10,0.752938,0,0
10,23,5,3,0,0,1,,2,S,0,S,14,0.764457,0.003948,0.003018
10,24,5,8,0,0,1,,3,S,0,S,13,0,0.766745,0
10,25,9,1,0,0,1,,8,L,0,S,10,0.761757,0,0
10,26,4,8,0,0,1,,4,S,0,S,12,0,0.765687,0
10,27,1,6,0,0,1,,5,S,0,S,11,0,0.7798,0
10,28,2,8,0,0,1,,6,S,0,S,11,0,0.763587,0
10,29,2,1,0,0,1,,1,S,0,S,14,0.790691,0,0
10,30,2,5,0,0,1,,3,S,0,S,13,0,0.796764,0
10,31,3,7,0,0,1,,4,S,0,S,12,0,0.796949,0
10,32,8,4,0,0,1,,4,S,0,S,12,0.767318,0,0
10,33,5,4,0,0,1,,1,S,0,S,16,0.761585,0.010838,0.008254
10,34,6,7,0,0,1,,1,S,0,S,16,0,0.792822,0
10,35,1,2,0,0,1,,1,S,0,S,14,0.008993,0.756106,0.0068
10,36,9,6,0,0,1,,3,S,0,S,13,0.753631,0.009989,0.007528
10,37,4,5,0,0,1,,1,S,0,S,15,0,0.784387,0
10,38,4,6,0,0,1,,2,S,0,S,14,0,0.783928,0
10,39,6,2,0,0,1,,4,S,0,S,12,0.787405,0,0
10,40,1,5,0,0,1,,4,S,0,S,11,0,0.76278,0
10,41,3,9,0,0,1,,6,S,0,S,11,0,0.76153,0
10,42,2,3,0,0,1,,1,S,0,S,16,0.01134,0.762808,0.00865
10,43,7,4,0,0,1,,3,S,0,S,13,0.787817,0,0
10,44,9,2,0,0,1,,7,L,0,S,11,0.788568,0,0
10,45,6,9,0,0,1,,3,S,0,S,14,0,0.769227,0
10,46,4,7,0,0,1,,3,S,0,S,12,0,0.75811,0
10,47,3,4,0,0,1,,1,S,0,S,16,0,0.793831,0
10,48,6,3,0,0,1,,3,S,0,S,13,0.788668,0,0
10,49,9,5,0,0,1,,4,S,0,S,13,0.773677,0,0
10,50,8,7,0,0,1,,1,S,0,S,20,0.792292,0,0
10,51,4,9,0,0,1,,5,S,0,S,12,0,0.786204,0
10,52,7,3,0,0,1,,4,S,0,S,12,0.773321,0,0
10,53,2,9,0,0,1,,7,L,0,S,11,0,0.77806,0
10,54,6,8,0,0,1,,2,S,0,S,15,0.001143,0.769497,0.00088
10,55,8,9,0,0,1,,1,S,0,S,20,0.001669,0.781507,0.001304
10,56,9,3,0,0,1,,6,S,0,S,11,0.756395,0,0
10,57,4,2,0,0,1,,2,S,0,S,14,0.784064,0,0
10,58,8,5,0,0,1,,3,S,0,S,14,0.795954,0,0
10,59,6,1,0,0,1,,5,S,0,S,11,0.780813,0,0
10,60,4,3,0,0,1,,1,S,0,S,17,0.771744,0.00652,0.005031
10,61,2,4,0,0,1,,2,S,0,S,14,0.00572,0.761255,0.004355
10,62,2,6,0,0,1,,4,S,0,S,12,0,0.769755,0
10,63,8,6,0,0,1,,2,S,0,S,14,0.771103,0.000515,0.000397
10,64,2,7,0,0,1,,5,S,0,S,11,0,0.758779,0
10,65,7,9,0,0,1,,2,S,0,S,16,0,0.787116,0
10,66,3,2,0,0,1,,1,S,0,S,16,0.762846,0.008535,0.006511
10,67,5,9,0,0,1,,4,S,0,S,13,0,0.794705,0
10,68,9,4,0,0,1,,5,S,0,S,12,0.785149,0,0
10,69,3,1,0,0,1,,2,S,0,S,13,0.774098,0,0
10,70,7,1,0,0,1,,6,S,0,S,11,0.800077,0,0
10,71,7,2,0,0,1,,5,S,0,S,11,0.757845,0,0
10,72,9,8,0,0,1,,1,S,0,S,18,0.777746,0.002314,0.001799
11,1,8,2,0,0,1,,6,S,0,S,11,0.760752,0,0
11,2,5,6,0,0,1,,1,S,0,S,17,0,0.780833,0
11,3,4,6,0,0,1,,2,S,0,S,14,0.007451,0.760487,0.005666
11,4,6,4,0,0,1,,2,S,0,S,14,0.758827,0.009069,0.006882
11,5,1,3,0,0,1,,2,S,0,S,13,0,0.782826,0
11,6,4,7,0,0,1,,3,S,0,S,13,0,0.777708,0
11,7,7,8,0,0,1,,1,S,0,S,17,0,0.793602,0
11,8,6,7,0,0,1,,1,S,0,S,17,0,0.788093,0
11,9,9,4,0,0,1,,5,S,0,S,12,0.757361,0,0
11,10,1,5,0,0,1,,4,S,0,S,11,0,0.751328,0
11,11,7,5,0,0,1,,2,S,0,S,15,0.778576,0,0
11,12,6,3,0,0,1,,3,S,0,S,13,0.79923,0,0
11,13,8,4,0,0,1,,4,S,0,S,13,0.789309,0,0
11,14,7,1,0,0,1,,6,S,0,S,11,0.790742,0,0
11,15,7,3,0,0,1,,4,S,0,S,12,0.768184,0,0
11,16,1,6,0,0,1,,5,S,0,S,11,0,0.777617,0
11,17,7,2,0,0,1,,5,S,0,S,12,0.796199,0,0
11,18,9,5,0,0,1,,4,S,0,S,13,0.767895,0,0
11,19,5,2,0,0,1,,3,S,0,S,13,0.786708,0,0
11,20,7,6,0,0,1,,1,S,0,S,17,0.775753,0.003214,0.002493
11,21,3,5,0,0,1,,2,S,0,S,14,0.002039,0.760934,0.001551
11,22,8,3,0,0,1,,5,S,0,S,12,0.794146,0,0
11,23,1,7,0,0,1,,6,S,0,S,11,0,0.799184,0
11,24,8,9,0,0,1,,1,S,0,S,19,0.019911,0.758732,0.015107
11,25,6,1,0,0,1,,5,S,0,S,11,0.778973,0,0
11,26,2,8,0,0,1,,6,S,0,S,11,0,0.77287,0
11,27,1,2,0,0,1,,1,S,0,S,14,0,0.788495,0
11,28,1,8,0,0,1,,7,L,0,S,11,0,0.809119,0
11,29,3,9,0,0,1,,6,S,0,S,12,0,0.795398,0
11,30,7,9,0,0,1,,2,S,0,S,16,0,0.78319,0
11,31,2,7,0,0,1,,5,S,0,S,11,0,0.757667,0
11,32,5,9,0,0,1,,4,S,0,S,13,0,0.771167,0
11,33,7,4,0,0,1,,3,S,0,S,14,0.79893,0,0
11,34,1,9,0,0,1,,8,L,0,S,10,0,0.754907,0
11,35,4,3,0,0,1,,1,S,0,S,15,0.752826,0.015934,0.011996
11,36,5,3,0,0,1,,2,S,0,S,14,0.791482,0,0
11,37,3,7,0,0,1,,4,S,0,S,12,0,0.764286,0
11,38,2,4,0,0,1,,2,S,0,S,13,0,0.768566,0
11,39,8,6,0,0,1,,2,S,0,S,15,0.782998,0,0
11,40,6,5,0,0,1,,1,S,0,S,16,0.757899,0.012154,0.009212
11,41,3,1,0,0,1,,2,S,0,S,13,0.786408,0,0
11,42,2,9,0,0,1,,7,L,0,S,11,0,0.780472,0
11,43,8,1,0,0,1,,7,L,0,S,11,0.804923,0,0
11,44,5,4,0,0,1,,1,S,0,S,17,0.765757,0.010376,0.007946
11,45,1,4,0,0,1,,3,S,0,S,12,0,0.79046,0
11,46,4,2,0,0,1,,2,S,0,S,14,0.778893,0,0
11,47,4,8,0,0,1,,4,S,0,S,12,0.001848,0.752351,0.001391
11,48,2,6,0,0,1,,4,S,0,S,12,0,0.783592,0
11,49,4,9,0,0,1,,5,S,0,S,12,0,0.764167,0
11,50,3,4,0,0,1,,1,S,0,S,16,0,0.78845,0
11,51,2,1,0,0,1,,1,S,0,S,15,0.784748,0,0
11,52,4,5,0,0,1,,1,S,0,S,16,0.011707,0.757361,0.008866
11,53,6,8,0,0,1,,2,S,0,S,15,0,0.77812,0
11,54,9,6,0,0,1,,3,S,0,S,14,0.777725,0,0
11,55,5,7,0,0,1,,2,S,0,S,14,0.003623,0.7642,0.002769
11,56,3,8,0,0,1,,5,S,0,S,12,0,0.785673,0
11,57,5,8,0,0,1,,3,S,0,S,13,0.004838,0.755656,0.003656
11,58,9,2,0,0,1,,7,L,0,S,11,0.772715,0,0
11,59,3,6,0,0,1,,3,S,0,S,13,0,0.770515,0
11,60,9,7,0,0,1,,2,S,0,S,16,0.760114,0.011352,0.008629
11,61,9,3,0,0,1,,6,S,0,S,11,0.751096,0,0
11,62,4,1,0,0,1,,3,S,0,S,12,0.775971,0,0
11,63,2,3,0,0,1,,1,S,0,S,16,0,0.791612,0
11,64,5,1,0,0,1,,4,S,0,S,11,0.750315,0,0
11,65,8,5,0,0,1,,3,S,0,S,14,0.788899,0,0
11,66,8,7,0,0,1,,1,S,0,S,19,0.775509,0.005284,0.004097
11,67,3,2,0,0,1,,1,S,0,S,16,0.774551,0.000534,0.000414
11,68,2,5,0,0,1,,3,S,0,S,13,0,0.799126,0
11,69,6,2,0,0,1,,4,S,0,S,12,0.778352,0,0
11,70,6,9,0,0,1,,3,S,0,S,14,0.014553,0.752607,0.010953
11,71,9,1,0,0,1,,8,L,0,S,10,0.752262,0,0
11,72,9,8,0,0,1,,1,S,0,S,20,0.774693,0.003616,0.002802
12,1,3,8,0,0,1,,5,S,0,S,11,0,0.750172,0
12,2,5,3,0,0,1,,2,S,0,S,14,0.759608,0.008109,0.00616
12,3,2,4,0,0,1,,2,S,0,S,13,0.007907,0.751469,0.005942
12,4,7,2,0,0,1,,5,S,0,S,11,0.753002,0,0
12,5,1,9,0,0,1,,8,L,0,S,10,0,0.757155,0
12,6,8,1,0,0,1,,7,L,0,S,11,0.806741,0,0
12,7,1,2,0,0,1,,1,S,0,S,15,0,0.797917,0
12,8,8,5,0,0,1,,3,S,0,S,13,0.757492,0.004988,0.003779
12,9,5,2,0,0,1,,3,S,0,S,13,0.803141,0,0
12,10,6,4,0,0,1,,2,S,0,S,15,0.774877,0,0
12,11,2,8,0,0,1,,6,S,0,S,11,0,0.77274,0
12,12,6,5,0,0,1,,1,S,0,S,18,0.786209,0,0
12,13,8,7,0,0,1,,1,S,0,S,19,0.783558,0,0
12,14,3,5,0,0,1,,2,S,0,S,14,0,0.796202,0
12,15,4,1,0,0,1,,3,S,0,S,12,0.765492,0,0
12,16,1,7,0,0,1,,6,S,0,S,11,0,0.802514,0
12,17,6,1,0,0,1,,5,S,0,S,11,0.76502,0,0
12,18,7,4,0,0,1,,3,S,0,S,13,0.752269,0.008898,0.006694
12,19,2,7,0,0,1,,5,S,0,S,11,0,0.753806,0
12,20,4,6,0,0,1,,2,S,0,S,15,0,0.794927,0
12,21,4,7,0,0,1,,3,S,0,S,13,0,0.789475,0
12,22,3,6,0,0,1,,3,S,0,S,13,0,0.778891,0
12,23,2,1,0,0,1,,1,S,0,S,14,0.752318,0.008557,0.006437
12,24,9,1,0,0,1,,8,L,0,S,10,0.751448,0,0
12,25,4,8,0,0,1,,4,S,0,S,12,0,0.766019,0
12,26,5,4,0,0,1,,1,S,0,S,18,0.790609,0,0
12,27,2,5,0,0,1,,3,S,0,S,13,0,0.792095,0
12,28,5,6,0,0,1,,1,S,0,S,17,0.01873,0.756984,0.014178
12,29,9,3,0,0,1,,6,S,0,S,12,0.801552,0,0
12,30,8,4,0,0,1,,4,S,0,S,13,0.801724,0,0
12,31,4,5,0,0,1,,1,S,0,S,16,0,0.781273,0
12,32,8,2,0,0,1,,6,S,0,S,11,0.77793,0,0
12,33,8,6,0,0,1,,2,S,0,S,14,0.777079,0,0
12,34,9,5,0,0,1,,4,S,0,S,13,0.776989,0,0
12,35,2,3,0,0,1,,1,S,0,S,15,0.01394,0.753177,0.010499
12,36,7,9,0,0,1,,2,S,0,S,15,0.013871,0.753979,0.010458
12,37,5,7,0,0,1,,2,S,0,S,14,0,0.787985,0
12,38,4,2,0,0,1,,2,S,0,S,14,0.798597,0,0
12,39,2,6,0,0,1,,4,S,0,S,12,0,0.763791,0
12,40,1,6,0,0,1,,5,S,0,S,11,0,0.773078,0
12,41,9,7,0,0,1,,2,S,0,S,17,0.787685,0,0
12,42,6,3,0,0,1,,3,S,0,S,13,0.762366,0,0
12,43,6,2,0,0,1,,4,S,0,S,12,0.778928,0,0
12,44,7,5,0,0,1,,2,S,0,S,15,0.78689,0,0
12,45,3,7,0,0,1,,4,S,0,S,12,0,0.78519,0
12,46,5,8,0,0,1,,3,S,0,S,13,0,0.778383,0
12,47,7,1,0,0,1,,6,S,0,S,11,0.788673,0,0
12,48,5,1,0,0,1,,4,S,0,S,12,0.801733,0,0
12,49,3,4,0,0,1,,1,S,0,S,15,0,0.784175,0
12,50,7,3,0,0,1,,4,S,0,S,12,0.756638,0,0
12,51,2,9,0,0,1,,7,L,0,S,11,0,0.775701,0
12,52,6,9,0,0,1,,3,S,0,S,14,0,0.784732,0
12,53,9,4,0,0,1,,5,S,0,S,12,0.762414,0,0
12,54,8,3,0,0,1,,5,S,0,S,12,0.791774,0,0
12,55,9,2,0,0,1,,7,L,0,S,11,0.784692,0,0
12,56,1,5,0,0,1,,4,S,0,S,11,0,0.757355,0
12,57,1,8,0,0,1,,7,L,0,S,10,0,0.755325,0
12,58,4,3,0,0,1,,1,S,0,S,17,0.773019,0.003403,0.00263
12,59,9,8,0,0,1,,1,S,0,S,21,0.785858,0,0
12,60,9,6,0,0,1,,3,S,0,S,13,0.750746,0.009431,0.00708
12,61,1,4,0,0,1,,3,S,0,S,12,0,0.792428,0
12,62,3,2,0,0,1,,1,S,0,S,16,0.79236,0,0
12,63,7,8,0,0,1,,1,S,0,S,16,0.002253,0.774974,0.001746
12,64,8,9,0,0,1,,1,S,0,S,19,0.017631,0.759531,0.013391
12,65,5,9,0,0,1,,4,S,0,S,13,0,0.786663,0
12,66,6,8,0,0,1,,2,S,0,S,14,0,0.771913,0
12,67,1,3,0,0,1,,2,S,0,S,13,0,0.802218,0
12,68,7,6,0,0,1,,1,S,0,S,16,0.778807,0,0
12,69,4,9,0,0,1,,5,S,0,S,12,0,0.771676,0
12,70,3,9,0,0,1,,6,S,0,S,11,0,0.754091,0
12,71,3,1,0,0,1,,2,S,0,S,13,0.765219,0,0
12,72,6,7,0,0,1,,1,S,0,S,15,0.009594,0.758329,0.007276
13,1,8,1,0,0,1,,7,L,0,S,10,0.751707,0,0
13,2,5,7,0,0,1,,2,S,0,S,15,0,0.781365,0
13,3,1,6,0,0,1,,5,S,0,S,11,0,0.794737,0
13,4,3,8,0,0,1,,5,S,0,S,12,0,0.780351,0
13,5,4,3,0,0,1,,1,S,0,S,17,0.770402,0.005915,0.004557
13,6,2,7,0,0,1,,5,S,0,S,11,0,0.752321,0
13,7,8,7,0,0,1,,1,S,0,S,16,0.787416,0,0
13,8,8,9,0,0,1,,1,S,0,S,20,0.014699,0.76663,0.011268
13,9,7,1,0,0,1,,6,S,0,S,11,0.792225,0,0
13,10,1,5,0,0,1,,4,S,0,S,11,0,0.773797,0
13,11,6,8,0,0,1,,2,S,0,S,16,0,0.793277,0
13,12,5,4,0,0,1,,1,S,0,S,18,0.786467,0,0
13,13,5,2,0,0,1,,3,S,0,S,12,0.771869,0,0
13,14,1,9,0,0,1,,8,L,0,S,10,0,0.772057,0
13,15,9,3,0,0,1,,6,S,0,S,12,0.801099,0,0
13,16,2,1,0,0,1,,1,S,0,S,15,0.795708,0,0
13,17,4,5,0,0,1,,1,S,0,S,16,0.010087,0.761442,0.007681
13,18,3,4,0,0,1,,1,S,0,S,15,0,0.78399,0
13,19,4,7,0,0,1,,3,S,0,S,13,0.004826,0.758945,0.003663
13,20,5,8,0,0,1,,3,S,0,S,14,0,0.770639,0
13,21,8,6,0,0,1,,2,S,0,S,14,0.766824,0.003277,0.002513
13,22,3,2,0,0,1,,1,S,0,S,14,0.758699,0.005318,0.004035
13,23,7,9,0,0,1,,2,S,0,S,15,0,0.787064,0
13,24,5,6,0,0,1,,1,S,0,S,17,0.004126,0.77452,0.003196
13,25,9,8,0,0,1,,1,S,0,S,16,0.789494,0,0
13,26,5,1,0,0,1,,4,S,0,S,11,0.753384,0,0
13,27,4,9,0,0,1,,5,S,0,S,12,0,0.774016,0
13,28,3,6,0,0,1,,3,S,0,S,13,0,0.785727,0
13,29,9,4,0,0,1,,5,S,0,S,12,0.76457,0,0
13,30,6,2,0,0,1,,4,S,0,S,12,0.799357,0,0
13,31,7,2,0,0,1,,5,S,0,S,11,0.763342,0,0
13,32,1,3,0,0,1,,2,S,0,S,12,0,0.78095,0
13,33,5,9,0,0,1,,4,S,0,S,13,0,0.783648,0
13,34,3,5,0,0,1,,2,S,0,S,14,0,0.786429,0
13,35,1,2,0,0,1,,1,S,0,S,14,0.000412,0.763484,0.000314
13,36,2,6,0,0,1,,4,S,0,S,12,0,0.787245,0
13,37,8,3,0,0,1,,5,S,0,S,12,0.786304,0,0
13,38,7,8,0,0,1,,1,S,0,S,18,0.024104,0.753926,0.018173
13,39,5,3,0,0,1,,2,S,0,S,14,0.750255,0.012872,0.009657
13,40,7,5,0,0,1,,2,S,0,S,15,0.769238,0.003024,0.002326
13,41,1,4,0,0,1,,3,S,0,S,11,0,0.759086,0
13,42,2,4,0,0,1,,2,S,0,S,13,0,0.778777,0
13,43,2,8,0,0,1,,6,S,0,S,11,0,0.764327,0
13,44,8,5,0,0,1,,3,S,0,S,13,0.75941,0.001627,0.001235
13,45,3,1,0,0,1,,2,S,0,S,13,0.782937,0,0
13,46,1,7,0,0,1,,6,S,0,S,11,0,0.807552,0
13,47,6,7,0,0,1,,1,S,0,S,17,0.008843,0.769989,0.006809
13,48,7,6,0,0,1,,1,S,0,S,17,0.758249,0.019334,0.01466
13,49,2,9,0,0,1,,7,L,0,S,11,0,0.78926,0
13,50,6,1,0,0,1,,5,S,0,S,11,0.77528,0,0
13,51,9,5,0,0,1,,4,S,0,S,13,0.78395,0,0
13,52,4,1,0,0,1,,3,S,0,S,12,0.781846,0,0
13,53,9,1,0,0,1,,8,L,0,S,10,0.760146,0,0
13,54,4,2,0,0,1,,2,S,0,S,13,0.786233,0,0
13,55,9,7,0,0,1,,2,S,0,S,15,0.790579,0,0
13,56,6,4,0,0,1,,2,S,0,S,15,0.772106,0.001696,0.00131
13,57,3,9,0,0,1,,6,S,0,S,11,0,0.755499,0
13,58,6,9,0,0,1,,3,S,0,S,14,0,0.792083,0
13,59,1,8,0,0,1,,7,L,0,S,10,0,0.75488,0
13,60,9,2,0,0,1,,7,L,0,S,11,0.798812,0,0
13,61,2,5,0,0,1,,3,S,0,S,12,0.00033,0.753513,0.000249
13,62,4,8,0,0,1,,4,S,0,S,13,0,0.782896,0
13,63,8,2,0,0,1,,6,S,0,S,11,0.78953,0,0
13,64,4,6,0,0,1,,2,S,0,S,14,0.010041,0.758127,0.007612
13,65,7,4,0,0,1,,3,S,0,S,14,0.785385,0,0
13,66,2,3,0,0,1,,1,S,0,S,14,0.010573,0.754168,0.007974
13,67,6,3,0,0,1,,3,S,0,S,13,0.757516,0.004254,0.003222
13,68,6,5,0,0,1,,1,S,0,S,17,0.75694,0.015709,0.011891
13,69,3,7,0,0,1,,4,S,0,S,12,0,0.764127,0
13,70,9,6,0,0,1,,3,S,0,S,14,0.799346,0,0
13,71,8,4,0,0,1,,4,S,0,S,13,0.798468,0,0
13,72,7,3,0,0,1,,4,S,0,S,13,0.795543,0,0
14,1,7,6,0,0,1,,1,S,0,S,18,0.783981,0,0
14,2,2,6,0,0,1,,4,S,0,S,12,0,0.779622,0
14,3,9,5,0,0,1,,4,S,0,S,14,0.796596,0,0
14,4,4,8,0,0,1,,4,S,0,S,13,0,0.77506,0
14,5,1,5,0,0,1,,4,S,0,S,11,0,0.766826,0
14,6,3,5,0,0,1,,2,S,0,S,14,0.006887,0.758638,0.005225
14,7,1,6,0,0,1,,5,S,0,S,11,0,0.78547,0
14,8,1,3,0,0,1,,2,S,0,S,13,0,0.796321,0
14,9,5,3,0,0,1,,2,S,0,S,14,0.771349,0,0
14,10,2,8,0,0,1,,6,S,0,S,11,0,0.757529,0
14,11,3,4,0,0,1,,1,S,0,S,17,0.018515,0.75297,0.013941
14,12,6,2,0,0,1,,4,S,0,S,12,0.775793,0,0
14,13,4,7,0,0,1,,3,S,0,S,13,0.007948,0.751581,0.005973
14,14,2,7,0,0,1,,5,S,0,S,12,0,0.803101,0
14,15,8,1,0,0,1,,7,L,0,S,11,0.808046,0,0
14,16,2,3,0,0,1,,1,S,0,S,16,0.010953,0.763257,0.00836
14,17,3,9,0,0,1,,6,S,0,S,12,0,0.793833,0
14,18,2,9,0,0,1,,7,L,0,S,11,0,0.781556,0
14,19,4,1,0,0,1,,3,S,0,S,12,0.785645,0,0
14,20,4,9,0,0,1,,5,S,0,S,12,0,0.763127,0
14,21,7,8,0,0,1,,1,S,0,S,18,0,0.786103,0
14,22,3,6,0,0,1,,3,S,0,S,13,0.003733,0.759047,0.002833
14,23,1,9,0,0,1,,8,L,0,S,10,0,0.762852,0
14,24,1,4,0,0,1,,3,S,0,S,12,0,0.790912,0
14,25,3,8,0,0,1,,5,S,0,S,12,0,0.760919,0
14,26,3,2,0,0,1,,1,S,0,S,15,0.785258,0,0
14,27,9,4,0,0,1,,5,S,0,S,12,0.751674,0.004195,0.003153
14,28,1,7,0,0,1,,6,S,0,S,11,0,0.799406,0
14,29,7,2,0,0,1,,5,S,0,S,12,0.796845,0,0
14,30,3,7,0,0,1,,4,S,0,S,13,0,0.797021,0
14,31,4,2,0,0,1,,2,S,0,S,13,0.753823,0.004881,0.00368
14,32,1,2,0,0,1,,1,S,0,S,14,0,0.780703,0
14,33,9,2,0,0,1,,7,L,0,S,11,0.7694,0,0
14,34,6,1,0,0,1,,5,S,0,S,11,0.775382,0,0
14,35,7,4,0,0,1,,3,S,0,S,13,0.751495,0.009006,0.006768
14,36,5,2,0,0,1,,3,S,0,S,13,0.785971,0,0
14,37,6,9,0,0,1,,3,S,0,S,14,0,0.782212,0
14,38,9,8,0,0,1,,1,S,0,S,20,0.775722,0.005973,0.004634
14,39,9,1,0,0,1,,8,L,0,S,11,0.810011,0,0
14,40,2,4,0,0,1,,2,S,0,S,14,0,0.791932,0
14,41,7,1,0,0,1,,6,S,0,S,11,0.790062,0,0
14,42,2,1,0,0,1,,1,S,0,S,14,0.775142,0,0
14,43,7,9,0,0,1,,2,S,0,S,15,0,0.780017,0
14,44,7,5,0,0,1,,2,S,0,S,15,0.756016,0.013651,0.01032
14,45,5,4,0,0,1,,1,S,0,S,17,0.762317,0.013167,0.010038
14,46,8,2,0,0,1,,6,S,0,S,11,0.767174,0,0
14,47,6,7,0,0,1,,1,S,0,S,17,0,0.778679,0
14,48,8,9,0,0,1,,1,S,0,S,19,0,0.78423,0
14,49,8,7,0,0,1,,1,S,0,S,17,0.771759,0.004587,0.00354
14,50,4,5,0,0,1,,1,S,0,S,16,0.016332,0.7546,0.012324
14,51,9,7,0,0,1,,2,S,0,S,17,0.773127,0.00561,0.004338
14,52,9,3,0,0,1,,6,S,0,S,12,0.796917,0,0
14,53,5,7,0,0,1,,2,S,0,S,14,0.002054,0.766627,0.001575
14,54,1,8,0,0,1,,7,L,0,S,11,0,0.806228,0
14,55,5,8,0,0,1,,3,S,0,S,14,0,0.796058,0
14,56,6,8,0,0,1,,2,S,0,S,16,0,0.795548,0
14,57,4,6,0,0,1,,2,S,0,S,15,0,0.794171,0
14,58,5,9,0,0,1,,4,S,0,S,13,0,0.795028,0
14,59,8,6,0,0,1,,2,S,0,S,15,0.79331,0,0
14,60,5,6,0,0,1,,1,S,0,S,16,0,0.782306,0
14,61,6,5,0,0,1,,1,S,0,S,18,0.793104,0,0
14,62,3,1,0,0,1,,2,S,0,S,12,0.750553,0.002858,0.002145
14,63,5,1,0,0,1,,4,S,0,S,12,0.804679,0,0
14,64,4,3,0,0,1,,1,S,0,S,15,0.766928,0.003766,0.002889
14,65,8,5,0,0,1,,3,S,0,S,14,0.793872,0,0
14,66,8,4,0,0,1,,4,S,0,S,13,0.802581,0,0
14,67,6,3,0,0,1,,3,S,0,S,13,0.784605,0,0
14,68,7,3,0,0,1,,4,S,0,S,12,0.759412,0,0
14,69,2,5,0,0,1,,3,S,0,S,13,0,0.802962,0
14,70,8,3,0,0,1,,5,S,0,S,12,0.794502,0,0
14,71,6,4,0,0,1,,2,S,0,S,14,0.757015,0.008771,0.00664
14,72,9,6,0,0,1,,3,S,0,S,15,0.79586,0,0
15,1,7,4,0,0,1,,3,S,0,S,14,0.773074,0,0
15,2,5,8,0,0,1,,3,S,0,S,14,0,0.787645,0
15,3,2,8,0,0,1,,6,S,0,S,11,0,0.761332,0
15,4,1,6,0,0,1,,5,S,0,S,11,0,0.774842,0
15,5,7,6,0,0,1,,1,S,0,S,17,0.769995,0.005533,0.004261
15,6,8,3,0,0,1,,5,S,0,S,12,0.78666,0,0
15,7,4,8,0,0,1,,4,S,0,S,12,0.004962,0.751226,0.003727
15,8,1,2,0,0,1,,1,S,0,S,14,0,0.791652,0
15,9,4,1,0,0,1,,3,S,0,S,12,0.757393,0,0
15,10,9,3,0,0,1,,6,S,0,S,12,0.798591,0,0
15,11,4,7,0,0,1,,3,S,0,S,13,0,0.773715,0
15,12,8,6,0,0,1,,2,S,0,S,15,0.797685,0,0
15,13,6,7,0,0,1,,1,S,0,S,17,0.014265,0.763639,0.010893
15,14,1,7,0,0,1,,6,S,0,S,11,0,0.795739,0
15,15,5,9,0,0,1,,4,S,0,S,13,0,0.784399,0
15,16,7,9,0,0,1,,2,S,0,S,15,0,0.779644,0
15,17,8,2,0,0,1,,6,S,0,S,11,0.765806,0,0
15,18,3,8,0,0,1,,5,S,0,S,12,0,0.786541,0
15,19,1,9,0,0,1,,8,L,0,S,10,0,0.761492,0
15,20,5,6,0,0,1,,1,S,0,S,18,0,0.7894,0
15,21,4,9,0,0,1,,5,S,0,S,12,0,0.782908,0
15,22,2,3,0,0,1,,1,S,0,S,15,0.014445,0.754232,0.010895
15,23,4,2,0,0,1,,2,S,0,S,14,0.769539,0.000512,0.000394
15,24,3,6,0,0,1,,3,S,0,S,13,0,0.772301,0
15,25,4,3,0,0,1,,1,S,0,S,17,0.760145,0.014981,0.011387
15,26,4,5,0,0,1,,1,S,0,S,16,0,0.784891,0
15,27,8,7,0,0,1,,1,S,0,S,17,0.786946,0,0
15,28,2,4,0,0,1,,2,S,0,S,13,0,0.763853,0
15,29,9,1,0,0,1,,8,L,0,S,11,0.80723,0,0
15,30,3,9,0,0,1,,6,S,0,S,11,0,0.754333,0
15,31,8,4,0,0,1,,4,S,0,S,13,0.781204,0,0
15,32,9,2,0,0,1,,7,L,0,S,11,0.77488,0,0
15,33,2,1,0,0,1,,1,S,0,S,15,0.787085,0,0
15,34,1,8,0,0,1,,7,L,0,S,11,0,0.807733,0
15,35,8,5,0,0,1,,3,S,0,S,13,0.755706,0.006836,0.005166
15,36,5,3,0,0,1,,2,S,0,S,14,0.770937,0,0
15,37,1,4,0,0,1,,3,S,0,S,12,0,0.79839,0
15,38,6,5,0,0,1,,1,S,0,S,16,0.754022,0.018938,0.01428
15,39,1,5,0,0,1,,4,S,0,S,11,0,0.756397,0
15,40,3,1,0,0,1,,2,S,0,S,13,0.774984,0,0
15,41,2,9,0,0,1,,7,L,0,S,11,0,0.781557,0
15,42,4,6,0,0,1,,2,S,0,S,14,0.002823,0.764839,0.002159
15,43,9,5,0,0,1,,4,S,0,S,13,0.778735,0,0
15,44,6,1,0,0,1,,5,S,0,S,11,0.768539,0,0
15,45,9,7,0,0,1,,2,S,0,S,15,0.75907,0.010379,0.007878
15,46,2,6,0,0,1,,4,S,0,S,12,0,0.767623,0
15,47,7,2,0,0,1,,5,S,0,S,12,0.794537,0,0
15,48,3,7,0,0,1,,4,S,0,S,12,0,0.762009,0
15,49,2,7,0,0,1,,5,S,0,S,12,0,0.799524,0
15,50,8,9,0,0,1,,1,S,0,S,18,0.003339,0.780298,0.002606
15,51,8,1,0,0,1,,7,L,0,S,11,0.801679,0,0
15,52,5,2,0,0,1,,3,S,0,S,13,0.792894,0,0
15,53,5,1,0,0,1,,4,S,0,S,12,0.800571,0,0
15,54,3,5,0,0,1,,2,S,0,S,14,0,0.77611,0
15,55,6,9,0,0,1,,3,S,0,S,14,0,0.789501,0
15,56,7,1,0,0,1,,6,S,0,S,11,0.781141,0,0
15,57,7,3,0,0,1,,4,S,0,S,13,0.802449,0,0
15,58,9,6,0,0,1,,3,S,0,S,14,0.782849,0,0
15,59,6,8,0,0,1,,2,S,0,S,15,0.007954,0.767161,0.006102
15,60,7,5,0,0,1,,2,S,0,S,15,0.782266,0,0
15,61,5,4,0,0,1,,1,S,0,S,18,0.766285,0.010361,0.007939
15,62,9,8,0,0,1,,1,S,0,S,17,0.761092,0.014126,0.010751
15,63,2,5,0,0,1,,3,S,0,S,13,0,0.790118,0
15,64,6,2,0,0,1,,4,S,0,S,12,0.77615,0,0
15,65,1,3,0,0,1,,2,S,0,S,12,0.002865,0.750346,0.00215
15,66,3,4,0,0,1,,1,S,0,S,15,0,0.781198,0
15,67,7,8,0,0,1,,1,S,0,S,17,0.020745,0.753853,0.015638
15,68,5,7,0,0,1,,2,S,0,S,15,0,0.783552,0
15,69,6,3,0,0,1,,3,S,0,S,13,0.775848,0,0
15,70,6,4,0,0,1,,2,S,0,S,15,0.769399,0.003821,0.00294
15,71,3,2,0,0,1,,1,S,0,S,16,0.783376,0,0
15,72,9,4,0,0,1,,5,S,0,S,13,0.799731,0,0
16,1,3,8,0,0,1,,5,S,0,S,12,0,0.796851,0
16,2,4,1,0,0,1,,3,S,0,S,12,0.773745,0,0
16,3,3,4,0,0,1,,1,S,0,S,17,0,0.790228,0
16,4,7,2,0,0,1,,5,S,0,S,12,0.788364,0,0
16,5,4,5,0,0,1,,1,S,0,S,17,0.005068,0.774859,0.003927
16,6,8,1,0,0,1,,7,L,0,S,11,0.801548,0,0
16,7,2,9,0,0,1,,7,L,0,S,11,0,0.766471,0
16,8,5,1,0,0,1,,4,S,0,S,12,0.797488,0,0
16,9,9,8,0,0,1,,1,S,0,S,21,0.781595,0.000521,0.000407
16,10,4,9,0,0,1,,5,S,0,S,12,0,0.764631,0
16,11,5,4,0,0,1,,1,S,0,S,17,0.790944,0,0
16,12,3,6,0,0,1,,3,S,0,S,13,0,0.7672,0
16,13,3,1,0,0,1,,2,S,0,S,13,0.787498,0,0
16,14,2,8,0,0,1,,6,S,0,S,11,0,0.766593,0
16,15,9,4,0,0,1,,5,S,0,S,12,0.775129,0,0
16,16,5,9,0,0,1,,4,S,0,S,13,0,0.778435,0
16,17,7,8,0,0,1,,1,S,0,S,15,0.005685,0.765725,0.004353
16,18,5,8,0,0,1,,3,S,0,S,13,0,0.777327,0
16,19,9,2,0,0,1,,7,L,0,S,11,0.776967,0,0
16,20,5,7,0,0,1,,2,S,0,S,14,0.003507,0.762539,0.002674
16,21,6,7,0,0,1,,1,S,0,S,16,0,0.796312,0
16,22,4,8,0,0,1,,4,S,0,S,12,0,0.764037,0
16,23,4,6,0,0,1,,2,S,0,S,14,0.013856,0.752491,0.010427
16,24,1,7,0,0,1,,6,S,0,S,11,0,0.7873,0
16,25,6,5,0,0,1,,1,S,0,S,17,0.757608,0.017687,0.0134
16,26,9,1,0,0,1,,8,L,0,S,10,0.752165,0,0
16,27,4,3,0,0,1,,1,S,0,S,17,0.784211,0,0
16,28,1,6,0,0,1,,5,S,0,S,11,0,0.765009,0
16,29,9,5,0,0,1,,4,S,0,S,13,0.793971,0,0
16,30,1,3,0,0,1,,2,S,0,S,13,0,0.784746,0
16,31,6,4,0,0,1,,2,S,0,S,15,0.785444,0,0
16,32,8,9,0,0,1,,1,S,0,S,19,0.007442,0.769756,0.005729
16,33,2,7,0,0,1,,5,S,0,S,12,0,0.794151,0
16,34,1,5,0,0,1,,4,S,0,S,12,0,0.79652,0
16,35,3,7,0,0,1,,4,S,0,S,12,0,0.759866,0
16,36,7,9,0,0,1,,2,S,0,S,15,0.000682,0.770398,0.000526
16,37,2,3,0,0,1,,1,S,0,S,16,0,0.782783,0
16,38,2,1,0,0,1,,1,S,0,S,14,0.762742,0.001743,0.00133
16,39,9,6,0,0,1,,3,S,0,S,14,0.791141,0,0
16,40,6,2,0,0,1,,4,S,0,S,12,0.757614,0,0
16,41,7,3,0,0,1,,4,S,0,S,13,0.789137,0,0
16,42,1,9,0,0,1,,8,L,0,S,11,0,0.806328,0
16,43,8,5,0,0,1,,3,S,0,S,13,0.761183,0.002101,0.001599
16,44,5,2,0,0,1,,3,S,0,S,13,0.779008,0,0
16,45,7,1,0,0,1,,6,S,0,S,11,0.781251,0,0
16,46,9,7,0,0,1,,2,S,0,S,16,0.794052,0,0
16,47,2,6,0,0,1,,4,S,0,S,12,0,0.760484,0
16,48,4,7,0,0,1,,3,S,0,S,13,0,0.769588,0
16,49,9,3,0,0,1,,6,S,0,S,12,0.797605,0,0
16,50,7,5,0,0,1,,2,S,0,S,15,0.785195,0,0
16,51,1,4,0,0,1,,3,S,0,S,12,0,0.76744,0
16,52,8,7,0,0,1,,1,S,0,S,18,0.775368,0.002562,0.001986
16,53,2,5,0,0,1,,3,S,0,S,13,0,0.77195,0
16,54,5,6,0,0,1,,1,S,0,S,17,0,0.790893,0
16,55,8,4,0,0,1,,4,S,0,S,13,0.803337,0,0
16,56,8,6,0,0,1,,2,S,0,S,15,0.7899,0,0
16,57,3,2,0,0,1,,1,S,0,S,16,0.79241,0,0
16,58,4,2,0,0,1,,2,S,0,S,14,0.785263,0,0
16,59,6,1,0,0,1,,5,S,0,S,11,0.760924,0,0
16,60,2,4,0,0,1,,2,S,0,S,14,0,0.768031,0
16,61,1,8,0,0,1,,7,L,0,S,11,0,0.806814,0
16,62,7,6,0,0,1,,1,S,0,S,18,0.778723,0.00109,0.000849
16,63,6,9,0,0,1,,3,S,0,S,14,0,0.793628,0
16,64,3,5,0,0,1,,2,S,0,S,14,0.013799,0.753217,0.010394
16,65,5,3,0,0,1,,2,S,0,S,15,0.788599,0,0
16,66,6,3,0,0,1,,3,S,0,S,14,0.793441,0,0
16,67,3,9,0,0,1,,6,S,0,S,12,0,0.796963,0
16,68,1,2,0,0,1,,1,S,0,S,14,0.003686,0.761068,0.002805
16,69,8,2,0,0,1,,6,S,0,S,11,0.76115,0,0
16,70,6,8,0,0,1,,2,S,0,S,14,0,0.791715,0
16,71,8,3,0,0,1,,5,S,0,S,12,0.777076,0,0
16,72,7,4,0,0,1,,3,S,0,S,13,0.75099,0.009603,0.007212
17,1,8,2,0,0,1,,6,S,0,S,11,0.777209,0,0
17,2,3,5,0,0,1,,2,S,0,S,15,0,0.791649,0
17,3,3,7,0,0,1,,4,S,0,S,12,0,0.75781,0
17,4,8,4,0,0,1,,4,S,0,S,13,0.79982,0,0
17,5,8,5,0,0,1,,3,S,0,S,13,0.792145,0,0
17,6,5,6,0,0,1,,1,S,0,S,17,0.004669,0.773638,0.003612
17,7,6,5,0,0,1,,1,S,0,S,16,0.786913,0,0
17,8,5,7,0,0,1,,2,S,0,S,15,0.003623,0.76874,0.002785
17,9,8,3,0,0,1,,5,S,0,S,12,0.804056,0,0
17,10,1,3,0,0,1,,2,S,0,S,13,0,0.799027,0
17,11,9,8,0,0,1,,1,S,0,S,20,0.770455,0.012533,0.009656
17,12,2,7,0,0,1,,5,S,0,S,12,0,0.803614,0
17,13,5,4,0,0,1,,1,S,0,S,17,0.757448,0.01664,0.012604
17,14,2,8,0,0,1,,6,S,0,S,11,0,0.764452,0
17,15,4,7,0,0,1,,3,S,0,S,13,0,0.772873,0
17,16,8,6,0,0,1,,2,S,0,S,14,0.76238,0.006372,0.004858
17,17,4,2,0,0,1,,2,S,0,S,14,0.777191,0,0
17,18,7,4,0,0,1,,3,S,0,S,14,0.779078,0,0
17,19,6,4,0,0,1,,2,S,0,S,15,0.760344,0.009245,0.007029
17,20,6,9,0,0,1,,3,S,0,S,13,0.005957,0.753915,0.004491
17,21,3,1,0,0,1,,2,S,0,S,13,0.776385,0,0
17,22,3,8,0,0,1,,5,S,0,S,12,0,0.78214,0
17,23,6,8,0,0,1,,2,S,0,S,15,0.006126,0.765132,0.004687
17,24,1,7,0,0,1,,6,S,0,S,11,0,0.794943,0
17,25,9,5,0,0,1,,4,S,0,S,13,0.781112,0,0
17,26,5,2,0,0,1,,3,S,0,S,12,0.750759,0.003326,0.002497
17,27,9,7,0,0,1,,2,S,0,S,16,0.756418,0.017722,0.013405
17,28,6,7,0,0,1,,1,S,0,S,17,0.008656,0.766672,0.006636
17,29,5,3,0,0,1,,2,S,0,S,14,0.792877,0,0
17,30,7,3,0,0,1,,4,S,0,S,12,0.759906,0,0
17,31,3,6,0,0,1,,3,S,0,S,13,0,0.784071,0
17,32,3,9,0,0,1,,6,S,0,S,11,0,0.757995,0
17,33,7,1,0,0,1,,6,S,0,S,11,0.783215,0,0
17,34,6,3,0,0,1,,3,S,0,S,13,0.778212,0,0
17,35,9,6,0,0,1,,3,S,0,S,15,0.789423,0,0
17,36,4,5,0,0,1,,1,S,0,S,17,0,0.782463,0
17,37,8,1,0,0,1,,7,L,0,S,11,0.807547,0,0
17,38,9,2,0,0,1,,7,L,0,S,11,0.772339,0,0
17,39,4,6,0,0,1,,2,S,0,S,14,0,0.786842,0
17,40,6,2,0,0,1,,4,S,0,S,12,0.77469,0,0
17,41,2,5,0,0,1,,3,S,0,S,13,0,0.781408,0
17,42,5,9,0,0,1,,4,S,0,S,13,0,0.789658,0
17,43,8,7,0,0,1,,1,S,0,S,16,0.792943,0,0
17,44,2,3,0,0,1,,1,S,0,S,15,0.016539,0.75525,0.012491
17,45,9,1,0,0,1,,8,L,0,S,11,0.80445,0,0
17,46,7,5,0,0,1,,2,S,0,S,14,0.766111,0.00313,0.002398
17,47,6,1,0,0,1,,5,S,0,S,11,0.763888,0,0
17,48,2,1,0,0,1,,1,S,0,S,15,0.784079,0,0
17,49,1,2,0,0,1,,1,S,0,S,14,0,0.774397,0
17,50,2,4,0,0,1,,2,S,0,S,13,0,0.772799,0
17,51,9,4,0,0,1,,5,S,0,S,13,0.789558,0,0
17,52,4,8,0,0,1,,4,S,0,S,13,0,0.803118,0
17,53,4,3,0,0,1,,1,S,0,S,17,0.785066,0,0
17,54,1,4,0,0,1,,3,S,0,S,12,0,0.798897,0
17,55,7,2,0,0,1,,5,S,0,S,12,0.800461,0,0
17,56,7,9,0,0,1,,2,S,0,S,14,0.007817,0.759261,0.005935
17,57,1,5,0,0,1,,4,S,0,S,12,0,0.803549,0
17,58,5,8,0,0,1,,3,S,0,S,14,0,0.776082,0
17,59,7,6,0,0,1,,1,S,0,S,18,0.768399,0.011138,0.008558
17,60,8,9,0,0,1,,1,S,0,S,18,0.015759,0.760408,0.011983
17,61,5,1,0,0,1,,4,S,0,S,12,0.804154,0,0
17,62,3,2,0,0,1,,1,S,0,S,15,0.759326,0.011313,0.00859
17,63,3,4,0,0,1,,1,S,0,S,15,0,0.775512,0
17,64,4,9,0,0,1,,5,S,0,S,12,0,0.790209,0
17,65,2,9,0,0,1,,7,L,0,S,11,0,0.789887,0
17,66,9,3,0,0,1,,6,S,0,S,12,0.797688,0,0
17,67,2,6,0,0,1,,4,S,0,S,12,0,0.784668,0
17,68,1,9,0,0,1,,8,L,0,S,10,0,0.764346,0
17,69,1,6,0,0,1,,5,S,0,S,11,0,0.782327,0
17,70,7,8,0,0,1,,1,S,0,S,17,0.019638,0.755616,0.014839
17,71,4,1,0,0,1,,3,S,0,S,12,0.755695,0,0
17,72,1,8,0,0,1,,7,L,0,S,11,0,0.806538,0
18,1,5,6,0,0,1,,1,S,0,S,15,0.001142,0.771392,0.000881
18,2,2,6,0,0,1,,4,S,0,S,12,0,0.786762,0
18,3,1,4,0,0,1,,3,S,0,S,12,0,0.794255,0
18,4,7,1,0,0,1,,6,S,0,S,11,0.790849,0,0
18,5,9,1,0,0,1,,8,L,0,S,10,0.754395,0,0
18,6,5,7,0,0,1,,2,S,0,S,14,0,0.795243,0
18,7,1,9,0,0,1,,8,L,0,S,10,0,0.77799,0
18,8,4,8,0,0,1,,4,S,0,S,13,0,0.787059,0
18,9,7,6,0,0,1,,1,S,0,S,18,0.79353,0,0
18,10,8,4,0,0,1,,4,S,0,S,12,0.76232,0,0
18,11,9,5,0,0,1,,4,S,0,S,13,0.779527,0,0
18,12,5,9,0,0,1,,4,S,0,S,12,0,0.770567,0
18,13,6,4,0,0,1,,2,S,0,S,14,0.769484,0,0
18,14,5,1,0,0,1,,4,S,0,S,12,0.789597,0,0
18,15,3,9,0,0,1,,6,S,0,S,11,0,0.765254,0
18,16,2,3,0,0,1,,1,S,0,S,15,0.01183,0.756515,0.00895
18,17,6,7,0,0,1,,1,S,0,S,16,0,0.794347,0
18,18,8,2,0,0,1,,6,S,0,S,11,0.788841,0,0
18,19,9,4,0,0,1,,5,S,0,S,12,0.780519,0,0
18,20,3,8,0,0,1,,5,S,0,S,12,0,0.781318,0
18,21,4,9,0,0,1,,5,S,0,S,12,0,0.788422,0
18,22,6,2,0,0,1,,4,S,0,S,12,0.799824,0,0
18,23,3,7,0,0,1,,4,S,0,S,12,0,0.771077,0
18,24,9,8,0,0,1,,1,S,0,S,17,0.771279,0.006464,0.004985
18,25,8,5,0,0,1,,3,S,0,S,13,0.752021,0.008194,0.006162
18,26,4,6,0,0,1,,2,S,0,S,14,0.003671,0.765993,0.002812
18,27,7,9,0,0,1,,2,S,0,S,14,0.002339,0.767586,0.001795
18,28,8,7,0,0,1,,1,S,0,S,19,0.790096,0,0
18,29,4,5,0,0,1,,1,S,0,S,17,0,0.788691,0
18,30,6,1,0,0,1,,5,S,0,S,11,0.768114,0,0
18,31,1,5,0,0,1,,4,S,0,S,11,0,0.772336,0
18,32,7,5,0,0,1,,2,S,0,S,15,0.789044,0,0
18,33,5,3,0,0,1,,2,S,0,S,15,0.78243,0,0
18,34,9,2,0,0,1,,7,L,0,S,11,0.79846,0,0
18,35,7,4,0,0,1,,3,S,0,S,13,0.778593,0,0
18,36,8,3,0,0,1,,5,S,0,S,12,0.790984,0,0
18,37,3,2,0,0,1,,1,S,0,S,14,0.777097,0,0
18,38,6,9,0,0,1,,3,S,0,S,13,0,0.775668,0
18,39,2,9,0,0,1,,7,L,0,S,11,0,0.79521,0
18,40,8,1,0,0,1,,7,L,0,S,11,0.806327,0,0
18,41,4,1,0,0,1,,3,S,0,S,12,0.778155,0,0
18,42,4,3,0,0,1,,1,S,0,S,16,0.786807,0,0
18,43,2,8,0,0,1,,6,S,0,S,11,0,0.763282,0
18,44,6,8,0,0,1,,2,S,0,S,15,0,0.776251,0
18,45,7,2,0,0,1,,5,S,0,S,11,0.769562,0,0
18,46,8,9,0,0,1,,1,S,0,S,16,0.001071,0.776679,0.000832
18,47,3,4,0,0,1,,1,S,0,S,17,0.006261,0.768963,0.004814
18,48,7,8,0,0,1,,1,S,0,S,18,0.014145,0.763364,0.010798
18,49,6,5,0,0,1,,1,S,0,S,18,0.792931,0,0
18,50,2,1,0,0,1,,1,S,0,S,15,0.789778,0,0
18,51,3,6,0,0,1,,3,S,0,S,13,0,0.78781,0
18,52,9,3,0,0,1,,6,S,0,S,12,0.805539,0,0
18,53,6,3,0,0,1,,3,S,0,S,13,0.769797,0,0
18,54,1,3,0,0,1,,2,S,0,S,12,0,0.768865,0
18,55,2,7,0,0,1,,5,S,0,S,11,0,0.755307,0
18,56,1,6,0,0,1,,5,S,0,S,11,0,0.796542,0
18,57,4,2,0,0,1,,2,S,0,S,13,0.795186,0,0
18,58,9,7,0,0,1,,2,S,0,S,16,0.760479,0.011677,0.00888
18,59,5,2,0,0,1,,3,S,0,S,12,0.756802,0,0
18,60,1,8,0,0,1,,7,L,0,S,10,0,0.756052,0
18,61,3,1,0,0,1,,2,S,0,S,13,0.780291,0,0
18,62,2,5,0,0,1,,3,S,0,S,13,0,0.798462,0
18,63,1,7,0,0,1,,6,S,0,S,10,0,0.750559,0
18,64,5,8,0,0,1,,3,S,0,S,13,0.000496,0.761145,0.000378
18,65,4,7,0,0,1,,3,S,0,S,13,0,0.773152,0
18,66,7,3,0,0,1,,4,S,0,S,12,0.761094,0,0
18,67,9,6,0,0,1,,3,S,0,S,14,0.774654,0,0
18,68,3,5,0,0,1,,2,S,0,S,14,0,0.775874,0
18,69,1,2,0,0,1,,1,S,0,S,14,0.004273,0.758792,0.003242
18,70,5,4,0,0,1,,1,S,0,S,17,0.77085,0.003522,0.002715
18,71,2,4,0,0,1,,2,S,0,S,14,0,0.777326,0
18,72,8,6,0,0,1,,2,S,0,S,15,0.780299,0,0
19,1,6,9,0,0,1,,3,S,0,S,14,0.004013,0.767204,0.003078
19,2,6,5,0,0,1,,1,S,0,S,16,0.766648,0.007911,0.006065
19,3,6,3,0,0,1,,3,S,0,S,13,0.780001,0,0
19,4,7,4,0,0,1,,3,S,0,S,13,0.767762,0,0
19,5,3,4,0,0,1,,1,S,0,S,15,0.012438,0.75311,0.009367
19,6,6,7,0,0,1,,1,S,0,S,16,0,0.778327,0
19,7,2,6,0,0,1,,4,S,0,S,12,0,0.787765,0
19,8,9,6,0,0,1,,3,S,0,S,14,0.767459,0.002946,0.002261
19,9,7,6,0,0,1,,1,S,0,S,18,0.77851,0.003735,0.002908
19,10,1,4,0,0,1,,3,S,0,S,12,0,0.779098,0
19,11,3,5,0,0,1,,2,S,0,S,14,0.003001,0.760149,0.002281
19,12,5,1,0,0,1,,4,S,0,S,12,0.795245,0,0
19,13,3,2,0,0,1,,1,S,0,S,17,0.767549,0.003962,0.003041
19,14,5,7,0,0,1,,2,S,0,S,14,0,0.777683,0
19,15,9,1,0,0,1,,8,L,0,S,10,0.756334,0,0
19,16,2,3,0,0,1,,1,S,0,S,16,0,0.777649,0
19,17,1,5,0,0,1,,4,S,0,S,12,0,0.797346,0
19,18,6,4,0,0,1,,2,S,0,S,15,0.793953,0,0
19,19,1,6,0,0,1,,5,S,0,S,11,0,0.780667,0
19,20,5,3,0,0,1,,2,S,0,S,14,0.758453,0.006569,0.004983
19,21,9,8,0,0,1,,1,S,0,S,17,0.761451,0.016978,0.012928
19,22,4,8,0,0,1,,4,S,0,S,12,0,0.762255,0
19,23,7,1,0,0,1,,6,S,0,S,11,0.794136,0,0
19,24,4,1,0,0,1,,3,S,0,S,12,0.766675,0,0
19,25,8,9,0,0,1,,1,S,0,S,19,0.019892,0.76173,0.015152
19,26,8,7,0,0,1,,1,S,0,S,20,0.780861,0.001611,0.001258
19,27,3,8,0,0,1,,5,S,0,S,12,0,0.790892,0
19,28,6,8,0,0,1,,2,S,0,S,15,0,0.796922,0
19,29,4,2,0,0,1,,2,S,0,S,14,0.75901,0.007491,0.005686
19,30,8,6,0,0,1,,2,S,0,S,16,0.777643,0.001792,0.001393
19,31,9,4,0,0,1,,5,S,0,S,12,0.772569,0,0
19,32,2,8,0,0,1,,6,S,0,S,11,0,0.767491,0
19,33,1,9,0,0,1,,8,L,0,S,11,0,0.809667,0
19,34,5,8,0,0,1,,3,S,0,S,13,0,0.766744,0
19,35,3,9,0,0,1,,6,S,0,S,12,0,0.797349,0
19,36,4,7,0,0,1,,3,S,0,S,13,0,0.786742,0
19,37,7,3,0,0,1,,4,S,0,S,12,0.771443,0,0
19,38,4,5,0,0,1,,1,S,0,S,16,0.01394,0.758634,0.010576
19,39,5,6,0,0,1,,1,S,0,S,15,0,0.772759,0
19,40,7,8,0,0,1,,1,S,0,S,18,0,0.789022,0
19,41,8,2,0,0,1,,6,S,0,S,11,0.757849,0,0
19,42,6,1,0,0,1,,5,S,0,S,11,0.770681,0,0
19,43,2,7,0,0,1,,5,S,0,S,12,0,0.804525,0
19,44,3,6,0,0,1,,3,S,0,S,13,0,0.796586,0
19,45,7,5,0,0,1,,2,S,0,S,14,0.776726,0,0
19,46,7,9,0,0,1,,2,S,0,S,17,0,0.791394,0
19,47,1,3,0,0,1,,2,S,0,S,13,0,0.777444,0
19,48,8,5,0,0,1,,3,S,0,S,13,0.757838,0.005404,0.004095
19,49,9,7,0,0,1,,2,S,0,S,16,0.786565,0,0
19,50,3,7,0,0,1,,4,S,0,S,12,0,0.767172,0
19,51,6,2,0,0,1,,4,S,0,S,12,0.765596,0,0
19,52,9,2,0,0,1,,7,L,0,S,11,0.777788,0,0
19,53,5,9,0,0,1,,4,S,0,S,13,0,0.778374,0
19,54,8,1,0,0,1,,7,L,0,S,11,0.803281,0,0
19,55,3,1,0,0,1,,2,S,0,S,13,0.767249,0,0
19,56,4,9,0,0,1,,5,S,0,S,12,0,0.770697,0
19,57,4,6,0,0,1,,2,S,0,S,13,0.008812,0.753452,0.006639
19,58,1,2,0,0,1,,1,S,0,S,14,0,0.770262,0
19,59,5,2,0,0,1,,3,S,0,S,13,0.766737,0,0
19,60,9,5,0,0,1,,4,S,0,S,13,0.798963,0,0
19,61,2,1,0,0,1,,1,S,0,S,14,0.751822,0.010168,0.007644
19,62,8,4,0,0,1,,4,S,0,S,13,0.792785,0,0
19,63,7,2,0,0,1,,5,S,0,S,12,0.800787,0,0
19,64,2,5,0,0,1,,3,S,0,S,13,0,0.780459,0
19,65,2,9,0,0,1,,7,L,0,S,11,0,0.772682,0
19,66,2,4,0,0,1,,2,S,0,S,14,0,0.79872,0
19,67,1,8,0,0,1,,7,L,0,S,11,0,0.806302,0
19,68,8,3,0,0,1,,5,S,0,S,12,0.788761,0,0
19,69,4,3,0,0,1,,1,S,0,S,16,0.751746,0.019659,0.014779
19,70,9,3,0,0,1,,6,S,0,S,11,0.755348,0,0
19,71,5,4,0,0,1,,1,S,0,S,18,0.769041,0.007817,0.006011
19,72,1,7,0,0,1,,6,S,0,S,11,0,0.792472,0
20,1,2,7,0,0,1,,5,S,0,S,11,0,0.750784,0
20,2,6,3,0,0,1,,3,S,0,S,12,0.762075,0,0
20,3,6,2,0,0,1,,4,S,0,S,12,0.806588,0,0
20,4,2,1,0,0,1,,1,S,0,S,15,0.781678,0,0
20,5,8,2,0,0,1,,6,S,0,S,11,0.778484,0,0
20,6,2,3,0,0,1,,1,S,0,S,16,0.012899,0.75411,0.009728
20,7,8,1,0,0,1,,7,L,0,S,11,0.804971,0,0
20,8,9,6,0,0,1,,3,S,0,S,14,0.771011,0.000794,0.000612
20,9,4,6,0,0,1,,2,S,0,S,14,0,0.799932,0
20,10,4,8,0,0,1,,4,S,0,S,12,0,0.772718,0
20,11,8,5,0,0,1,,3,S,0,S,14,0.800272,0,0
20,12,6,1,0,0,1,,5,S,0,S,11,0.783934,0,0
20,13,1,7,0,0,1,,6,S,0,S,11,0,0.797767,0
20,14,1,8,0,0,1,,7,L,0,S,10,0,0.753484,0
20,15,7,4,0,0,1,,3,S,0,S,13,0.799981,0,0
20,16,9,8,0,0,1,,1,S,0,S,21,0.789868,0,0
20,17,9,7,0,0,1,,2,S,0,S,16,0.750694,0.018267,0.013713
20,18,7,5,0,0,1,,2,S,0,S,14,0.788669,0,0
20,19,7,2,0,0,1,,5,S,0,S,11,0.774627,0,0
20,20,5,4,0,0,1,,1,S,0,S,15,0.761262,0.007745,0.005896
20,21,1,9,0,0,1,,8,L,0,S,10,0,0.763239,0
20,22,7,6,0,0,1,,1,S,0,S,15,0.757199,0.014378,0.010887
20,23,1,2,0,0,1,,1,S,0,S,15,0,0.789738,0
20,24,2,8,0,0,1,,6,S,0,S,11,0,0.773132,0
20,25,3,5,0,0,1,,2,S,0,S,14,0,0.795792,0
20,26,5,8,0,0,1,,3,S,0,S,14,0,0.799413,0
20,27,2,6,0,0,1,,4,S,0,S,12,0,0.785328,0
20,28,8,7,0,0,1,,1,S,0,S,19,0.789674,0,0
20,29,2,5,0,0,1,,3,S,0,S,13,0,0.794481,0
20,30,6,5,0,0,1,,1,S,0,S,15,0.755557,0.012659,0.009564
20,31,5,6,0,0,1,,1,S,0,S,17,0.010296,0.767102,0.007898
20,32,9,4,0,0,1,,5,S,0,S,12,0.773094,0,0
20,33,6,9,0,0,1,,3,S,0,S,14,0.003201,0.766675,0.002454
20,34,3,6,0,0,1,,3,S,0,S,12,0.004964,0.750068,0.003723
20,35,7,3,0,0,1,,4,S,0,S,12,0.794909,0,0
20,36,9,1,0,0,1,,8,L,0,S,10,0.753615,0,0
20,37,7,8,0,0,1,,1,S,0,S,20,0,0.791588,0
20,38,8,3,0,0,1,,5,S,0,S,12,0.800023,0,0
20,39,5,1,0,0,1,,4,S,0,S,11,0.75588,0,0
20,40,3,8,0,0,1,,5,S,0,S,12,0,0.806066,0
20,41,4,9,0,0,1,,5,S,0,S,12,0,0.792455,0
20,42,4,2,0,0,1,,2,S,0,S,14,0.798014,0,0
20,43,1,6,0,0,1,,5,S,0,S,11,0,0.784237,0
20,44,4,1,0,0,1,,3,S,0,S,12,0.760425,0,0
20,45,5,2,0,0,1,,3,S,0,S,12,0.770702,0,0
20,46,6,7,0,0,1,,1,S,0,S,18,0.001712,0.775748,0.001328
20,47,9,2,0,0,1,,7,L,0,S,11,0.789671,0,0
20,48,3,2,0,0,1,,1,S,0,S,15,0.757923,0.010141,0.007686
20,49,2,9,0,0,1,,7,L,0,S,11,0,0.786272,0
20,50,5,9,0,0,1,,4,S,0,S,13,0,0.78127,0
20,51,8,9,0,0,1,,1,S,0,S,17,0.015611,0.759122,0.011851
20,52,3,9,0,0,1,,6,S,0,S,11,0,0.765144,0
20,53,1,4,0,0,1,,3,S,0,S,12,0,0.778516,0
20,54,5,3,0,0,1,,2,S,0,S,13,0.76319,0,0
20,55,4,3,0,0,1,,1,S,0,S,16,0.769666,0.003982,0.003064
20,56,2,4,0,0,1,,2,S,0,S,14,0,0.785197,0
20,57,9,5,0,0,1,,4,S,0,S,13,0.77649,0,0
20,58,4,5,0,0,1,,1,S,0,S,15,0.010411,0.757345,0.007885
20,59,6,8,0,0,1,,2,S,0,S,15,0.011132,0.760573,0.008466
20,60,3,1,0,0,1,,2,S,0,S,13,0.763455,0,0
20,61,8,6,0,0,1,,2,S,0,S,15,0.778972,0,0
20,62,7,1,0,0,1,,6,S,0,S,11,0.802351,0,0
20,63,3,4,0,0,1,,1,S,0,S,16,0,0.795228,0
20,64,9,3,0,0,1,,6,S,0,S,11,0.757086,0,0
20,65,3,7,0,0,1,,4,S,0,S,12,0,0.779988,0
20,66,7,9,0,0,1,,2,S,0,S,16,0.01675,0.756447,0.01267
20,67,8,4,0,0,1,,4,S,0,S,12,0.754232,0,0
20,68,4,7,0,0,1,,3,S,0,S,13,0,0.792239,0
20,69,1,3,0,0,1,,2,S,0,S,13,0,0.779038,0
20,70,1,5,0,0,1,,4,S,0,S,11,0,0.755166,0
20,71,5,7,0,0,1,,2,S,0,S,15,0,0.789131,0
20,72,6,4,0,0,1,,2,S,0,S,13,0.751571,0.008431,0.006337
21,1,5,1,0,0,1,,4,S,0,S,11,0.7616,0,0
21,2,1,4,0,0,1,,3,S,0,S,12,0,0.78348,0
21,3,5,9,0,0,1,,4,S,0,S,13,0.005022,0.75887,0.003811
21,4,3,7,0,0,1,,4,S,0,S,12,0,0.766646,0
21,5,2,6,0,0,1,,4,S,0,S,12,0,0.767925,0
21,6,4,6,0,0,1,,2,S,0,S,15,0,0.788891,0
21,7,2,4,0,0,1,,2,S,0,S,14,0,0.78112,0
21,8,1,5,0,0,1,,4,S,0,S,11,0,0.756188,0
21,9,2,1,0,0,1,,1,S,0,S,14,0.787494,0,0
21,10,6,3,0,0,1,,3,S,0,S,13,0.750243,0.007588,0.005693
21,11,9,6,0,0,1,,3,S,0,S,14,0.751254,0.013556,0.010184
21,12,7,6,0,0,1,,1,S,0,S,17,0.76026,0.012032,0.009147
21,13,4,5,0,0,1,,1,S,0,S,17,0,0.787038,0
21,14,7,1,0,0,1,,6,S,0,S,11,0.791069,0,0
21,15,3,9,0,0,1,,6,S,0,S,12,0,0.804326,0
21,16,4,8,0,0,1,,4,S,0,S,13,0,0.784129,0
21,17,8,5,0,0,1,,3,S,0,S,14,0.777854,0,0
21,18,2,7,0,0,1,,5,S,0,S,12,0,0.793972,0
21,19,7,9,0,0,1,,2,S,0,S,16,0.004069,0.770112,0.003133
21,20,3,5,0,0,1,,2,S,0,S,14,0,0.79637,0
21,21,6,9,0,0,1,,3,S,0,S,14,0.000849,0.767399,0.000652
21,22,5,8,0,0,1,,3,S,0,S,14,0,0.779199,0
21,23,5,7,0,0,1,,2,S,0,S,15,0,0.773126,0
21,24,1,6,0,0,1,,5,S,0,S,11,0,0.775753,0
21,25,6,1,0,0,1,,5,S,0,S,11,0.771932,0,0
21,26,5,4,0,0,1,,1,S,0,S,16,0.794321,0,0
21,27,9,4,0,0,1,,5,S,0,S,12,0.759174,0,0
21,28,1,9,0,0,1,,8,L,0,S,10,0,0.753035,0
21,29,4,7,0,0,1,,3,S,0,S,14,0,0.799162,0
21,30,9,8,0,0,1,,1,S,0,S,20,0.763799,0.014521,0.011091
21,31,7,3,0,0,1,,4,S,0,S,13,0.795384,0,0
21,32,7,2,0,0,1,,5,S,0,S,12,0.802697,0,0
21,33,9,7,0,0,1,,2,S,0,S,17,0.794763,0,0
21,34,7,8,0,0,1,,1,S,0,S,18,0,0.779824,0
21,35,3,6,0,0,1,,3,S,0,S,13,0,0.787491,0
21,36,4,3,0,0,1,,1,S,0,S,16,0.759865,0.011917,0.009055
21,37,1,2,0,0,1,,1,S,0,S,14,0.003497,0.7633,0.002669
21,38,9,3,0,0,1,,6,S,0,S,12,0.783972,0,0
21,39,6,5,0,0,1,,1,S,0,S,18,0.772258,0.003736,0.002885
21,40,5,2,0,0,1,,3,S,0,S,12,0.757718,0,0
21,41,8,7,0,0,1,,1,S,0,S,18,0.757914,0.0161,0.012203
21,42,7,5,0,0,1,,2,S,0,S,15,0.771076,0,0
21,43,4,1,0,0,1,,3,S,0,S,12,0.789791,0,0
21,44,3,8,0,0,1,,5,S,0,S,12,0,0.789254,0
21,45,5,6,0,0,1,,1,S,0,S,18,0,0.791456,0
21,46,8,6,0,0,1,,2,S,0,S,15,0.761422,0.008668,0.0066
21,47,6,7,0,0,1,,1,S,0,S,17,0,0.786985,0
21,48,9,2,0,0,1,,7,L,0,S,11,0.775162,0,0
21,49,6,8,0,0,1,,2,S,0,S,15,0,0.775644,0
21,50,6,4,0,0,1,,2,S,0,S,14,0.750031,0.014407,0.010806
21,51,3,4,0,0,1,,1,S,0,S,15,0.012802,0.757434,0.009697
21,52,1,8,0,0,1,,7,L,0,S,11,0,0.804175,0
21,53,9,1,0,0,1,,8,L,0,S,10,0.750982,0,0
21,54,2,5,0,0,1,,3,S,0,S,13,0,0.789191,0
21,55,7,4,0,0,1,,3,S,0,S,13,0.76127,0.001382,0.001052
21,56,5,3,0,0,1,,2,S,0,S,14,0.768921,0,0
21,57,1,7,0,0,1,,6,S,0,S,11,0,0.792272,0
21,58,8,3,0,0,1,,5,S,0,S,12,0.76967,0,0
21,59,8,9,0,0,1,,1,S,0,S,19,0,0.784852,0
21,60,8,4,0,0,1,,4,S,0,S,13,0.795382,0,0
21,61,2,9,0,0,1,,7,L,0,S,11,0,0.769198,0
21,62,4,2,0,0,1,,2,S,0,S,13,0.763611,0.000368,0.000281
21,63,2,3,0,0,1,,1,S,0,S,15,0.014291,0.752426,0.010753
21,64,9,5,0,0,1,,4,S,0,S,13,0.753152,0.007289,0.00549
21,65,4,9,0,0,1,,5,S,0,S,12,0.003463,0.752403,0.002605
21,66,3,1,0,0,1,,2,S,0,S,13,0.781365,0,0
21,67,8,1,0,0,1,,7,L,0,S,11,0.803999,0,0
21,68,8,2,0,0,1,,6,S,0,S,11,0.764959,0,0
21,69,2,8,0,0,1,,6,S,0,S,11,0,0.755925,0
21,70,6,2,0,0,1,,4,S,0,S,12,0.774827,0,0
21,71,3,2,0,0,1,,1,S,0,S,16,0.775452,0.00022,0.00017
21,72,1,3,0,0,1,,2,S,0,S,13,0,0.802412,0
22,1,4,7,0,0,1,,3,S,0,S,13,0,0.787029,0
22,2,6,1,0,0,1,,5,S,0,S,11,0.778671,0,0
22,3,9,7,0,0,1,,2,S,0,S,17,0.783343,0,0
22,4,6,2,0,0,1,,4,S,0,S,12,0.783708,0,0
22,5,9,6,0,0,1,,3,S,0,S,14,0.774704,0,0
22,6,5,7,0,0,1,,2,S,0,S,14,0.007527,0.759601,0.005718
22,7,9,1,0,0,1,,8,L,0,S,11,0.809029,0,0
22,8,6,3,0,0,1,,3,S,0,S,12,0.751858,0.002002,0.001505
22,9,4,2,0,0,1,,2,S,0,S,14,0.764388,0.001782,0.001362
22,10,6,7,0,0,1,,1,S,0,S,17,0.012021,0.762956,0.009172
22,11,7,5,0,0,1,,2,S,0,S,15,0.767306,0.003823,0.002933
22,12,7,8,0,0,1,,1,S,0,S,16,0.017727,0.757067,0.013421
22,13,2,8,0,0,1,,6,S,0,S,11,0,0.771965,0
22,14,9,8,0,0,1,,1,S,0,S,19,0.781847,0.002572,0.002011
22,15,8,6,0,0,1,,2,S,0,S,14,0.783512,0,0
22,16,2,4,0,0,1,,2,S,0,S,14,0,0.789252,0
22,17,9,5,0,0,1,,4,S,0,S,13,0.769837,0,0
22,18,8,9,0,0,1,,1,S,0,S,21,0.005273,0.780734,0.004117
22,19,5,2,0,0,1,,3,S,0,S,13,0.795707,0,0
22,20,9,4,0,0,1,,5,S,0,S,12,0.770762,0,0
22,21,9,3,0,0,1,,6,S,0,S,12,0.806157,0,0
22,22,1,6,0,0,1,,5,S,0,S,11,0,0.769959,0
22,23,7,1,0,0,1,,6,S,0,S,11,0.783792,0,0
22,24,3,5,0,0,1,,2,S,0,S,14,0,0.783254,0
22,25,1,4,0,0,1,,3,S,0,S,12,0,0.769405,0
22,26,9,2,0,0,1,,7,L,0,S,11,0.77212,0,0
22,27,1,5,0,0,1,,4,S,0,S,12,0,0.804779,0
22,28,6,4,0,0,1,,2,S,0,S,14,0.797777,0,0
22,29,2,9,0,0,1,,7,L,0,S,11,0,0.790395,0
22,30,6,5,0,0,1,,1,S,0,S,16,0.785795,0,0
22,31,5,6,0,0,1,,1,S,0,S,18,0,0.792353,0
22,32,1,7,0,0,1,,6,S,0,S,11,0,0.794542,0
22,33,5,3,0,0,1,,2,S,0,S,13,0.751689,0.008262,0.00621
22,34,7,9,0,0,1,,2,S,0,S,14,0.013132,0.75501,0.009915
22,35,7,2,0,0,1,,5,S,0,S,12,0.791274,0,0
22,36,4,3,0,0,1,,1,S,0,S,16,0.775329,0,0
22,37,4,1,0,0,1,,3,S,0,S,12,0.762615,0,0
22,38,3,7,0,0,1,,4,S,0,S,12,0,0.774873,0
22,39,3,6,0,0,1,,3,S,0,S,13,0,0.779405,0
22,40,1,8,0,0,1,,7,L,0,S,11,0,0.806017,0
22,41,6,8,0,0,1,,2,S,0,S,16,0,0.794227,0
22,42,1,9,0,0,1,,8,L,0,S,10,0,0.759501,0
22,43,2,6,0,0,1,,4,S,0,S,12,0,0.778174,0
22,44,4,5,0,0,1,,1,S,0,S,16,0,0.788622,0
22,45,3,9,0,0,1,,6,S,0,S,11,0,0.760526,0
22,46,3,2,0,0,1,,1,S,0,S,16,0.763084,0.009591,0.007319
22,47,8,3,0,0,1,,5,S,0,S,11,0.753496,0,0
22,48,1,3,0,0,1,,2,S,0,S,13,0,0.76751,0
22,49,2,3,0,0,1,,1,S,0,S,16,0.007092,0.765108,0.005426
22,50,4,9,0,0,1,,5,S,0,S,12,0,0.787671,0
22,51,8,5,0,0,1,,3,S,0,S,13,0.776481,0,0
22,52,3,8,0,0,1,,5,S,0,S,12,0,0.794448,0
22,53,5,8,0,0,1,,3,S,0,S,14,0,0.797745,0
22,54,5,1,0,0,1,,4,S,0,S,11,0.751913,0,0
22,55,4,8,0,0,1,,4,S,0,S,12,0,0.758067,0
22,56,1,2,0,0,1,,1,S,0,S,14,0,0.768295,0
22,57,5,4,0,0,1,,1,S,0,S,15,0.754871,0.015118,0.011412
22,58,4,6,0,0,1,,2,S,0,S,14,0,0.768962,0
22,59,3,4,0,0,1,,1,S,0,S,16,0.011896,0.761526,0.009059
22,60,8,1,0,0,1,,7,L,0,S,10,0.751527,0,0
22,61,7,6,0,0,1,,1,S,0,S,18,0.791321,0,0
22,62,8,4,0,0,1,,4,S,0,S,12,0.775535,0,0
22,63,2,7,0,0,1,,5,S,0,S,11,0,0.756298,0
22,64,8,2,0,0,1,,6,S,0,S,11,0.775389,0,0
22,65,2,1,0,0,1,,1,S,0,S,15,0.792155,0,0
22,66,3,1,0,0,1,,2,S,0,S,13,0.777152,0,0
22,67,5,9,0,0,1,,4,S,0,S,13,0,0.791607,0
22,68,6,9,0,0,1,,3,S,0,S,14,0,0.776275,0
22,69,2,5,0,0,1,,3,S,0,S,13,0,0.800159,0
22,70,7,3,0,0,1,,4,S,0,S,12,0.761473,0,0
22,71,8,7,0,0,1,,1,S,0,S,16,0.756968,0.014891,0.011272
22,72,7,4,0,0,1,,3,S,0,S,13,0.761526,0.001535,0.001169
23,1,5,3,0,0,1,,2,S,0,S,15,0.783714,0,0
23,2,7,4,0,0,1,,3,S,0,S,13,0.757166,0.003854,0.002918
23,3,5,9,0,0,1,,4,S,0,S,13,0,0.801026,0
23,4,6,9,0,0,1,,3,S,0,S,13,0.000343,0.762492,0.000261
23,5,5,6,0,0,1,,1,S,0,S,18,0,0.779597,0
23,6,3,7,0,0,1,,4,S,0,S,12,0,0.757628,0
23,7,8,3,0,0,1,,5,S,0,S,12,0.779,0,0
23,8,4,8,0,0,1,,4,S,0,S,13,0,0.789935,0
23,9,5,4,0,0,1,,1,S,0,S,17,0.769066,0.003223,0.002479
23,10,3,2,0,0,1,,1,S,0,S,16,0.795414,0,0
23,11,6,1,0,0,1,,5,S,0,S,11,0.770458,0,0
23,12,9,4,0,0,1,,5,S,0,S,12,0.75058,0.00145,0.001088
23,13,6,2,0,0,1,,4,S,0,S,12,0.77676,0,0
23,14,2,9,0,0,1,,7,L,0,S,11,0,0.788405,0
23,15,4,3,0,0,1,,1,S,0,S,17,0.792275,0,0
23,16,8,2,0,0,1,,6,S,0,S,11,0.771624,0,0
23,17,7,9,0,0,1,,2,S,0,S,14,0.011579,0.755339,0.008746
23,18,9,7,0,0,1,,2,S,0,S,17,0.788554,0,0
23,19,3,1,0,0,1,,2,S,0,S,13,0.77874,0,0
23,20,5,2,0,0,1,,3,S,0,S,13,0.793668,0,0
23,21,2,7,0,0,1,,5,S,0,S,12,0,0.800526,0
23,22,6,4,0,0,1,,2,S,0,S,15,0.78785,0,0
23,23,7,5,0,0,1,,2,S,0,S,15,0.785484,0,0
23,24,9,5,0,0,1,,4,S,0,S,13,0.758548,0.00345,0.002617
23,25,7,6,0,0,1,,1,S,0,S,16,0.783065,0,0
23,26,2,5,0,0,1,,3,S,0,S,13,0,0.800635,0
23,27,3,4,0,0,1,,1,S,0,S,16,0,0.771852,0
23,28,4,1,0,0,1,,3,S,0,S,12,0.783867,0,0
23,29,4,2,0,0,1,,2,S,0,S,13,0.761664,0.00245,0.001866
23,30,9,3,0,0,1,,6,S,0,S,12,0.784032,0,0
23,31,3,9,0,0,1,,6,S,0,S,11,0,0.757752,0
23,32,9,1,0,0,1,,8,L,0,S,11,0.809236,0,0
23,33,6,5,0,0,1,,1,S,0,S,18,0.78764,0,0
23,34,7,8,0,0,1,,1,S,0,S,17,0.023564,0.75071,0.01769
23,35,1,7,0,0,1,,6,S,0,S,11,0,0.790449,0
23,36,6,8,0,0,1,,2,S,0,S,15,0,0.782118,0
23,37,3,5,0,0,1,,2,S,0,S,14,0,0.782034,0
23,38,4,6,0,0,1,,2,S,0,S,15,0.007579,0.765759,0.005804
23,39,4,9,0,0,1,,5,S,0,S,12,0,0.780226,0
23,40,7,3,0,0,1,,4,S,0,S,13,0.801131,0,0
23,41,8,1,0,0,1,,7,L,0,S,11,0.8073,0,0
23,42,1,9,0,0,1,,8,L,0,S,10,0,0.761888,0
23,43,4,5,0,0,1,,1,S,0,S,16,0.021362,0.75038,0.016029
23,44,8,4,0,0,1,,4,S,0,S,13,0.797354,0,0
23,45,1,5,0,0,1,,4,S,0,S,11,0,0.754906,0
23,46,8,7,0,0,1,,1,S,0,S,17,0.753878,0.017755,0.013385
23,47,9,2,0,0,1,,7,L,0,S,11,0.774894,0,0
23,48,2,6,0,0,1,,4,S,0,S,12,0,0.766634,0
23,49,1,3,0,0,1,,2,S,0,S,12,0.002019,0.751408,0.001517
23,50,1,2,0,0,1,,1,S,0,S,14,0.006683,0.758525,0.005069
23,51,7,2,0,0,1,,5,S,0,S,11,0.750511,0,0
23,52,2,8,0,0,1,,6,S,0,S,11,0,0.763303,0
23,53,3,8,0,0,1,,5,S,0,S,12,0,0.782693,0
23,54,5,7,0,0,1,,2,S,0,S,15,0,0.796646,0
23,55,7,1,0,0,1,,6,S,0,S,11,0.793075,0,0
23,56,2,3,0,0,1,,1,S,0,S,15,0,0.78972,0
23,57,5,1,0,0,1,,4,S,0,S,12,0.802522,0,0
23,58,9,8,0,0,1,,1,S,0,S,20,0.782986,0,0
23,59,9,6,0,0,1,,3,S,0,S,14,0.782227,0,0
23,60,2,4,0,0,1,,2,S,0,S,14,0,0.791754,0
23,61,1,4,0,0,1,,3,S,0,S,12,0,0.775652,0
23,62,1,8,0,0,1,,7,L,0,S,11,0,0.803806,0
23,63,6,7,0,0,1,,1,S,0,S,16,0.016419,0.751919,0.012346
23,64,3,6,0,0,1,,3,S,0,S,13,0.00115,0.760719,0.000875
23,65,6,3,0,0,1,,3,S,0,S,13,0.75157,0.008927,0.00671
23,66,2,1,0,0,1,,1,S,0,S,15,0.792796,0,0
23,67,8,5,0,0,1,,3,S,0,S,14,0.799226,0,0
23,68,8,9,0,0,1,,1,S,0,S,16,0.018297,0.753408,0.013785
23,69,5,8,0,0,1,,3,S,0,S,14,0,0.795802,0
23,70,1,6,0,0,1,,5,S,0,S,11,0,0.767597,0
23,71,4,7,0,0,1,,3,S,0,S,13,0.005406,0.75466,0.004079
23,72,8,6,0,0,1,,2,S,0,S,14,0.769663,0.001141,0.000878
24,1,6,2,0,0,1,,4,S,0,S,12,0.783141,0,0
24,2,8,9,0,0,1,,1,S,0,S,17,0.026108,0.752723,0.019652
24,3,5,6,0,0,1,,1,S,0,S,16,0.012408,0.759837,0.009428
24,4,2,6,0,0,1,,4,S,0,S,12,0,0.773473,0
24,5,1,9,0,0,1,,8,L,0,S,10,0,0.757363,0
24,6,8,6,0,0,1,,2,S,0,S,15,0.768995,0.004535,0.003487
24,7,6,1,0,0,1,,5,S,0,S,11,0.77328,0,0
24,8,1,2,0,0,1,,1,S,0,S,15,0,0.789322,0
24,9,5,4,0,0,1,,1,S,0,S,16,0.753092,0.017436,0.013131
24,10,4,9,0,0,1,,5,S,0,S,12,0,0.758526,0
24,11,1,8,0,0,1,,7,L,0,S,10,0,0.751687,0
24,12,7,4,0,0,1,,3,S,0,S,13,0.792467,0,0
24,13,8,7,0,0,1,,1,S,0,S,17,0.764008,0.015405,0.011769
24,14,1,4,0,0,1,,3,S,0,S,12,0,0.772803,0
24,15,3,1,0,0,1,,2,S,0,S,13,0.781609,0,0
24,16,9,8,0,0,1,,1,S,0,S,21,0.764966,0.019431,0.014864
24,17,5,2,0,0,1,,3,S,0,S,13,0.798428,0,0
24,18,8,1,0,0,1,,7,L,0,S,11,0.804865,0,0
24,19,5,9,0,0,1,,4,S,0,S,13,0,0.790222,0
24,20,9,4,0,0,1,,5,S,0,S,12,0.771613,0,0
24,21,1,7,0,0,1,,6,S,0,S,11,0,0.792097,0
24,22,1,3,0,0,1,,2,S,0,S,13,0,0.798463,0
24,23,6,5,0,0,1,,1,S,0,S,18,0.753527,0.023166,0.017456
24,24,8,4,0,0,1,,4,S,0,S,13,0.800315,0,0
24,25,6,8,0,0,1,,2,S,0,S,14,0.004873,0.766933,0.003738
24,26,7,5,0,0,1,,2,S,0,S,14,0.762894,0.005108,0.003897
24,27,4,3,0,0,1,,1,S,0,S,16,0.767481,0.004527,0.003475
24,28,9,1,0,0,1,,8,L,0,S,10,0.754841,0,0
24,29,3,9,0,0,1,,6,S,0,S,12,0,0.803741,0
24,30,8,5,0,0,1,,3,S,0,S,14,0.774438,0,0
24,31,4,7,0,0,1,,3,S,0,S,14,0,0.790714,0
24,32,1,5,0,0,1,,4,S,0,S,11,0,0.760989,0
24,33,2,1,0,0,1,,1,S,0,S,14,0.759925,0.007659,0.00582
24,34,5,1,0,0,1,,4,S,0,S,12,0.803693,0,0
24,35,8,3,0,0,1,,5,S,0,S,12,0.774349,0,0
24,36,6,7,0,0,1,,1,S,0,S,17,0.006911,0.773821,0.005348
24,37,7,1,0,0,1,,6,S,0,S,11,0.800689,0,0
24,38,3,7,0,0,1,,4,S,0,S,12,0.000767,0.754592,0.000579
24,39,5,8,0,0,1,,3,S,0,S,13,0,0.775626,0
24,40,7,8,0,0,1,,1,S,0,S,19,0,0.786191,0
24,41,9,7,0,0,1,,2,S,0,S,15,0.764702,0.010419,0.007967
24,42,5,3,0,0,1,,2,S,0,S,15,0.78874,0,0
24,43,9,6,0,0,1,,3,S,0,S,14,0.774725,0,0
24,44,2,9,0,0,1,,7,L,0,S,11,0,0.781118,0
24,45,8,2,0,0,1,,6,S,0,S,11,0.769344,0,0
24,46,4,2,0,0,1,,2,S,0,S,13,0.768296,0,0
24,47,5,7,0,0,1,,2,S,0,S,14,0.015461,0.751278,0.011616
24,48,7,9,0,0,1,,2,S,0,S,17,0.014758,0.764121,0.011277
24,49,3,2,0,0,1,,1,S,0,S,15,0.768769,0.000248,0.00019
24,50,2,7,0,0,1,,5,S,0,S,12,0,0.800615,0
24,51,7,2,0,0,1,,5,S,0,S,11,0.764058,0,0
24,52,6,4,0,0,1,,2,S,0,S,14,0.764448,0.003864,0.002954
24,53,3,4,0,0,1,,1,S,0,S,17,0,0.787696,0
24,54,9,2,0,0,1,,7,L,0,S,11,0.78383,0,0
24,55,2,3,0,0,1,,1,S,0,S,15,0.002307,0.768931,0.001774
24,56,7,3,0,0,1,,4,S,0,S,12,0.76747,0,0
24,57,7,6,0,0,1,,1,S,0,S,15,0.7539,0.013879,0.010464
24,58,9,3,0,0,1,,6,S,0,S,12,0.794916,0,0
24,59,4,5,0,0,1,,1,S,0,S,16,0.012633,0.75928,0.009592
24,60,3,8,0,0,1,,5,S,0,S,12,0,0.794542,0
24,61,6,3,0,0,1,,3,S,0,S,13,0.760028,0.002748,0.002089
24,62,3,6,0,0,1,,3,S,0,S,13,0,0.77077,0
24,63,2,5,0,0,1,,3,S,0,S,12,0.001877,0.753982,0.001415
24,64,1,6,0,0,1,,5,S,0,S,11,0,0.773037,0
24,65,9,5,0,0,1,,4,S,0,S,13,0.763718,0.002264,0.001729
24,66,2,4,0,0,1,,2,S,0,S,14,0,0.77983,0
24,67,6,9,0,0,1,,3,S,0,S,14,0,0.787979,0
24,68,2,8,0,0,1,,6,S,0,S,11,0,0.773694,0
24,69,4,1,0,0,1,,3,S,0,S,12,0.783543,0,0
24,70,3,5,0,0,1,,2,S,0,S,14,0,0.79157,0
24,71,4,8,0,0,1,,4,S,0,S,13,0,0.799563,0
24,72,4,6,0,0,1,,2,S,0,S,15,0,0.776905,0
25,1,2,8,0,0,1,,6,S,0,S,11,0,0.76415,0
25,2,2,6,0,0,1,,4,S,0,S,12,0,0.79073,0
25,3,7,1,0,0,1,,6,S,0,S,11,0.793878,0,0
25,4,4,7,0,0,1,,3,S,0,S,14,0,0.794302,0
25,5,6,9,0,0,1,,3,S,0,S,14,0,0.792641,0
25,6,3,2,0,0,1,,1,S,0,S,16,0.76086,0.013527,0.010292
25,7,4,9,0,0,1,,5,S,0,S,12,0,0.774802,0
25,8,5,2,0,0,1,,3,S,0,S,13,0.775674,0,0
25,9,5,1,0,0,1,,4,S,0,S,12,0.797768,0,0
25,10,1,2,0,0,1,,1,S,0,S,14,0,0.797727,0
25,11,5,4,0,0,1,,1,S,0,S,17,0.752823,0.019517,0.014693
25,12,2,9,0,0,1,,7,L,0,S,11,0,0.781872,0
25,13,2,1,0,0,1,,1,S,0,S,15,0.785918,0,0
25,14,4,1,0,0,1,,3,S,0,S,12,0.769211,0,0
25,15,8,6,0,0,1,,2,S,0,S,15,0.779213,0,0
25,16,3,5,0,0,1,,2,S,0,S,14,0.002075,0.765247,0.001588
25,17,5,6,0,0,1,,1,S,0,S,15,0,0.775125,0
25,18,1,4,0,0,1,,3,S,0,S,12,0,0.787849,0
25,19,8,5,0,0,1,,3,S,0,S,13,0.77365,0,0
25,20,5,9,0,0,1,,4,S,0,S,13,0,0.794831,0
25,21,7,5,0,0,1,,2,S,0,S,14,0.77422,0,0
25,22,6,5,0,0,1,,1,S,0,S,17,0.783348,0,0
25,23,8,1,0,0,1,,7,L,0,S,11,0.807832,0,0
25,24,8,3,0,0,1,,5,S,0,S,12,0.793216,0,0
25,25,7,8,0,0,1,,1,S,0,S,19,0.021119,0.756256,0.015972
25,26,4,8,0,0,1,,4,S,0,S,13,0,0.799633,0
25,27,3,9,0,0,1,,6,S,0,S,11,0,0.75352,0
25,28,5,7,0,0,1,,2,S,0,S,15,0,0.776775,0
25,29,1,3,0,0,1,,2,S,0,S,12,0.000314,0.756198,0.000237
25,30,3,7,0,0,1,,4,S,0,S,13,0,0.802224,0
25,31,7,6,0,0,1,,1,S,0,S,17,0.750962,0.02276,0.017092
25,32,2,3,0,0,1,,1,S,0,S,15,0,0.777597,0
25,33,3,1,0,0,1,,2,S,0,S,13,0.780867,0,0
25,34,9,4,0,0,1,,5,S,0,S,12,0.769844,0,0
25,35,8,9,0,0,1,,1,S,0,S,22,0.002947,0.783122,0.002308
25,36,3,4,0,0,1,,1,S,0,S,16,0,0.787376,0
25,37,6,2,0,0,1,,4,S,0,S,12,0.7646,0,0
25,38,6,7,0,0,1,,1,S,0,S,18,0.018056,0.758225,0.013691
25,39,1,5,0,0,1,,4,S,0,S,11,0,0.751919,0
25,40,8,4,0,0,1,,4,S,0,S,12,0.757654,0,0
25,41,9,1,0,0,1,,8,L,0,S,10,0.752682,0,0
25,42,9,2,0,0,1,,7,L,0,S,11,0.777055,0,0
25,43,3,6,0,0,1,,3,S,0,S,13,0,0.801591,0
25,44,4,6,0,0,1,,2,S,0,S,14,0,0.793321,0
25,45,7,3,0,0,1,,4,S,0,S,12,0.764649,0,0
25,46,3,8,0,0,1,,5,S,0,S,12,0,0.788875,0
25,47,2,7,0,0,1,,5,S,0,S,12,0,0.791167,0
25,48,4,5,0,0,1,,1,S,0,S,17,0,0.782891,0
25,49,9,5,0,0,1,,4,S,0,S,13,0.789189,0,0
25,50,4,3,0,0,1,,1,S,0,S,17,0.773428,0.004327,0.003346
25,51,1,8,0,0,1,,7,L,0,S,11,0,0.809664,0
25,52,2,5,0,0,1,,3,S,0,S,13,0,0.785072,0
25,53,2,4,0,0,1,,2,S,0,S,14,0,0.796792,0
25,54,7,4,0,0,1,,3,S,0,S,13,0.773757,0,0
25,55,6,1,0,0,1,,5,S,0,S,11,0.766713,0,0
25,56,1,9,0,0,1,,8,L,0,S,10,0,0.762246,0
25,57,5,8,0,0,1,,3,S,0,S,13,0.004621,0.758182,0.003504
25,58,7,9,0,0,1,,2,S,0,S,16,0.005009,0.773512,0.003875
25,59,6,3,0,0,1,,3,S,0,S,13,0.760922,0.002525,0.001921
25,60,9,3,0,0,1,,6,S,0,S,12,0.802314,0,0
25,61,6,8,0,0,1,,2,S,0,S,15,0,0.78676,0
25,62,8,7,0,0,1,,1,S,0,S,15,0.777195,0,0
25,63,5,3,0,0,1,,2,S,0,S,15,0.79159,0,0
25,64,4,2,0,0,1,,2,S,0,S,14,0.772906,0,0
25,65,9,7,0,0,1,,2,S,0,S,14,0.759678,0.006169,0.004686
25,66,9,8,0,0,1,,1,S,0,S,17,0.775308,0.001544,0.001197
25,67,9,6,0,0,1,,3,S,0,S,14,0.761334,0.004993,0.003801
25,68,8,2,0,0,1,,6,S,0,S,11,0.769949,0,0
25,69,6,4,0,0,1,,2,S,0,S,15,0.789963,0,0
25,70,1,7,0,0,1,,6,S,0,S,11,0,0.790427,0
25,71,1,6,0,0,1,,5,S,0,S,11,0,0.790147,0
25,72,7,2,0,0,1,,5,S,0,S,12,0.805054,0,0
26,1,2,5,0,0,1,,3,S,0,S,12,0,0.762422,0
26,2,3,6,0,0,1,,3,S,0,S,13,0.004585,0.757966,0.003476
26,3,2,6,0,0,1,,4,S,0,S,12,0,0.785816,0
26,4,8,9,0,0,1,,1,S,0,S,20,0,0.788504,0
26,5,7,4,0,0,1,,3,S,0,S,14,0.793656,0,0
26,6,9,1,0,0,1,,8,L,0,S,10,0.750718,0,0
26,7,3,1,0,0,1,,2,S,0,S,12,0.754731,0,0
26,8,8,4,0,0,1,,4,S,0,S,13,0.781529,0,0
26,9,4,6,0,0,1,,2,S,0,S,14,0.004488,0.764658,0.003432
26,10,1,9,0,0,1,,8,L,0,S,10,0,0.763806,0
26,11,8,1,0,0,1,,7,L,0,S,11,0.802396,0,0
26,12,4,8,0,0,1,,4,S,0,S,13,0,0.797854,0
26,13,6,9,0,0,1,,3,S,0,S,14,0.00819,0.759212,0.006218
26,14,6,4,0,0,1,,2,S,0,S,15,0.787712,0,0
26,15,2,7,0,0,1,,5,S,0,S,11,0,0.753544,0
26,16,3,2,0,0,1,,1,S,0,S,14,0.759355,0.005468,0.004152
26,17,8,6,0,0,1,,2,S,0,S,15,0.767749,0.003582,0.00275
26,18,2,3,0,0,1,,1,S,0,S,15,0.001173,0.769346,0.000902
26,19,9,7,0,0,1,,2,S,0,S,17,0.789837,0,0
26,20,3,8,0,0,1,,5,S,0,S,12,0,0.77031,0
26,21,5,2,0,0,1,,3,S,0,S,12,0.754254,0,0
26,22,7,1,0,0,1,,6,S,0,S,11,0.79062,0,0
26,23,3,7,0,0,1,,4,S,0,S,13,0,0.800407,0
26,24,5,1,0,0,1,,4,S,0,S,11,0.755382,0,0
26,25,5,3,0,0,1,,2,S,0,S,14,0.781558,0,0
26,26,6,5,0,0,1,,1,S,0,S,18,0.774149,0.004883,0.003781
26,27,1,8,0,0,1,,7,L,0,S,10,0,0.756618,0
26,28,9,8,0,0,1,,1,S,0,S,20,0.768476,0.010254,0.00788
26,29,2,4,0,0,1,,2,S,0,S,13,0,0.769508,0
26,30,5,8,0,0,1,,3,S,0,S,14,0,0.786018,0
26,31,4,9,0,0,1,,5,S,0,S,12,0,0.761144,0
26,32,8,5,0,0,1,,3,S,0,S,14,0.771119,0,0
26,33,6,2,0,0,1,,4,S,0,S,12,0.783699,0,0
26,34,4,3,0,0,1,,1,S,0,S,16,0.771566,0.003321,0.002562
26,35,6,7,0,0,1,,1,S,0,S,17,0,0.791158,0
26,36,5,9,0,0,1,,4,S,0,S,13,0.003048,0.759387,0.002315
26,37,4,2,0,0,1,,2,S,0,S,13,0.755578,0.004624,0.003494
26,38,4,7,0,0,1,,3,S,0,S,13,0,0.769819,0
26,39,1,5,0,0,1,,4,S,0,S,11,0,0.778148,0
26,40,3,4,0,0,1,,1,S,0,S,17,0,0.792765,0
26,41,6,3,0,0,1,,3,S,0,S,13,0.777662,0,0
26,42,4,5,0,0,1,,1,S,0,S,15,0.016962,0.751625,0.012749
26,43,5,6,0,0,1,,1,S,0,S,17,0.009053,0.767261,0.006946
26,44,2,1,0,0,1,,1,S,0,S,15,0.795973,0,0
26,45,6,8,0,0,1,,2,S,0,S,15,0,0.77357,0
26,46,3,5,0,0,1,,2,S,0,S,14,0.002392,0.76563,0.001831
26,47,8,7,0,0,1,,1,S,0,S,19,0.788809,0,0
26,48,4,1,0,0,1,,3,S,0,S,12,0.78058,0,0
26,49,9,4,0,0,1,,5,S,0,S,13,0.801864,0,0
26,50,7,6,0,0,1,,1,S,0,S,17,0.757428,0.016689,0.012641
26,51,2,9,0,0,1,,7,L,0,S,11,0,0.778747,0
26,52,9,3,0,0,1,,6,S,0,S,12,0.795736,0,0
26,53,9,5,0,0,1,,4,S,0,S,14,0.800203,0,0
26,54,1,4,0,0,1,,3,S,0,S,11,0,0.752251,0
26,55,1,2,0,0,1,,1,S,0,S,14,0,0.794941,0
26,56,8,2,0,0,1,,6,S,0,S,11,0.765799,0,0
26,57,6,1,0,0,1,,5,S,0,S,11,0.775631,0,0
26,58,7,3,0,0,1,,4,S,0,S,12,0.755801,0,0
26,59,1,6,0,0,1,,5,S,0,S,11,0,0.792591,0
26,60,1,7,0,0,1,,6,S,0,S,11,0,0.80666,0
26,61,2,8,0,0,1,,6,S,0,S,11,0,0.768731,0
26,62,3,9,0,0,1,,6,S,0,S,12,0,0.784538,0
26,63,5,7,0,0,1,,2,S,0,S,15,0,0.789376,0
26,64,7,2,0,0,1,,5,S,0,S,12,0.804301,0,0
26,65,9,2,0,0,1,,7,L,0,S,11,0.777201,0,0
26,66,7,9,0,0,1,,2,S,0,S,16,0.000703,0.77543,0.000545
26,67,9,6,0,0,1,,3,S,0,S,14,0.758659,0.008684,0.006588
26,68,5,4,0,0,1,,1,S,0,S,17,0.781105,0,0
26,69,8,3,0,0,1,,5,S,0,S,12,0.780949,0,0
26,70,1,3,0,0,1,,2,S,0,S,12,0,0.765242,0
26,71,7,8,0,0,1,,1,S,0,S,17,0.012653,0.760515,0.009623
26,72,7,5,0,0,1,,2,S,0,S,15,0.756034,0.012517,0.009463
27,1,6,4,0,0,1,,2,S,0,S,15,0.796739,0,0
27,2,3,7,0,0,1,,4,S,0,S,12,0,0.763385,0
27,3,6,9,0,0,1,,3,S,0,S,14,0.010191,0.754583,0.00769
27,4,3,6,0,0,1,,3,S,0,S,13,0.007262,0.752633,0.005465
27,5,9,6,0,0,1,,3,S,0,S,14,0.795755,0,0
27,6,1,3,0,0,1,,2,S,0,S,13,0,0.788179,0
27,7,7,5,0,0,1,,2,S,0,S,15,0.784636,0,0
27,8,2,6,0,0,1,,4,S,0,S,12,0,0.777125,0
27,9,6,7,0,0,1,,1,S,0,S,16,0.005816,0.767468,0.004463
27,10,7,1,0,0,1,,6,S,0,S,11,0.789945,0,0
27,11,4,6,0,0,1,,2,S,0,S,15,0,0.796157,0
27,12,4,2,0,0,1,,2,S,0,S,14,0.776681,0,0
27,13,8,4,0,0,1,,4,S,0,S,13,0.787733,0,0
27,14,5,4,0,0,1,,1,S,0,S,17,0.774983,0.001706,0.001322
27,15,3,5,0,0,1,,2,S,0,S,14,0.011116,0.750364,0.008341
27,16,1,8,0,0,1,,7,L,0,S,11,0,0.804194,0
27,17,8,5,0,0,1,,3,S,0,S,14,0.785108,0,0
27,18,7,6,0,0,1,,1,S,0,S,16,0.75726,0.015249,0.011547
27,19,9,4,0,0,1,,5,S,0,S,12,0.766479,0,0
27,20,3,8,0,0,1,,5,S,0,S,12,0,0.776597,0
27,21,2,5,0,0,1,,3,S,0,S,13,0,0.799774,0
27,22,9,2,0,0,1,,7,L,0,S,11,0.780512,0,0
27,23,3,2,0,0,1,,1,S,0,S,15,0.760744,0.009511,0.007236
27,24,1,4,0,0,1,,3,S,0,S,12,0,0.781666,0
27,25,4,8,0,0,1,,4,S,0,S,13,0,0.799428,0
27,26,8,2,0,0,1,,6,S,0,S,11,0.76184,0,0
27,27,5,6,0,0,1,,1,S,0,S,17,0.017754,0.755587,0.013415
27,28,3,9,0,0,1,,6,S,0,S,12,0,0.790456,0
27,29,9,7,0,0,1,,2,S,0,S,16,0.766276,0.010088,0.00773
27,30,2,4,0,0,1,,2,S,0,S,13,0.003228,0.758972,0.00245
27,31,5,7,0,0,1,,2,S,0,S,14,0,0.77418,0
27,32,1,5,0,0,1,,4,S,0,S,12,0,0.805186,0
27,33,1,6,0,0,1,,5,S,0,S,11,0,0.770288,0
27,34,2,9,0,0,1,,7,L,0,S,11,0,0.78009,0
27,35,7,3,0,0,1,,4,S,0,S,13,0.801409,0,0
27,36,8,6,0,0,1,,2,S,0,S,15,0.784526,0,0
27,37,7,4,0,0,1,,3,S,0,S,13,0.754079,0.006597,0.004975
27,38,5,2,0,0,1,,3,S,0,S,13,0.789829,0,0
27,39,6,8,0,0,1,,2,S,0,S,15,0,0.770829,0
27,40,9,5,0,0,1,,4,S,0,S,13,0.778699,0,0
27,41,8,1,0,0,1,,7,L,0,S,11,0.802576,0,0
27,42,6,5,0,0,1,,1,S,0,S,17,0.781017,0,0
27,43,2,3,0,0,1,,1,S,0,S,15,0,0.770983,0
27,44,2,7,0,0,1,,5,S,0,S,11,0,0.760965,0
27,45,5,3,0,0,1,,2,S,0,S,14,0.753388,0.00824,0.006208
27,46,5,8,0,0,1,,3,S,0,S,14,0,0.800148,0
27,47,2,1,0,0,1,,1,S,0,S,15,0.792627,0,0
27,48,3,4,0,0,1,,1,S,0,S,17,0,0.794786,0
27,49,4,9,0,0,1,,5,S,0,S,12,0,0.762713,0
27,50,1,2,0,0,1,,1,S,0,S,14,0,0.777388,0
27,51,6,3,0,0,1,,3,S,0,S,13,0.763222,0,0
27,52,4,3,0,0,1,,1,S,0,S,17,0.764068,0.00564,0.004309
27,53,4,7,0,0,1,,3,S,0,S,13,0,0.782881,0
27,54,1,7,0,0,1,,6,S,0,S,11,0,0.7991,0
27,55,5,1,0,0,1,,4,S,0,S,12,0.803963,0,0
27,56,6,1,0,0,1,,5,S,0,S,11,0.770735,0,0
27,57,6,2,0,0,1,,4,S,0,S,12,0.773564,0,0
27,58,2,8,0,0,1,,6,S,0,S,11,0,0.769618,0
27,59,7,9,0,0,1,,2,S,0,S,16,0,0.778928,0
27,60,4,5,0,0,1,,1,S,0,S,16,0.006351,0.762787,0.004844
27,61,1,9,0,0,1,,8,L,0,S,10,0,0.752129,0
27,62,8,3,0,0,1,,5,S,0,S,12,0.773255,0,0
27,63,9,3,0,0,1,,6,S,0,S,12,0.797725,0,0
27,64,9,1,0,0,1,,8,L,0,S,10,0.755016,0,0
27,65,9,8,0,0,1,,1,S,0,S,19,0.791695,0,0
27,66,4,1,0,0,1,,3,S,0,S,12,0.767876,0,0
27,67,3,1,0,0,1,,2,S,0,S,13,0.792176,0,0
27,68,7,2,0,0,1,,5,S,0,S,12,0.800665,0,0
27,69,7,8,0,0,1,,1,S,0,S,17,0.00375,0.771784,0.002894
27,70,8,9,0,0,1,,1,S,0,S,18,0.015952,0.763837,0.012184
27,71,5,9,0,0,1,,4,S,0,S,13,0,0.771479,0
27,72,8,7,0,0,1,,1,S,0,S,21,0.764041,0.018052,0.013793
28,1,6,2,0,0,1,,4,S,0,S,12,0.750875,0.001798,0.00135
28,2,4,3,0,0,1,,1,S,0,S,16,0.767024,0.005587,0.004285
28,3,7,5,0,0,1,,2,S,0,S,15,0.792687,0,0
28,4,9,2,0,0,1,,7,L,0,S,11,0.771858,0,0
28,5,9,5,0,0,1,,4,S,0,S,13,0.785314,0,0
28,6,5,9,0,0,1,,4,S,0,S,13,0,0.768741,0
28,7,6,3,0,0,1,,3,S,0,S,13,0.754729,0.002908,0.002195
28,8,5,8,0,0,1,,3,S,0,S,14,0,0.783256,0
28,9,4,1,0,0,1,,3,S,0,S,12,0.800174,0,0
28,10,8,2,0,0,1,,6,S,0,S,12,0.802462,0,0
28,11,9,3,0,0,1,,6,S,0,S,12,0.800761,0,0
28,12,8,6,0,0,1,,2,S,0,S,16,0.783206,0,0
28,13,6,8,0,0,1,,2,S,0,S,15,0,0.786414,0
28,14,3,5,0,0,1,,2,S,0,S,14,0,0.770031,0
28,15,5,6,0,0,1,,1,S,0,S,17,0.014053,0.760088,0.010682
28,16,5,3,0,0,1,,2,S,0,S,14,0.779152,0,0
28,17,8,5,0,0,1,,3,S,0,S,14,0.781046,0,0
28,18,2,5,0,0,1,,3,S,0,S,13,0,0.795731,0
28,19,2,4,0,0,1,,2,S,0,S,14,0,0.795344,0
28,20,2,8,0,0,1,,6,S,0,S,11,0,0.762911,0
28,21,5,4,0,0,1,,1,S,0,S,16,0.778456,0,0
28,22,4,7,0,0,1,,3,S,0,S,13,0.002994,0.762083,0.002282
28,23,9,6,0,0,1,,3,S,0,S,14,0.775423,0,0
28,24,2,3,0,0,1,,1,S,0,S,16,0,0.792178,0
28,25,1,9,0,0,1,,8,L,0,S,10,0,0.755097,0
28,26,3,8,0,0,1,,5,S,0,S,12,0,0.781221,0
28,27,4,2,0,0,1,,2,S,0,S,14,0.77244,0,0
28,28,4,9,0,0,1,,5,S,0,S,12,0,0.766779,0
28,29,8,3,0,0,1,,5,S,0,S,12,0.769072,0,0
28,30,1,7,0,0,1,,6,S,0,S,11,0,0.793189,0
28,31,8,9,0,0,1,,1,S,0,S,17,0.017112,0.758919,0.012986
28,32,6,5,0,0,1,,1,S,0,S,18,0.789159,0,0
28,33,4,5,0,0,1,,1,S,0,S,16,0.019238,0.754468,0.014514
28,34,8,7,0,0,1,,1,S,0,S,19,0.78555,0,0
28,35,2,6,0,0,1,,4,S,0,S,12,0,0.774999,0
28,36,1,5,0,0,1,,4,S,0,S,11,0,0.753373,0
28,37,3,7,0,0,1,,4,S,0,S,12,0.00013,0.756569,9.8E-05
28,38,1,2,0,0,1,,1,S,0,S,14,0,0.787482,0
28,39,7,3,0,0,1,,4,S,0,S,12,0.752492,0.00134,0.001008
28,40,5,2,0,0,1,,3,S,0,S,13,0.786677,0,0
28,41,3,1,0,0,1,,2,S,0,S,12,0.762352,0,0
28,42,7,2,0,0,1,,5,S,0,S,12,0.790176,0,0
28,43,5,1,0,0,1,,4,S,0,S,11,0.772326,0,0
28,44,7,8,0,0,1,,1,S,0,S,17,0.022392,0.753738,0.016878
28,45,4,6,0,0,1,,2,S,0,S,14,0.008023,0.758374,0.006084
28,46,1,4,0,0,1,,3,S,0,S,12,0,0.780525,0
28,47,6,7,0,0,1,,1,S,0,S,16,0.016085,0.755296,0.012149
28,48,6,4,0,0,1,,2,S,0,S,15,0.781625,0,0
28,49,8,1,0,0,1,,7,L,0,S,11,0.80904,0,0
28,50,2,1,0,0,1,,1,S,0,S,14,0.798699,0,0
28,51,1,3,0,0,1,,2,S,0,S,13,0,0.785522,0
28,52,2,9,0,0,1,,7,L,0,S,11,0,0.777686,0
28,53,3,6,0,0,1,,3,S,0,S,13,0,0.772562,0
28,54,2,7,0,0,1,,5,S,0,S,12,0,0.801849,0
28,55,7,6,0,0,1,,1,S,0,S,18,0.793672,0,0
28,56,3,9,0,0,1,,6,S,0,S,12,0,0.800245,0
28,57,6,1,0,0,1,,5,S,0,S,11,0.780653,0,0
28,58,9,8,0,0,1,,1,S,0,S,17,0.759082,0.018795,0.014267
28,59,5,7,0,0,1,,2,S,0,S,15,0,0.776837,0
28,60,3,2,0,0,1,,1,S,0,S,16,0.752086,0.017525,0.01318
28,61,7,1,0,0,1,,6,S,0,S,11,0.802823,0,0
28,62,1,6,0,0,1,,5,S,0,S,11,0,0.774036,0
28,63,9,1,0,0,1,,8,L,0,S,10,0.76609,0,0
28,64,6,9,0,0,1,,3,S,0,S,14,0,0.784318,0
28,65,4,8,0,0,1,,4,S,0,S,13,0,0.795628,0
28,66,1,8,0,0,1,,7,L,0,S,11,0,0.805173,0
28,67,7,9,0,0,1,,2,S,0,S,15,0.01863,0.75359,0.014039
28,68,8,4,0,0,1,,4,S,0,S,13,0.782454,0,0
28,69,9,7,0,0,1,,2,S,0,S,15,0.764828,0.009494,0.007261
28,70,3,4,0,0,1,,1,S,0,S,16,0.007132,0.76685,0.005469
28,71,9,4,0,0,1,,5,S,0,S,12,0.769747,0,0
28,72,7,4,0,0,1,,3,S,0,S,13,0.75868,0.004816,0.003654
29,1,9,3,0,0,1,,6,S,0,S,11,0.771607,0,0
29,2,9,8,0,0,1,,1,S,0,S,20,0.774154,0.005927,0.004589
29,3,3,9,0,0,1,,6,S,0,S,12,0,0.801775,0
29,4,3,6,0,0,1,,3,S,0,S,14,0,0.796215,0
29,5,3,2,0,0,1,,1,S,0,S,14,0.762383,0.003439,0.002621
29,6,7,6,0,0,1,,1,S,0,S,16,0.765878,0.006986,0.00535
29,7,8,6,0,0,1,,2,S,0,S,14,0.779882,0,0
29,8,1,2,0,0,1,,1,S,0,S,15,0,0.782028,0
29,9,7,5,0,0,1,,2,S,0,S,15,0.768889,0.002835,0.00218
29,10,1,9,0,0,1,,8,L,0,S,10,0,0.761011,0
29,11,5,9,0,0,1,,4,S,0,S,13,0,0.800316,0
29,12,5,4,0,0,1,,1,S,0,S,18,0.787059,0,0
29,13,9,4,0,0,1,,5,S,0,S,12,0.780225,0,0
29,14,4,3,0,0,1,,1,S,0,S,16,0.791526,0,0
29,15,6,2,0,0,1,,4,S,0,S,12,0.793142,0,0
29,16,9,2,0,0,1,,7,L,0,S,11,0.796637,0,0
29,17,8,9,0,0,1,,1,S,0,S,21,0.008694,0.776089,0.006747
29,18,5,3,0,0,1,,2,S,0,S,14,0.796552,0,0
29,19,2,5,0,0,1,,3,S,0,S,12,0,0.768248,0
29,20,2,7,0,0,1,,5,S,0,S,11,0,0.762405,0
29,21,9,1,0,0,1,,8,L,0,S,10,0.771108,0,0
29,22,7,1,0,0,1,,6,S,0,S,11,0.803833,0,0
29,23,7,8,0,0,1,,1,S,0,S,15,0.005193,0.767482,0.003985
29,24,1,7,0,0,1,,6,S,0,S,11,0,0.798219,0
29,25,2,1,0,0,1,,1,S,0,S,14,0.779988,0,0
29,26,7,3,0,0,1,,4,S,0,S,12,0.780328,0,0
29,27,3,1,0,0,1,,2,S,0,S,12,0.769607,0,0
29,28,6,4,0,0,1,,2,S,0,S,14,0.753532,0.012727,0.00959
29,29,8,4,0,0,1,,4,S,0,S,12,0.758221,0,0
29,30,1,3,0,0,1,,2,S,0,S,13,0,0.76841,0
29,31,2,3,0,0,1,,1,S,0,S,16,0,0.784185,0
29,32,8,3,0,0,1,,5,S,0,S,11,0.756745,0,0
29,33,4,2,0,0,1,,2,S,0,S,14,0.796811,0,0
29,34,5,1,0,0,1,,4,S,0,S,11,0.764055,0,0
29,35,3,7,0,0,1,,4,S,0,S,12,0.001355,0.75501,0.001023
29,36,5,7,0,0,1,,2,S,0,S,14,0,0.774798,0
29,37,7,4,0,0,1,,3,S,0,S,13,0.758275,0.004335,0.003287
29,38,5,2,0,0,1,,3,S,0,S,12,0.752637,0.002421,0.001822
29,39,8,2,0,0,1,,6,S,0,S,11,0.785202,0,0
29,40,9,6,0,0,1,,3,S,0,S,13,0.766148,0,0
29,41,3,5,0,0,1,,2,S,0,S,14,0,0.77135,0
29,42,8,5,0,0,1,,3,S,0,S,13,0.755543,0.005263,0.003977
29,43,4,1,0,0,1,,3,S,0,S,12,0.786379,0,0
29,44,7,9,0,0,1,,2,S,0,S,15,0.007244,0.767581,0.005561
29,45,8,7,0,0,1,,1,S,0,S,16,0.775838,0.002601,0.002018
29,46,2,8,0,0,1,,6,S,0,S,11,0,0.791969,0
29,47,6,1,0,0,1,,5,S,0,S,11,0.789805,0,0
29,48,1,8,0,0,1,,7,L,0,S,10,0,0.759372,0
29,49,2,6,0,0,1,,4,S,0,S,12,0,0.781201,0
29,50,1,4,0,0,1,,3,S,0,S,12,0,0.786794,0
29,51,2,4,0,0,1,,2,S,0,S,13,0,0.77513,0
29,52,2,9,0,0,1,,7,L,0,S,11,0,0.79377,0
29,53,3,8,0,0,1,,5,S,0,S,12,0,0.799811,0
29,54,6,7,0,0,1,,1,S,0,S,17,0,0.790241,0
29,55,8,1,0,0,1,,7,L,0,S,10,0.762375,0,0
29,56,4,9,0,0,1,,5,S,0,S,12,0,0.785399,0
29,57,9,7,0,0,1,,2,S,0,S,15,0.797063,0,0
29,58,3,4,0,0,1,,1,S,0,S,16,0.018408,0.75145,0.013832
29,59,4,7,0,0,1,,3,S,0,S,13,0,0.785399,0
29,60,6,9,0,0,1,,3,S,0,S,14,0,0.789399,0
29,61,4,8,0,0,1,,4,S,0,S,12,0,0.783457,0
29,62,5,6,0,0,1,,1,S,0,S,17,0,0.781465,0
29,63,6,5,0,0,1,,1,S,0,S,18,0.784431,0,0
29,64,4,6,0,0,1,,2,S,0,S,14,0.003894,0.760565,0.002962
29,65,9,5,0,0,1,,4,S,0,S,13,0.786993,0,0
29,66,6,8,0,0,1,,2,S,0,S,14,0,0.788022,0
29,67,5,8,0,0,1,,3,S,0,S,13,0,0.798476,0
29,68,1,5,0,0,1,,4,S,0,S,11,0,0.760383,0
29,69,7,2,0,0,1,,5,S,0,S,11,0.758486,0,0
29,70,1,6,0,0,1,,5,S,0,S,11,0,0.769484,0
29,71,6,3,0,0,1,,3,S,0,S,12,0.750162,0.004599,0.00345
29,72,4,5,0,0,1,,1,S,0,S,15,0,0.776038,0
30,1,3,6,0,0,1,,3,S,0,S,13,0,0.795652,0
30,2,1,6,0,0,1,,5,S,0,S,11,0,0.794314,0
30,3,7,8,0,0,1,,1,S,0,S,19,0.015268,0.765285,0.011684
30,4,9,2,0,0,1,,7,L,0,S,11,0.773162,0,0
30,5,6,2,0,0,1,,4,S,0,S,12,0.774104,0,0
30,6,7,5,0,0,1,,2,S,0,S,14,0.76387,0.002543,0.001943
30,7,4,5,0,0,1,,1,S,0,S,16,0,0.776711,0
30,8,4,7,0,0,1,,3,S,0,S,13,0,0.775394,0
30,9,5,7,0,0,1,,2,S,0,S,15,0,0.776045,0
30,10,2,6,0,0,1,,4,S,0,S,12,0,0.772795,0
30,11,5,1,0,0,1,,4,S,0,S,11,0.763048,0,0
30,12,5,9,0,0,1,,4,S,0,S,13,0,0.771399,0
30,13,6,9,0,0,1,,3,S,0,S,14,0,0.773553,0
30,14,6,1,0,0,1,,5,S,0,S,11,0.778756,0,0
30,15,7,1,0,0,1,,6,S,0,S,11,0.799988,0,0
30,16,5,4,0,0,1,,1,S,0,S,17,0.787831,0,0
30,17,2,4,0,0,1,,2,S,0,S,14,0,0.781486,0
30,18,8,4,0,0,1,,4,S,0,S,13,0.785549,0,0
30,19,5,2,0,0,1,,3,S,0,S,13,0.801583,0,0
30,20,7,9,0,0,1,,2,S,0,S,16,0,0.781206,0
30,21,6,7,0,0,1,,1,S,0,S,17,0.007174,0.764866,0.005487
30,22,2,7,0,0,1,,5,S,0,S,12,0,0.790829,0
30,23,6,3,0,0,1,,3,S,0,S,13,0.761957,0,0
30,24,3,4,0,0,1,,1,S,0,S,15,0,0.771064,0
30,25,4,1,0,0,1,,3,S,0,S,12,0.777466,0,0
30,26,1,3,0,0,1,,2,S,0,S,12,0,0.77232,0
30,27,9,4,0,0,1,,5,S,0,S,13,0.80015,0,0
30,28,1,5,0,0,1,,4,S,0,S,11,0,0.766027,0
30,29,5,8,0,0,1,,3,S,0,S,14,0,0.782629,0
30,30,8,3,0,0,1,,5,S,0,S,12,0.777736,0,0
30,31,7,3,0,0,1,,4,S,0,S,12,0.756347,0,0
30,32,2,1,0,0,1,,1,S,0,S,13,0.753919,0.005867,0.004423
30,33,8,1,0,0,1,,7,L,0,S,11,0.809803,0,0
30,34,3,9,0,0,1,,6,S,0,S,11,0,0.750412,0
30,35,8,6,0,0,1,,2,S,0,S,15,0.751846,0.01654,0.012435
30,36,7,2,0,0,1,,5,S,0,S,12,0.805517,0,0
30,37,2,9,0,0,1,,7,L,0,S,11,0,0.771052,0
30,38,9,5,0,0,1,,4,S,0,S,13,0.769523,0,0
30,39,4,2,0,0,1,,2,S,0,S,14,0.775112,0,0
30,40,8,9,0,0,1,,1,S,0,S,18,0.001538,0.777588,0.001196
30,41,4,6,0,0,1,,2,S,0,S,14,0,0.794354,0
30,42,3,2,0,0,1,,1,S,0,S,16,0.754809,0.010841,0.008183
30,43,3,5,0,0,1,,2,S,0,S,14,0,0.777538,0
30,44,7,6,0,0,1,,1,S,0,S,17,0.759192,0.01472,0.011175
30,45,2,8,0,0,1,,6,S,0,S,11,0,0.755945,0
30,46,5,6,0,0,1,,1,S,0,S,16,0.019397,0.750695,0.014562
30,47,8,5,0,0,1,,3,S,0,S,13,0.751321,0.008143,0.006118
30,48,7,4,0,0,1,,3,S,0,S,13,0.755953,0.003829,0.002895
30,49,6,4,0,0,1,,2,S,0,S,15,0.781909,0,0
30,50,3,7,0,0,1,,4,S,0,S,12,0,0.764389,0
30,51,1,9,0,0,1,,8,L,0,S,10,0,0.765945,0
30,52,3,8,0,0,1,,5,S,0,S,12,0,0.790078,0
30,53,9,6,0,0,1,,3,S,0,S,15,0.784058,0,0
30,54,5,3,0,0,1,,2,S,0,S,14,0.768354,0,0
30,55,1,4,0,0,1,,3,S,0,S,12,0,0.80404,0
30,56,8,7,0,0,1,,1,S,0,S,18,0.786196,0,0
30,57,9,3,0,0,1,,6,S,0,S,12,0.788985,0,0
30,58,2,5,0,0,1,,3,S,0,S,13,0,0.771207,0
30,59,8,2,0,0,1,,6,S,0,S,11,0.764599,0,0
30,60,6,5,0,0,1,,1,S,0,S,16,0.752447,0.015361,0.011558
30,61,9,7,0,0,1,,2,S,0,S,16,0.750839,0.019872,0.014921
30,62,2,3,0,0,1,,1,S,0,S,16,0,0.776085,0
30,63,9,1,0,0,1,,8,L,0,S,10,0.755905,0,0
30,64,1,2,0,0,1,,1,S,0,S,13,0.00357,0.751792,0.002684
30,65,4,8,0,0,1,,4,S,0,S,12,0.002551,0.754456,0.001924
30,66,4,3,0,0,1,,1,S,0,S,18,0.764651,0.010678,0.008165
30,67,4,9,0,0,1,,5,S,0,S,12,0,0.777956,0
30,68,9,8,0,0,1,,1,S,0,S,19,0.76871,0.014765,0.01135
30,69,3,1,0,0,1,,2,S,0,S,13,0.781939,0,0
30,70,1,7,0,0,1,,6,S,0,S,11,0,0.803104,0
30,71,6,8,0,0,1,,2,S,0,S,15,0.009017,0.762443,0.006875
30,72,1,8,0,0,1,,7,L,0,S,10,0,0.757284,0
