ANN,trial,N1,N2,P1,P2,Succ.,,Ndist,Ndist,Pdist,Pdist,rt,a1,a2,x_acc,,Size
1,1,8,3,0,0,1,,5,S,0,S,16,0.792595,0.007421,0.005882,,0
1,2,3,1,0,0,1,,2,S,0,S,17,0.791846,0.011777,0.009325,,0
1,3,5,1,0,0,1,,4,S,0,S,14,0.790486,0.004735,0.003743,,0
1,4,2,7,0,0,1,,5,S,0,S,16,0.025759,0.770242,0.01984,,0
1,5,6,9,0,0,1,,3,S,0,S,17,0.018484,0.783263,0.014478,,0
1,6,4,3,0,0,0,,1,S,0,S,24,0.041043,0.759212,0.03116,,0
1,7,6,8,0,0,1,,2,S,0,S,15,0.016693,0.778011,0.012987,,0
1,8,6,3,0,0,1,,3,S,0,S,19,0.794262,0.011747,0.00933,,0
1,9,2,6,0,0,1,,4,S,0,S,14,0.016547,0.77472,0.012819,,0
1,10,4,9,0,0,1,,5,S,0,S,15,0.02675,0.76448,0.02045,,0
1,11,5,2,0,0,1,,3,S,0,S,15,0.775345,0.021401,0.016593,,0
1,12,4,1,0,0,1,,3,S,0,S,15,0.773096,0.020393,0.015766,,0
1,13,3,5,0,0,1,,2,S,0,S,16,0.029968,0.764539,0.022911,,0
1,14,2,1,0,0,1,,1,S,0,S,15,0.786001,0.011598,0.009116,,S
1,15,5,4,0,0,1,,1,S,0,S,19,0.755795,0.045845,0.034649,,0
1,16,3,4,0,0,1,,1,S,0,S,16,0.024876,0.77469,0.019271,,0
1,17,7,9,0,0,1,,2,S,0,S,18,0.045729,0.750333,0.034312,,0
1,18,4,5,0,0,1,,1,S,0,S,19,0.037484,0.760067,0.02849,,0
1,19,7,6,0,0,0,,1,S,0,S,16,0.005603,0.796761,0.004464,,0
1,20,9,6,0,0,1,,3,S,0,S,20,0.755063,0.045664,0.034479,,0
1,21,5,9,0,0,1,,4,S,0,S,18,0.014832,0.79038,0.011723,,0
1,22,6,5,0,0,1,,1,S,0,S,22,0.774218,0.029883,0.023136,,0
1,23,9,3,0,0,1,,6,S,0,S,14,0.792589,0.002244,0.001779,,0
1,24,9,5,0,0,1,,4,S,0,S,14,0.770597,0.019165,0.014768,,0
1,25,8,7,0,0,1,,1,S,0,S,22,0.771337,0.031323,0.02416,,0
1,26,4,8,0,0,1,,4,S,0,S,14,0.015001,0.773723,0.011606,,0
1,27,7,8,0,0,1,,1,S,0,S,16,0.010341,0.789231,0.008161,,0
1,28,1,8,0,0,1,,7,L,0,S,13,0.012485,0.772674,0.009647,,0
1,29,6,2,0,0,1,,4,S,0,S,15,0.751827,0.039355,0.029588,,0
1,30,3,6,0,0,1,,3,S,0,S,13,0.017981,0.76598,0.013773,,0
1,31,8,9,0,0,1,,1,S,0,S,25,0.01913,0.788653,0.015087,,L
1,32,9,8,0,0,1,,1,S,0,S,20,0.769171,0.033102,0.025461,,L
1,33,8,6,0,0,0,,2,S,0,S,17,0.019892,0.780874,0.015533,,0
1,34,8,4,0,0,1,,4,S,0,S,16,0.752221,0.041915,0.03153,,0
1,35,6,4,0,0,1,,2,S,0,S,22,0.772222,0.034659,0.026764,,0
1,36,4,7,0,0,1,,3,S,0,S,16,0.016566,0.780307,0.012926,,0
1,37,5,6,0,0,1,,1,S,0,S,15,0.02853,0.764755,0.021819,,0
1,38,3,9,0,0,1,,6,S,0,S,14,0.018618,0.771377,0.014361,,0
1,39,1,9,0,0,1,,8,L,0,S,14,0.008228,0.785722,0.006465,,0
1,40,5,7,0,0,1,,2,S,0,S,19,0.046935,0.750518,0.035226,,0
1,41,7,3,0,0,1,,4,S,0,S,17,0.778458,0.021074,0.016405,,0
1,42,1,4,0,0,1,,3,S,0,S,15,0.041648,0.750231,0.031246,,0
1,43,2,9,0,0,1,,7,L,0,S,15,0.034072,0.756691,0.025782,,0
1,44,9,1,0,0,1,,8,L,0,S,12,0.763372,0.013911,0.01062,,0
1,45,8,2,0,0,1,,6,S,0,S,14,0.77055,0.020105,0.015492,,0
1,46,3,2,0,0,1,,1,S,0,S,26,0.750161,0.052531,0.039407,,0
1,47,1,2,0,0,1,,1,S,0,S,23,0.026852,0.782331,0.021007,,S
1,48,8,1,0,0,1,,7,L,0,S,13,0.767651,0.016216,0.012448,,0
1,49,2,4,0,0,1,,2,S,0,S,20,0.021318,0.787212,0.016782,,0
1,50,5,3,0,0,1,,2,S,0,S,17,0.752621,0.0422,0.031761,,0
1,51,6,1,0,0,1,,5,S,0,S,14,0.776063,0.015535,0.012056,,0
1,52,5,8,0,0,1,,3,S,0,S,15,0.032802,0.757705,0.024854,,0
1,53,3,8,0,0,1,,5,S,0,S,13,0.020192,0.761654,0.015379,,0
1,54,7,4,0,0,1,,3,S,0,S,18,0.755241,0.044095,0.033302,,0
1,55,2,5,0,0,1,,3,S,0,S,20,0.032829,0.768946,0.025244,,0
1,56,2,3,0,0,0,,1,S,0,S,41,0.781849,0.025256,0.019746,,0
1,57,9,4,0,0,1,,5,S,0,S,14,0.775628,0.017893,0.013878,,0
1,58,1,7,0,0,1,,6,S,0,S,14,0.023824,0.764584,0.018216,,0
1,59,9,7,0,0,1,,2,S,0,S,15,0.75103,0.038228,0.028711,,0
1,60,7,2,0,0,1,,5,S,0,S,15,0.78711,0.011469,0.009027,,0
1,61,7,5,0,0,1,,2,S,0,S,18,0.750635,0.044646,0.033512,,0
1,62,4,6,0,0,1,,2,S,0,S,14,0.012146,0.778891,0.00946,,0
1,63,6,7,0,0,1,,1,S,0,S,18,0.030744,0.768887,0.023639,,0
1,64,4,2,0,0,1,,2,S,0,S,18,0.796147,0.010012,0.007971,,0
1,65,8,5,0,0,1,,3,S,0,S,17,0.795606,0.00709,0.005641,,0
1,66,9,2,0,0,1,,7,L,0,S,13,0.786141,0.004258,0.003348,,0
1,67,1,3,0,0,1,,2,S,0,S,17,0.010442,0.793053,0.008281,,0
1,68,1,6,0,0,1,,5,S,0,S,13,0.010398,0.776797,0.008077,,0
1,69,2,8,0,0,1,,6,S,0,S,14,0.019493,0.769432,0.014999,,0
1,70,1,5,0,0,1,,4,S,0,S,16,0.009719,0.791274,0.00769,,0
1,71,3,7,0,0,1,,4,S,0,S,15,0,0.799502,0,,0
1,72,7,1,0,0,1,,6,S,0,S,14,0.797496,0,0,,0
2,1,6,3,0,0,1,,3,S,0,S,15,0.754273,0.034509,0.026029,,0
2,2,8,9,0,0,1,,1,S,0,S,17,0.034261,0.76065,0.026061,,L
2,3,9,2,0,0,1,,7,L,0,S,15,0.789713,0.010025,0.007917,,0
2,4,8,2,0,0,1,,6,S,0,S,16,0.791583,0.008721,0.006903,,0
2,5,7,5,0,0,1,,2,S,0,S,15,0.775419,0.02071,0.016059,,0
2,6,7,9,0,0,0,,2,S,0,S,24,0.779983,0.02538,0.019796,,0
2,7,5,6,0,0,1,,1,S,0,S,17,0.029698,0.769081,0.02284,,0
2,8,4,1,0,0,1,,3,S,0,S,15,0.78857,0.009427,0.007434,,0
2,9,2,5,0,0,1,,3,S,0,S,15,0.020002,0.778071,0.015563,,0
2,10,6,2,0,0,1,,4,S,0,S,18,0.792855,0.010386,0.008235,,0
2,11,3,8,0,0,1,,5,S,0,S,15,0.025291,0.771267,0.019506,,0
2,12,4,8,0,0,1,,4,S,0,S,16,0.024259,0.773732,0.01877,,0
2,13,9,4,0,0,1,,5,S,0,S,14,0.776089,0.017175,0.01333,,0
2,14,3,4,0,0,0,,1,S,0,S,18,0.79156,0.014653,0.011599,,0
2,15,4,9,0,0,1,,5,S,0,S,15,0.025999,0.764144,0.019867,,0
2,16,2,7,0,0,1,,5,S,0,S,14,0.018771,0.770497,0.014463,,0
2,17,3,6,0,0,1,,3,S,0,S,16,0.034594,0.759524,0.026275,,0
2,18,4,5,0,0,1,,1,S,0,S,25,0.014705,0.795384,0.011696,,0
2,19,5,4,0,0,1,,1,S,0,S,17,0.791724,0.013222,0.010468,,0
2,20,6,1,0,0,1,,5,S,0,S,15,0.800746,0,0,,0
2,21,1,2,0,0,1,,1,S,0,S,15,0.036519,0.754773,0.027564,,S
2,22,6,5,0,0,1,,1,S,0,S,25,0.752945,0.048169,0.036269,,0
2,23,3,5,0,0,1,,2,S,0,S,19,0.027359,0.778735,0.021306,,0
2,24,7,6,0,0,1,,1,S,0,S,17,0.791641,0.010478,0.008294,,0
2,25,8,6,0,0,1,,2,S,0,S,27,0.777994,0.026594,0.02069,,0
2,26,2,8,0,0,1,,6,S,0,S,13,0.031799,0.75113,0.023885,,0
2,27,6,8,0,0,1,,2,S,0,S,17,0.007482,0.797025,0.005963,,0
2,28,1,5,0,0,1,,4,S,0,S,14,0.024798,0.766651,0.019011,,0
2,29,3,1,0,0,1,,2,S,0,S,15,0.75814,0.035204,0.026689,,0
2,30,9,8,0,0,1,,1,S,0,S,33,0.760933,0.047141,0.035871,,L
2,31,3,9,0,0,1,,6,S,0,S,15,0,0.801402,0,,0
2,32,5,3,0,0,1,,2,S,0,S,16,0.778605,0.02149,0.016732,,0
2,33,5,8,0,0,1,,3,S,0,S,16,0.00958,0.795418,0.00762,,0
2,34,1,8,0,0,1,,7,L,0,S,13,0.012388,0.776468,0.009619,,0
2,35,8,1,0,0,1,,7,L,0,S,14,0.792619,0.002949,0.002338,,0
2,36,1,9,0,0,1,,8,L,0,S,13,0,0.789887,0,,0
2,37,8,4,0,0,1,,4,S,0,S,15,0.790235,0.007422,0.005865,,0
2,38,1,7,0,0,1,,6,S,0,S,14,0,0.800208,0,,0
2,39,7,8,0,0,0,,1,S,0,S,18,0.752743,0.045969,0.034603,,0
2,40,7,3,0,0,1,,4,S,0,S,13,0.763496,0.019919,0.015208,,0
2,41,9,7,0,0,1,,2,S,0,S,19,0.761556,0.038467,0.029294,,0
2,42,4,3,0,0,1,,1,S,0,S,16,0.787073,0.01239,0.009752,,0
2,43,3,7,0,0,1,,4,S,0,S,16,0.032848,0.76061,0.024984,,0
2,44,8,7,0,0,1,,1,S,0,S,29,0.756453,0.042956,0.032494,,0
2,45,7,2,0,0,1,,5,S,0,S,14,0.773976,0.016499,0.01277,,0
2,46,5,9,0,0,1,,4,S,0,S,15,0.01474,0.781704,0.011522,,0
2,47,2,1,0,0,1,,1,S,0,S,21,0.793512,0.017619,0.013981,,S
2,48,1,4,0,0,1,,3,S,0,S,17,0.013768,0.790979,0.01089,,0
2,49,2,3,0,0,1,,1,S,0,S,22,0.019535,0.790356,0.01544,,0
2,50,8,5,0,0,1,,3,S,0,S,18,0.784508,0.019667,0.015429,,0
2,51,9,5,0,0,1,,4,S,0,S,16,0.769358,0.030539,0.023495,,0
2,52,5,1,0,0,1,,4,S,0,S,15,0.783706,0.015559,0.012194,,0
2,53,6,9,0,0,1,,3,S,0,S,16,0.004184,0.795044,0.003326,,0
2,54,9,1,0,0,1,,8,L,0,S,13,0.767089,0.019927,0.015286,,0
2,55,7,4,0,0,1,,3,S,0,S,13,0.750349,0.029788,0.022351,,0
2,56,2,6,0,0,1,,4,S,0,S,14,0.019386,0.770751,0.014942,,0
2,57,7,1,0,0,1,,6,S,0,S,13,0.788045,0.002184,0.001721,,0
2,58,2,9,0,0,1,,7,L,0,S,13,0.016548,0.767924,0.012707,,0
2,59,1,6,0,0,1,,5,S,0,S,14,0,0.800691,0,,0
2,60,3,2,0,0,1,,1,S,0,S,22,0.791867,0.017291,0.013692,,0
2,61,2,4,0,0,1,,2,S,0,S,19,0.031929,0.77202,0.02465,,0
2,62,6,7,0,0,1,,1,S,0,S,19,0.010634,0.791522,0.008417,,0
2,63,8,3,0,0,1,,5,S,0,S,14,0.758144,0.028511,0.021616,,0
2,64,5,7,0,0,1,,2,S,0,S,17,0.027282,0.770985,0.021034,,0
2,65,6,4,0,0,1,,2,S,0,S,16,0.775975,0.020464,0.015879,,0
2,66,9,6,0,0,1,,3,S,0,S,19,0.773398,0.030017,0.023215,,0
2,67,5,2,0,0,1,,3,S,0,S,19,0.774195,0.029652,0.022956,,0
2,68,4,6,0,0,1,,2,S,0,S,18,0.016563,0.784512,0.012994,,0
2,69,4,2,0,0,1,,2,S,0,S,18,0.755116,0.040821,0.030824,,0
2,70,4,7,0,0,1,,3,S,0,S,18,0.013731,0.786917,0.010805,,0
2,71,9,3,0,0,1,,6,S,0,S,14,0.791872,0.005042,0.003993,,0
2,72,1,3,0,0,1,,2,S,0,S,18,0.014044,0.792816,0.011134,,0
3,1,2,4,0,0,1,,2,S,0,S,16,0.034273,0.759826,0.026041,,0
3,2,4,6,0,0,1,,2,S,0,S,15,0.034622,0.757927,0.026241,,0
3,3,5,7,0,0,1,,2,S,0,S,17,0.03321,0.759563,0.025225,,0
3,4,5,6,0,0,1,,1,S,0,S,24,0.044116,0.757965,0.033438,,0
3,5,4,7,0,0,1,,3,S,0,S,14,0.023366,0.763089,0.01783,,0
3,6,4,2,0,0,1,,2,S,0,S,21,0.77666,0.029513,0.022922,,0
3,7,7,8,0,0,0,,1,S,0,S,19,0.761385,0.038683,0.029453,,0
3,8,9,1,0,0,1,,8,L,0,S,12,0.760639,0.014685,0.01117,,0
3,9,7,6,0,0,1,,1,S,0,S,18,0.760844,0.039369,0.029954,,0
3,10,6,1,0,0,1,,5,S,0,S,14,0.793546,0.002488,0.001974,,0
3,11,7,3,0,0,1,,4,S,0,S,15,0.798761,0.001601,0.001279,,0
3,12,3,7,0,0,1,,4,S,0,S,14,0.014313,0.775757,0.011103,,0
3,13,1,7,0,0,1,,6,S,0,S,14,0.003422,0.789373,0.002701,,0
3,14,5,2,0,0,1,,3,S,0,S,15,0.768814,0.024045,0.018486,,0
3,15,8,3,0,0,1,,5,S,0,S,14,0.799793,0,0,,0
3,16,3,9,0,0,1,,6,S,0,S,13,0.025529,0.758002,0.019351,,0
3,17,2,1,0,0,1,,1,S,0,S,16,0.784369,0.013625,0.010687,,S
3,18,7,2,0,0,1,,5,S,0,S,14,0.775074,0.016906,0.013104,,0
3,19,9,4,0,0,1,,5,S,0,S,14,0.750889,0.03521,0.026439,,0
3,20,9,2,0,0,1,,7,L,0,S,13,0.779584,0.008544,0.006661,,0
3,21,2,6,0,0,1,,4,S,0,S,15,0.037425,0.752954,0.028179,,0
3,22,9,5,0,0,1,,4,S,0,S,15,0.752758,0.03799,0.028598,,0
3,23,6,8,0,0,1,,2,S,0,S,20,0.049,0.752022,0.036849,,0
3,24,6,9,0,0,1,,3,S,0,S,15,0.035791,0.757939,0.027127,,0
3,25,1,4,0,0,1,,3,S,0,S,15,0.029488,0.763769,0.022522,,0
3,26,7,9,0,0,1,,2,S,0,S,18,0.017375,0.787988,0.013691,,0
3,27,8,2,0,0,1,,6,S,0,S,13,0.766505,0.017458,0.013382,,0
3,28,4,8,0,0,1,,4,S,0,S,15,0.025221,0.768202,0.019375,,0
3,29,8,7,0,0,1,,1,S,0,S,18,0.764673,0.031498,0.024086,,0
3,30,6,3,0,0,1,,3,S,0,S,16,0.779378,0.02136,0.016647,,0
3,31,3,6,0,0,1,,3,S,0,S,15,0.021018,0.776272,0.016316,,0
3,32,8,4,0,0,1,,4,S,0,S,15,0.780776,0.014901,0.011634,,0
3,33,6,5,0,0,0,,1,S,0,S,20,0.017731,0.792201,0.014046,,0
3,34,8,6,0,0,1,,2,S,0,S,16,0.799767,0.003622,0.002897,,0
3,35,5,3,0,0,1,,2,S,0,S,16,0.777872,0.019163,0.014907,,0
3,36,1,8,0,0,1,,7,L,0,S,14,0.03412,0.751828,0.025653,,0
3,37,9,3,0,0,1,,6,S,0,S,13,0.760992,0.022037,0.01677,,0
3,38,3,5,0,0,1,,2,S,0,S,15,0.006781,0.793656,0.005382,,0
3,39,4,1,0,0,1,,3,S,0,S,16,0.784794,0.014346,0.011259,,0
3,40,2,3,0,0,1,,1,S,0,S,25,0.044105,0.757731,0.03342,,0
3,41,2,7,0,0,1,,5,S,0,S,14,0.025368,0.759166,0.019258,,0
3,42,7,4,0,0,1,,3,S,0,S,17,0.781521,0.020415,0.015955,,0
3,43,2,9,0,0,1,,7,L,0,S,14,0,0.797919,0,,0
3,44,9,7,0,0,1,,2,S,0,S,17,0.768703,0.027941,0.021478,,0
3,45,9,8,0,0,1,,1,S,0,S,15,0.759297,0.032148,0.02441,,L
3,46,7,5,0,0,1,,2,S,0,S,20,0.780077,0.025608,0.019976,,0
3,47,3,8,0,0,1,,5,S,0,S,15,0.012745,0.785093,0.010006,,0
3,48,3,1,0,0,1,,2,S,0,S,16,0.765753,0.029993,0.022968,,0
3,49,6,7,0,0,1,,1,S,0,S,17,0.020139,0.78068,0.015722,,0
3,50,5,1,0,0,1,,4,S,0,S,14,0.789821,0.002351,0.001857,,0
3,51,4,5,0,0,1,,1,S,0,S,15,0.018621,0.777648,0.014481,,0
3,52,4,9,0,0,1,,5,S,0,S,14,0,0.801282,0,,0
3,53,1,9,0,0,1,,8,L,0,S,13,0.016565,0.769246,0.012743,,0
3,54,5,4,0,0,1,,1,S,0,S,22,0.794887,0.012887,0.010244,,0
3,55,8,5,0,0,1,,3,S,0,S,16,0.772583,0.024364,0.018823,,0
3,56,6,2,0,0,1,,4,S,0,S,15,0.771238,0.025445,0.019624,,0
3,57,1,5,0,0,1,,4,S,0,S,14,0.028832,0.759672,0.021903,,0
3,58,5,9,0,0,1,,4,S,0,S,16,0.008206,0.792688,0.006505,,0
3,59,1,3,0,0,1,,2,S,0,S,19,0.021634,0.783771,0.016956,,0
3,60,4,3,0,0,0,,1,S,0,S,24,0.046723,0.755697,0.035308,,0
3,61,1,2,0,0,1,,1,S,0,S,23,0.03238,0.774592,0.025081,,S
3,62,3,2,0,0,1,,1,S,0,S,24,0.762036,0.043298,0.032995,,0
3,63,7,1,0,0,1,,6,S,0,S,13,0.77473,0.010501,0.008136,,0
3,64,9,6,0,0,1,,3,S,0,S,15,0.776295,0.020329,0.015781,,0
3,65,8,1,0,0,1,,7,L,0,S,12,0.750369,0.021331,0.016006,,0
3,66,5,8,0,0,1,,3,S,0,S,22,0.012315,0.794764,0.009788,,0
3,67,8,9,0,0,0,,1,S,0,S,23,0.766273,0.03743,0.028682,,L
3,68,6,4,0,0,1,,2,S,0,S,22,0.76184,0.043192,0.032905,,0
3,69,2,5,0,0,1,,3,S,0,S,15,0.021147,0.773086,0.016348,,0
3,70,3,4,0,0,1,,1,S,0,S,16,0.013303,0.788804,0.010494,,0
3,71,1,6,0,0,1,,5,S,0,S,15,0.00502,0.796123,0.003997,,0
3,72,2,8,0,0,1,,6,S,0,S,15,0.027859,0.763461,0.02127,,0
4,1,1,5,0,0,1,,4,S,0,S,14,0.028575,0.75844,0.021673,,0
4,2,8,1,0,0,1,,7,L,0,S,13,0.785449,0.002077,0.001632,,0
4,3,1,3,0,0,1,,2,S,0,S,17,0.021942,0.777654,0.017063,,0
4,4,5,9,0,0,1,,4,S,0,S,17,0.036938,0.762606,0.028169,,0
4,5,8,5,0,0,1,,3,S,0,S,18,0.757986,0.040515,0.03071,,0
4,6,6,8,0,0,1,,2,S,0,S,28,0.040324,0.765086,0.030852,,0
4,7,4,5,0,0,1,,1,S,0,S,16,0.041763,0.751959,0.031404,,0
4,8,2,7,0,0,1,,5,S,0,S,14,0,0.802248,0,,0
4,9,3,7,0,0,1,,4,S,0,S,15,0.016267,0.775477,0.012615,,0
4,10,6,7,0,0,1,,1,S,0,S,20,0.047063,0.75173,0.035379,,0
4,11,6,3,0,0,1,,3,S,0,S,16,0.794645,0.007968,0.006332,,0
4,12,9,6,0,0,1,,3,S,0,S,16,0.785287,0.015683,0.012316,,0
4,13,1,9,0,0,1,,8,L,0,S,14,0.008654,0.785483,0.006797,,0
4,14,2,8,0,0,1,,6,S,0,S,14,0.004655,0.789095,0.003673,,0
4,15,3,4,0,0,1,,1,S,0,S,17,0.032422,0.763051,0.02474,,0
4,16,7,1,0,0,1,,6,S,0,S,13,0.770588,0.015526,0.011964,,0
4,17,7,8,0,0,1,,1,S,0,S,26,0.020046,0.792121,0.015879,,0
4,18,8,2,0,0,1,,6,S,0,S,15,0.790507,0.007846,0.006203,,0
4,19,4,6,0,0,1,,2,S,0,S,20,0.036025,0.766506,0.027614,,0
4,20,4,1,0,0,1,,3,S,0,S,15,0.8008,0,0,,0
4,21,3,8,0,0,1,,5,S,0,S,15,0.036074,0.75123,0.0271,,0
4,22,7,3,0,0,1,,4,S,0,S,16,0.794991,0.009198,0.007313,,0
4,23,4,8,0,0,1,,4,S,0,S,16,0.020132,0.77885,0.01568,,0
4,24,3,1,0,0,1,,2,S,0,S,15,0.773343,0.017971,0.013898,,0
4,25,1,4,0,0,1,,3,S,0,S,15,0.020333,0.773893,0.015736,,0
4,26,9,7,0,0,1,,2,S,0,S,24,0.750216,0.050493,0.037881,,0
4,27,5,7,0,0,1,,2,S,0,S,17,0.023642,0.775983,0.018346,,0
4,28,9,8,0,0,1,,1,S,0,S,20,0.786122,0.021073,0.016566,,L
4,29,2,4,0,0,1,,2,S,0,S,15,0.002044,0.79756,0.00163,,0
4,30,9,4,0,0,1,,5,S,0,S,16,0.750799,0.043116,0.032372,,0
4,31,8,6,0,0,1,,2,S,0,S,16,0.782209,0.016905,0.013223,,0
4,32,4,3,0,0,1,,1,S,0,S,23,0.786054,0.021832,0.017161,,0
4,33,9,5,0,0,1,,4,S,0,S,18,0.761621,0.038944,0.029661,,0
4,34,9,2,0,0,1,,7,L,0,S,15,0.793267,0.006826,0.005415,,0
4,35,9,3,0,0,1,,6,S,0,S,15,0.785634,0.012371,0.009719,,0
4,36,2,9,0,0,1,,7,L,0,S,14,0,0.801633,0,,0
4,37,2,6,0,0,1,,4,S,0,S,15,0.019401,0.774849,0.015033,,0
4,38,7,9,0,0,1,,2,S,0,S,21,0.040178,0.767161,0.030823,,0
4,39,4,2,0,0,1,,2,S,0,S,21,0.758661,0.04333,0.032873,,0
4,40,7,4,0,0,1,,3,S,0,S,18,0.763817,0.038436,0.029358,,0
4,41,2,3,0,0,1,,1,S,0,S,16,0.025757,0.770233,0.019839,,0
4,42,5,4,0,0,1,,1,S,0,S,30,0.758423,0.04585,0.034774,,0
4,43,5,1,0,0,1,,4,S,0,S,14,0.790985,0.003265,0.002582,,0
4,44,3,2,0,0,0,,1,S,0,S,30,0.042017,0.759047,0.031893,,0
4,45,7,6,0,0,1,,1,S,0,S,17,0.772289,0.029577,0.022842,,0
4,46,6,5,0,0,1,,1,S,0,S,22,0.75746,0.045687,0.034606,,0
4,47,6,1,0,0,1,,5,S,0,S,13,0.769158,0.015284,0.011756,,0
4,48,1,8,0,0,1,,7,L,0,S,14,0.01798,0.77157,0.013873,,0
4,49,4,7,0,0,1,,3,S,0,S,15,0.032701,0.757536,0.024772,,0
4,50,8,9,0,0,0,,1,S,0,S,22,0.789915,0.01959,0.015475,,L
4,51,1,7,0,0,1,,6,S,0,S,14,0.005375,0.786676,0.004228,,0
4,52,3,9,0,0,1,,6,S,0,S,15,0.02175,0.77168,0.016784,,0
4,53,7,5,0,0,1,,2,S,0,S,23,0.777749,0.031582,0.024563,,0
4,54,3,5,0,0,1,,2,S,0,S,16,0.017407,0.779702,0.013572,,0
4,55,5,2,0,0,1,,3,S,0,S,17,0.770913,0.029073,0.022413,,0
4,56,2,1,0,0,1,,1,S,0,S,18,0.769419,0.029354,0.022586,,S
4,57,6,4,0,0,1,,2,S,0,S,18,0.767477,0.033889,0.026009,,0
4,58,8,3,0,0,1,,5,S,0,S,15,0.782828,0.013409,0.010497,,0
4,59,6,2,0,0,1,,4,S,0,S,15,0.754237,0.037083,0.027969,,0
4,60,8,7,0,0,1,,1,S,0,S,25,0.792027,0.015827,0.012535,,0
4,61,9,1,0,0,1,,8,L,0,S,13,0.787669,0.001403,0.001105,,0
4,62,1,6,0,0,1,,5,S,0,S,16,0.005008,0.796629,0.003989,,0
4,63,5,8,0,0,1,,3,S,0,S,18,0.031827,0.769226,0.024482,,0
4,64,5,6,0,0,0,,1,S,0,S,21,0.782125,0.024447,0.019121,,0
4,65,8,4,0,0,1,,4,S,0,S,17,0.796607,0.008028,0.006396,,0
4,66,6,9,0,0,1,,3,S,0,S,22,0.025763,0.783674,0.02019,,0
4,67,1,2,0,0,1,,1,S,0,S,17,0.032331,0.765064,0.024735,,S
4,68,5,3,0,0,1,,2,S,0,S,17,0.754322,0.041661,0.031426,,0
4,69,3,6,0,0,1,,3,S,0,S,18,0.042019,0.752463,0.031618,,0
4,70,4,9,0,0,1,,5,S,0,S,15,0.039708,0.751866,0.029855,,0
4,71,2,5,0,0,1,,3,S,0,S,14,0.013903,0.777737,0.010813,,0
4,72,7,2,0,0,1,,5,S,0,S,15,0.754533,0.038381,0.02896,,0
5,1,2,3,0,0,1,,1,S,0,S,14,0.028194,0.758856,0.021395,,0
5,2,7,5,0,0,1,,2,S,0,S,17,0.779013,0.021982,0.017125,,0
5,3,5,6,0,0,1,,1,S,0,S,29,0.027563,0.78011,0.021502,,0
5,4,2,8,0,0,1,,6,S,0,S,13,0,0.801714,0,,0
5,5,3,6,0,0,1,,3,S,0,S,23,0.017411,0.790409,0.013761,,0
5,6,4,1,0,0,1,,3,S,0,S,14,0.778789,0.009814,0.007643,,0
5,7,6,2,0,0,1,,4,S,0,S,16,0.78833,0.011629,0.009168,,0
5,8,7,8,0,0,1,,1,S,0,S,23,0.045715,0.753536,0.034448,,0
5,9,1,9,0,0,1,,8,L,0,S,13,0.026394,0.753149,0.019879,,0
5,10,3,1,0,0,1,,2,S,0,S,14,0.773373,0.014298,0.011057,,0
5,11,6,3,0,0,1,,3,S,0,S,17,0.793265,0.013388,0.010621,,0
5,12,1,4,0,0,1,,3,S,0,S,15,0.030425,0.760039,0.023125,,0
5,13,9,6,0,0,1,,3,S,0,S,15,0.798013,0.002588,0.002065,,0
5,14,2,7,0,0,1,,5,S,0,S,14,0.004278,0.788635,0.003373,,0
5,15,5,7,0,0,1,,2,S,0,S,20,0.027507,0.775547,0.021333,,0
5,16,4,8,0,0,1,,4,S,0,S,15,0.00799,0.786326,0.006283,,0
5,17,7,4,0,0,1,,3,S,0,S,16,0.773492,0.022832,0.01766,,0
5,18,9,4,0,0,1,,5,S,0,S,15,0.750916,0.037624,0.028253,,0
5,19,1,5,0,0,1,,4,S,0,S,15,0.006695,0.792132,0.005303,,0
5,20,4,9,0,0,1,,5,S,0,S,15,0.006322,0.788825,0.004987,,0
5,21,6,7,0,0,0,,1,S,0,S,19,0.7708,0.033089,0.025505,,0
5,22,3,4,0,0,1,,1,S,0,S,18,0.033843,0.762837,0.025817,,0
5,23,2,4,0,0,1,,2,S,0,S,14,0,0.79444,0,,0
5,24,3,9,0,0,1,,6,S,0,S,15,0,0.797514,0,,0
5,25,8,2,0,0,1,,6,S,0,S,14,0.755268,0.026991,0.020386,,0
5,26,4,5,0,0,1,,1,S,0,S,17,0.031804,0.764528,0.024315,,0
5,27,9,7,0,0,1,,2,S,0,S,15,0.765631,0.026858,0.020564,,0
5,28,6,1,0,0,1,,5,S,0,S,13,0.77805,0.008788,0.006838,,0
5,29,2,5,0,0,1,,3,S,0,S,13,0.021297,0.760588,0.016198,,0
5,30,5,4,0,0,0,,1,S,0,S,19,0.027747,0.773209,0.021454,,0
5,31,5,9,0,0,1,,4,S,0,S,15,0.007728,0.78845,0.006093,,0
5,32,8,1,0,0,1,,7,L,0,S,13,0.805058,0,0,,0
5,33,8,6,0,0,1,,2,S,0,S,15,0.77052,0.022318,0.017197,,0
5,34,9,5,0,0,1,,4,S,0,S,16,0.766193,0.030039,0.023016,,0
5,35,5,2,0,0,1,,3,S,0,S,19,0.774461,0.024879,0.019268,,0
5,36,2,9,0,0,1,,7,L,0,S,13,0,0.803047,0,,0
5,37,1,2,0,0,1,,1,S,0,S,19,0.01962,0.781635,0.015336,,S
5,38,8,3,0,0,1,,5,S,0,S,15,0.784503,0.011558,0.009067,,0
5,39,4,6,0,0,1,,2,S,0,S,26,0.025324,0.780869,0.019775,,0
5,40,7,1,0,0,1,,6,S,0,S,12,0.753492,0.01887,0.014218,,0
5,41,3,8,0,0,1,,5,S,0,S,15,0.001502,0.795136,0.001195,,0
5,42,6,4,0,0,1,,2,S,0,S,20,0.764114,0.038698,0.02957,,0
5,43,4,7,0,0,1,,3,S,0,S,20,0.016772,0.787371,0.013206,,0
5,44,9,2,0,0,1,,7,L,0,S,14,0.777415,0.011751,0.009135,,0
5,45,8,7,0,0,1,,1,S,0,S,16,0.781805,0.015363,0.012011,,0
5,46,6,9,0,0,1,,3,S,0,S,16,0.038691,0.755695,0.029239,,0
5,47,1,3,0,0,1,,2,S,0,S,17,0.018421,0.78422,0.014446,,0
5,48,7,2,0,0,1,,5,S,0,S,14,0.761604,0.023659,0.018019,,0
5,49,1,8,0,0,1,,7,L,0,S,13,0.027473,0.751379,0.020643,,0
5,50,9,3,0,0,1,,6,S,0,S,14,0.758478,0.029522,0.022392,,0
5,51,2,6,0,0,1,,4,S,0,S,14,0.019947,0.769463,0.015348,,0
5,52,8,4,0,0,1,,4,S,0,S,16,0.764191,0.028482,0.021766,,0
5,53,9,1,0,0,1,,8,L,0,S,12,0.761901,0.012813,0.009762,,0
5,54,3,7,0,0,1,,4,S,0,S,19,0.024502,0.777066,0.01904,,0
5,55,7,9,0,0,1,,2,S,0,S,23,0.025771,0.778939,0.020074,,0
5,56,4,3,0,0,1,,1,S,0,S,25,0.773624,0.031114,0.024071,,0
5,57,4,2,0,0,1,,2,S,0,S,19,0.757181,0.037233,0.028192,,0
5,58,5,3,0,0,1,,2,S,0,S,24,0.794792,0.015171,0.012058,,0
5,59,1,6,0,0,1,,5,S,0,S,16,0.036203,0.758626,0.027465,,0
5,60,8,5,0,0,1,,3,S,0,S,17,0.767641,0.029293,0.022487,,0
5,61,7,3,0,0,1,,4,S,0,S,15,0.791449,0.007647,0.006052,,0
5,62,3,2,0,0,1,,1,S,0,S,20,0.767402,0.030485,0.023395,,0
5,63,2,1,0,0,1,,1,S,0,S,21,0.793363,0.011539,0.009155,,S
5,64,7,6,0,0,1,,1,S,0,S,15,0.777905,0.018114,0.014091,,0
5,65,1,7,0,0,1,,6,S,0,S,16,0.004047,0.798256,0.003231,,0
5,66,6,5,0,0,1,,1,S,0,S,33,0.791221,0.021154,0.016738,,0
5,67,9,8,0,0,1,,1,S,0,S,25,0.787263,0.019463,0.015323,,L
5,68,6,8,0,0,1,,2,S,0,S,16,0.041662,0.751511,0.031309,,0
5,69,8,9,0,0,1,,1,S,0,S,22,0.039241,0.759311,0.029796,,L
5,70,3,5,0,0,1,,2,S,0,S,17,0.017548,0.783118,0.013742,,0
5,71,5,1,0,0,1,,4,S,0,S,14,0.783828,0.007022,0.005504,,0
5,72,5,8,0,0,1,,3,S,0,S,15,0.009422,0.785921,0.007405,,0
6,1,2,9,0,0,1,,7,L,0,S,16,0.007724,0.795444,0.006144,,0
6,2,6,8,0,0,1,,2,S,0,S,16,0.037628,0.753313,0.028346,,0
6,3,6,3,0,0,1,,3,S,0,S,20,0.777599,0.024812,0.019294,,0
6,4,7,5,0,0,1,,2,S,0,S,17,0.756755,0.038766,0.029336,,0
6,5,6,2,0,0,1,,4,S,0,S,17,0.774169,0.026895,0.020821,,0
6,6,7,6,0,0,1,,1,S,0,S,24,0.776509,0.027287,0.021188,,0
6,7,1,8,0,0,1,,7,L,0,S,14,0.006808,0.785714,0.005349,,0
6,8,1,7,0,0,1,,6,S,0,S,15,0.006067,0.793546,0.004814,,0
6,9,8,2,0,0,1,,6,S,0,S,15,0.75982,0.031932,0.024263,,0
6,10,4,7,0,0,1,,3,S,0,S,18,0.035131,0.764806,0.026868,,0
6,11,5,4,0,0,1,,1,S,0,S,19,0.758572,0.040813,0.03096,,0
6,12,8,6,0,0,1,,2,S,0,S,25,0.778541,0.024846,0.019343,,0
6,13,7,3,0,0,1,,4,S,0,S,17,0.796788,0.00588,0.004686,,0
6,14,1,3,0,0,1,,2,S,0,S,16,0.039145,0.752987,0.029475,,0
6,15,2,8,0,0,1,,6,S,0,S,15,0.018204,0.774067,0.014091,,0
6,16,9,2,0,0,1,,7,L,0,S,15,0.776246,0.019649,0.015252,,0
6,17,4,8,0,0,1,,4,S,0,S,16,0.01721,0.780285,0.013429,,0
6,18,5,7,0,0,1,,2,S,0,S,23,0.014752,0.793076,0.011699,,0
6,19,8,3,0,0,1,,5,S,0,S,17,0.790346,0.010074,0.007962,,0
6,20,4,3,0,0,1,,1,S,0,S,22,0.762655,0.038638,0.029467,,0
6,21,8,4,0,0,1,,4,S,0,S,17,0.766296,0.031602,0.024217,,0
6,22,6,5,0,0,1,,1,S,0,S,24,0.786771,0.02072,0.016302,,0
6,23,4,5,0,0,1,,1,S,0,S,26,0.02178,0.7868,0.017136,,0
6,24,5,9,0,0,1,,4,S,0,S,19,0.027296,0.776677,0.021201,,0
6,25,9,4,0,0,1,,5,S,0,S,17,0.794003,0.010207,0.008105,,0
6,26,2,6,0,0,1,,4,S,0,S,16,0.027845,0.765409,0.021313,,0
6,27,3,4,0,0,1,,1,S,0,S,19,0.013336,0.791786,0.010559,,0
6,28,8,5,0,0,1,,3,S,0,S,18,0.796524,0.008017,0.006385,,0
6,29,8,7,0,0,1,,1,S,0,S,22,0.794222,0.01334,0.010595,,0
6,30,3,9,0,0,1,,6,S,0,S,15,0.03604,0.753753,0.027166,,0
6,31,5,8,0,0,1,,3,S,0,S,17,0.033821,0.759963,0.025703,,0
6,32,7,4,0,0,1,,3,S,0,S,17,0.773745,0.026657,0.020626,,0
6,33,6,1,0,0,1,,5,S,0,S,14,0.757764,0.027971,0.021196,,0
6,34,1,4,0,0,1,,3,S,0,S,16,0.016413,0.785183,0.012888,,0
6,35,1,2,0,0,1,,1,S,0,S,18,0.036075,0.766062,0.027636,,S
6,36,8,9,0,0,1,,1,S,0,S,25,0.043761,0.759879,0.033253,,L
6,37,2,3,0,0,1,,1,S,0,S,21,0.040972,0.757564,0.031039,,0
6,38,2,1,0,0,1,,1,S,0,S,15,0.75331,0.03491,0.026298,,S
6,39,3,8,0,0,1,,5,S,0,S,15,0.012181,0.780146,0.009503,,0
6,40,6,4,0,0,1,,2,S,0,S,22,0.772328,0.032999,0.025486,,0
6,41,9,7,0,0,1,,2,S,0,S,20,0.784665,0.020401,0.016008,,0
6,42,9,6,0,0,1,,3,S,0,S,21,0.753616,0.04388,0.033068,,0
6,43,6,7,0,0,1,,1,S,0,S,19,0.046927,0.750659,0.035226,,0
6,44,7,2,0,0,1,,5,S,0,S,15,0.764718,0.029004,0.02218,,0
6,45,9,1,0,0,1,,8,L,0,S,13,0.752651,0.026363,0.019842,,0
6,46,7,9,0,0,1,,2,S,0,S,27,0.021657,0.788991,0.017088,,0
6,47,2,5,0,0,1,,3,S,0,S,19,0.022177,0.780928,0.017319,,0
6,48,3,2,0,0,1,,1,S,0,S,24,0.780473,0.025739,0.020089,,0
6,49,2,7,0,0,1,,5,S,0,S,16,0.041125,0.750648,0.03087,,0
6,50,7,1,0,0,1,,6,S,0,S,14,0.799928,0,0,,0
6,51,6,9,0,0,1,,3,S,0,S,18,0.011476,0.795989,0.009135,,0
6,52,1,5,0,0,1,,4,S,0,S,16,0.011189,0.790291,0.008843,,0
6,53,5,3,0,0,1,,2,S,0,S,18,0.759431,0.036161,0.027462,,0
6,54,4,9,0,0,1,,5,S,0,S,17,0.018345,0.786116,0.014421,,0
6,55,3,6,0,0,1,,3,S,0,S,16,0.018692,0.775372,0.014494,,0
6,56,2,4,0,0,1,,2,S,0,S,19,0.038568,0.761956,0.029387,,0
6,57,5,6,0,0,1,,1,S,0,S,21,0.016278,0.787725,0.012822,,0
6,58,5,2,0,0,1,,3,S,0,S,16,0.761629,0.033653,0.025631,,0
6,59,8,1,0,0,1,,7,L,0,S,14,0.796645,0,0,,0
6,60,9,3,0,0,1,,6,S,0,S,16,0.765302,0.028123,0.021523,,0
6,61,1,6,0,0,1,,5,S,0,S,15,0,0.800284,0,,0
6,62,4,1,0,0,1,,3,S,0,S,15,0.796196,0.002621,0.002087,,0
6,63,3,5,0,0,1,,2,S,0,S,18,0.036419,0.75951,0.027661,,0
6,64,3,1,0,0,1,,2,S,0,S,16,0.7877,0.009668,0.007616,,0
6,65,1,9,0,0,1,,8,L,0,S,14,0.022697,0.769272,0.01746,,0
6,66,4,6,0,0,1,,2,S,0,S,18,0.012205,0.79138,0.009659,,0
6,67,9,8,0,0,0,,1,S,0,S,21,0.023947,0.778613,0.018645,,L
6,68,3,7,0,0,1,,4,S,0,S,16,0.03052,0.762454,0.02327,,0
6,69,7,8,0,0,1,,1,S,0,S,20,0.013059,0.791928,0.010342,,0
6,70,4,2,0,0,1,,2,S,0,S,18,0.78538,0.020335,0.01597,,0
6,71,5,1,0,0,1,,4,S,0,S,14,0.772782,0.015721,0.012149,,0
6,72,9,5,0,0,1,,4,S,0,S,17,0.779169,0.020721,0.016145,,0
7,1,5,8,0,0,1,,3,S,0,S,18,0.029617,0.769213,0.022781,,0
7,2,3,9,0,0,1,,6,S,0,S,13,0.019293,0.761797,0.014698,,0
7,3,5,1,0,0,1,,4,S,0,S,15,0.792664,0.004902,0.003886,,0
7,4,1,3,0,0,1,,2,S,0,S,15,0.014738,0.780118,0.011497,,0
7,5,6,4,0,0,1,,2,S,0,S,20,0.772065,0.029954,0.023126,,0
7,6,3,8,0,0,1,,5,S,0,S,14,0.012026,0.779732,0.009377,,0
7,7,2,7,0,0,1,,5,S,0,S,16,0.002606,0.799157,0.002082,,0
7,8,7,1,0,0,1,,6,S,0,S,13,0.765433,0.017804,0.013628,,0
7,9,9,1,0,0,1,,8,L,0,S,13,0.769883,0.015047,0.011584,,0
7,10,3,2,0,0,1,,1,S,0,S,24,0.775142,0.029965,0.023227,,0
7,11,2,3,0,0,1,,1,S,0,S,16,0.03806,0.754173,0.028704,,0
7,12,7,5,0,0,1,,2,S,0,S,17,0.797773,0.004995,0.003985,,0
7,13,5,6,0,0,1,,1,S,0,S,18,0.033212,0.76302,0.025341,,0
7,14,5,7,0,0,1,,2,S,0,S,22,0.030501,0.771965,0.023545,,0
7,15,4,7,0,0,1,,3,S,0,S,21,0.040699,0.760254,0.030942,,0
7,16,8,4,0,0,1,,4,S,0,S,16,0.762981,0.028994,0.022122,,0
7,17,2,1,0,0,1,,1,S,0,S,18,0.777778,0.023783,0.018498,,S
7,18,7,4,0,0,1,,3,S,0,S,16,0.791155,0.00754,0.005965,,0
7,19,3,6,0,0,1,,3,S,0,S,14,0.013389,0.776536,0.010397,,0
7,20,2,5,0,0,1,,3,S,0,S,16,0.007326,0.792128,0.005803,,0
7,21,3,1,0,0,1,,2,S,0,S,23,0.763484,0.039573,0.030214,,0
7,22,8,6,0,0,1,,2,S,0,S,20,0.76792,0.031649,0.024304,,0
7,23,6,5,0,0,1,,1,S,0,S,30,0.766705,0.037607,0.028834,,0
7,24,3,7,0,0,1,,4,S,0,S,15,0.000322,0.799236,0.000258,,0
7,25,7,6,0,0,1,,1,S,0,S,18,0.75103,0.043398,0.032593,,0
7,26,9,5,0,0,1,,4,S,0,S,16,0.760401,0.032957,0.025061,,0
7,27,7,8,0,0,0,,1,S,0,S,18,0.752713,0.043382,0.032654,,0
7,28,6,7,0,0,1,,1,S,0,S,29,0.035492,0.770474,0.027346,,0
7,29,1,6,0,0,1,,5,S,0,S,14,0.006933,0.784106,0.005436,,0
7,30,1,9,0,0,1,,8,L,0,S,13,0.014359,0.767521,0.011021,,0
7,31,5,3,0,0,1,,2,S,0,S,23,0.779885,0.024769,0.019317,,0
7,32,8,5,0,0,1,,3,S,0,S,17,0.759824,0.034318,0.026075,,0
7,33,9,2,0,0,1,,7,L,0,S,13,0.767682,0.016276,0.012494,,0
7,34,6,8,0,0,1,,2,S,0,S,19,0.03044,0.77267,0.02352,,0
7,35,6,2,0,0,1,,4,S,0,S,14,0.756968,0.030239,0.02289,,0
7,36,7,2,0,0,1,,5,S,0,S,13,0.763186,0.019061,0.014547,,0
7,37,1,4,0,0,1,,3,S,0,S,15,0.01776,0.774146,0.013749,,0
7,38,8,9,0,0,1,,1,S,0,S,20,0.039971,0.756845,0.030252,,L
7,39,8,3,0,0,1,,5,S,0,S,16,0.764992,0.029135,0.022288,,0
7,40,8,2,0,0,1,,6,S,0,S,13,0.750681,0.028002,0.02102,,0
7,41,2,9,0,0,1,,7,L,0,S,14,0.005834,0.785303,0.004582,,0
7,42,4,6,0,0,1,,2,S,0,S,18,0.02343,0.777087,0.018207,,0
7,43,9,6,0,0,1,,3,S,0,S,18,0.769873,0.02932,0.022572,,0
7,44,5,4,0,0,1,,1,S,0,S,23,0.790766,0.014139,0.011181,,0
7,45,2,4,0,0,1,,2,S,0,S,17,0.006508,0.794935,0.005173,,0
7,46,1,5,0,0,1,,4,S,0,S,14,0.031497,0.752116,0.023689,,0
7,47,5,9,0,0,1,,4,S,0,S,16,0.013264,0.783149,0.010387,,0
7,48,8,1,0,0,1,,7,L,0,S,13,0.753068,0.026654,0.020073,,0
7,49,4,9,0,0,1,,5,S,0,S,16,0.008185,0.791192,0.006476,,0
7,50,4,1,0,0,1,,3,S,0,S,15,0.792308,0.006346,0.005028,,0
7,51,6,1,0,0,1,,5,S,0,S,14,0.760004,0.028383,0.021572,,0
7,52,4,3,0,0,1,,1,S,0,S,24,0.784275,0.022923,0.017978,,0
7,53,9,4,0,0,1,,5,S,0,S,15,0.750041,0.037357,0.028019,,0
7,54,1,8,0,0,1,,7,L,0,S,14,0.005605,0.787238,0.004413,,0
7,55,1,7,0,0,1,,6,S,0,S,14,0.02825,0.757393,0.021397,,0
7,56,2,6,0,0,1,,4,S,0,S,15,0.007733,0.787997,0.006093,,0
7,57,6,3,0,0,1,,3,S,0,S,20,0.769323,0.033985,0.026146,,0
7,58,7,9,0,0,1,,2,S,0,S,24,0.024682,0.779182,0.019232,,0
7,59,1,2,0,0,1,,1,S,0,S,28,0.041139,0.760901,0.031303,,S
7,60,9,7,0,0,1,,2,S,0,S,16,0.756301,0.037007,0.027989,,0
7,61,8,7,0,0,1,,1,S,0,S,17,0.753677,0.040009,0.030154,,0
7,62,7,3,0,0,1,,4,S,0,S,16,0.793416,0.007408,0.005878,,0
7,63,3,4,0,0,1,,1,S,0,S,15,0.027837,0.762019,0.021212,,0
7,64,6,9,0,0,1,,3,S,0,S,16,0.028297,0.76668,0.021694,,0
7,65,5,2,0,0,1,,3,S,0,S,15,0.78941,0.006958,0.005493,,0
7,66,9,3,0,0,1,,6,S,0,S,15,0.752177,0.03738,0.028116,,0
7,67,2,8,0,0,1,,6,S,0,S,15,0.006049,0.791615,0.004789,,0
7,68,4,5,0,0,1,,1,S,0,S,22,0.031745,0.770986,0.024475,,0
7,69,4,2,0,0,1,,2,S,0,S,15,0.789023,0.008432,0.006653,,0
7,70,3,5,0,0,1,,2,S,0,S,15,0.003809,0.793773,0.003024,,0
7,71,9,8,0,0,1,,1,S,0,S,18,0.771702,0.029154,0.022498,,L
7,72,4,8,0,0,1,,4,S,0,S,18,0.020011,0.782993,0.015669,,0
8,1,2,9,0,0,1,,7,L,0,S,14,0.004659,0.786923,0.003666,,0
8,2,5,4,0,0,1,,1,S,0,S,18,0.751709,0.045967,0.034554,,0
8,3,8,4,0,0,1,,4,S,0,S,15,0.787222,0.012583,0.009906,,0
8,4,4,7,0,0,1,,3,S,0,S,15,0.034232,0.757927,0.025945,,0
8,5,9,3,0,0,1,,6,S,0,S,15,0.783189,0.013795,0.010804,,0
8,6,3,6,0,0,1,,3,S,0,S,15,0.012393,0.786287,0.009744,,0
8,7,7,6,0,0,0,,1,S,0,S,16,0.039851,0.754279,0.030058,,0
8,8,9,8,0,0,1,,1,S,0,S,21,0.757596,0.043377,0.032862,,L
8,9,8,3,0,0,1,,5,S,0,S,15,0.794521,0.006406,0.00509,,0
8,10,5,1,0,0,1,,4,S,0,S,13,0.770281,0.013229,0.01019,,0
8,11,9,6,0,0,1,,3,S,0,S,32,0.757662,0.045823,0.034719,,0
8,12,2,8,0,0,1,,6,S,0,S,14,0.021966,0.765225,0.016809,,0
8,13,2,3,0,0,1,,1,S,0,S,18,0.014059,0.789135,0.011095,,0
8,14,4,1,0,0,1,,3,S,0,S,14,0.802134,0,0,,0
8,15,4,9,0,0,1,,5,S,0,S,15,0.015769,0.781282,0.01232,,0
8,16,5,3,0,0,1,,2,S,0,S,18,0.776412,0.02591,0.020117,,0
8,17,3,9,0,0,1,,6,S,0,S,15,0.004447,0.79513,0.003536,,0
8,18,1,5,0,0,1,,4,S,0,S,14,0,0.801253,0,,0
8,19,7,5,0,0,1,,2,S,0,S,19,0.774659,0.027657,0.021425,,0
8,20,4,5,0,0,1,,1,S,0,S,27,0.026921,0.781298,0.021033,,0
8,21,8,7,0,0,1,,1,S,0,S,22,0.786824,0.021762,0.017123,,0
8,22,6,2,0,0,1,,4,S,0,S,14,0.750406,0.034323,0.025756,,0
8,23,4,6,0,0,1,,2,S,0,S,15,0.024785,0.771077,0.019111,,0
8,24,1,6,0,0,1,,5,S,0,S,12,0.014948,0.75962,0.011355,,0
8,25,6,9,0,0,1,,3,S,0,S,24,0.027135,0.778598,0.021128,,0
8,26,7,2,0,0,1,,5,S,0,S,17,0.78462,0.017181,0.01348,,0
8,27,9,1,0,0,1,,8,L,0,S,12,0.758029,0.015898,0.012051,,0
8,28,3,8,0,0,1,,5,S,0,S,15,0.029574,0.763825,0.022589,,0
8,29,7,1,0,0,1,,6,S,0,S,13,0.773386,0.011338,0.008768,,0
8,30,3,4,0,0,1,,1,S,0,S,24,0.02102,0.789813,0.016602,,0
8,31,3,5,0,0,1,,2,S,0,S,22,0.013574,0.795642,0.0108,,0
8,32,3,1,0,0,1,,2,S,0,S,14,0.791057,0.003199,0.002531,,0
8,33,1,8,0,0,1,,7,L,0,S,12,0.02116,0.750841,0.015888,,0
8,34,8,9,0,0,1,,1,S,0,S,28,0.021241,0.788657,0.016752,,L
8,35,3,2,0,0,1,,1,S,0,S,21,0.753966,0.046746,0.035245,,0
8,36,9,2,0,0,1,,7,L,0,S,15,0.800731,0,0,,0
8,37,2,5,0,0,1,,3,S,0,S,17,0.020646,0.777003,0.016042,,0
8,38,1,7,0,0,1,,6,S,0,S,12,0.018158,0.754401,0.013698,,0
8,39,4,3,0,0,1,,1,S,0,S,22,0.751438,0.051141,0.038429,,0
8,40,2,1,0,0,1,,1,S,0,S,15,0.786492,0.007816,0.006147,,S
8,41,5,9,0,0,1,,4,S,0,S,16,0.021953,0.775045,0.017015,,0
8,42,7,3,0,0,1,,4,S,0,S,18,0.788413,0.016913,0.013335,,0
8,43,1,4,0,0,1,,3,S,0,S,14,0,0.799238,0,,0
8,44,6,8,0,0,0,,2,S,0,S,21,0.76516,0.037497,0.028691,,0
8,45,1,2,0,0,1,,1,S,0,S,14,0.013503,0.775461,0.010471,,S
8,46,6,3,0,0,1,,3,S,0,S,15,0.78443,0.012945,0.010155,,0
8,47,7,8,0,0,1,,1,S,0,S,17,0.034406,0.763699,0.026276,,0
8,48,8,6,0,0,1,,2,S,0,S,24,0.766248,0.039914,0.030584,,0
8,49,8,5,0,0,1,,3,S,0,S,15,0.772608,0.022224,0.01717,,0
8,50,5,8,0,0,1,,3,S,0,S,17,0.028492,0.770503,0.021953,,0
8,51,6,5,0,0,1,,1,S,0,S,15,0.761251,0.02964,0.022564,,0
8,52,9,7,0,0,1,,2,S,0,S,24,0.782523,0.024161,0.018906,,0
8,53,4,8,0,0,1,,4,S,0,S,16,0.007769,0.796034,0.006184,,0
8,54,6,4,0,0,1,,2,S,0,S,15,0.77665,0.019476,0.015126,,0
8,55,8,2,0,0,1,,6,S,0,S,14,0.759718,0.02854,0.021682,,0
8,56,9,4,0,0,1,,5,S,0,S,15,0.775342,0.020376,0.015798,,0
8,57,7,9,0,0,1,,2,S,0,S,16,0.025886,0.770705,0.019951,,0
8,58,9,5,0,0,1,,4,S,0,S,15,0.759838,0.030612,0.02326,,0
8,59,3,7,0,0,1,,4,S,0,S,15,0.020819,0.774504,0.016125,,0
8,60,1,3,0,0,1,,2,S,0,S,14,0.001241,0.792691,0.000984,,0
8,61,5,7,0,0,1,,2,S,0,S,17,0.012954,0.789566,0.010228,,0
8,62,2,6,0,0,1,,4,S,0,S,14,0.010157,0.781041,0.007933,,0
8,63,1,9,0,0,1,,8,L,0,S,12,0.012013,0.762409,0.009159,,0
8,64,2,7,0,0,1,,5,S,0,S,14,0.016109,0.772324,0.012442,,0
8,65,8,1,0,0,1,,7,L,0,S,12,0.763788,0.012881,0.009838,,0
8,66,7,4,0,0,1,,3,S,0,S,18,0.765849,0.035364,0.027084,,0
8,67,6,7,0,0,0,,1,S,0,S,23,0.750929,0.049261,0.036992,,0
8,68,4,2,0,0,1,,2,S,0,S,19,0.752692,0.046602,0.035077,,0
8,69,5,2,0,0,1,,3,S,0,S,17,0.775496,0.023847,0.018493,,0
8,70,6,1,0,0,1,,5,S,0,S,12,0.758619,0.015561,0.011805,,0
8,71,2,4,0,0,1,,2,S,0,S,17,0.033681,0.76288,0.025695,,0
8,72,5,6,0,0,1,,1,S,0,S,16,0.035287,0.759423,0.026798,,0
9,1,2,3,0,0,1,,1,S,0,S,21,0.03652,0.762531,0.027848,,0
9,2,1,2,0,0,1,,1,S,0,S,18,0.028564,0.769604,0.021983,,S
9,3,9,2,0,0,1,,7,L,0,S,15,0.796423,0.003617,0.002881,,0
9,4,5,1,0,0,1,,4,S,0,S,15,0.80108,0.000703,0.000563,,0
9,5,4,5,0,0,1,,1,S,0,S,20,0.015016,0.790187,0.011865,,0
9,6,9,8,0,0,1,,1,S,0,S,35,0.763588,0.041013,0.031317,,L
9,7,2,6,0,0,1,,4,S,0,S,16,0.005413,0.793643,0.004296,,0
9,8,1,7,0,0,1,,6,S,0,S,14,0.017606,0.766303,0.013492,,0
9,9,3,1,0,0,1,,2,S,0,S,18,0.789591,0.013142,0.010377,,0
9,10,2,4,0,0,1,,2,S,0,S,15,0.022838,0.768957,0.017562,,0
9,11,7,6,0,0,1,,1,S,0,S,16,0.781122,0.018001,0.014061,,0
9,12,3,2,0,0,1,,1,S,0,S,24,0.790046,0.016567,0.013088,,0
9,13,6,8,0,0,1,,2,S,0,S,21,0.045885,0.750865,0.034454,,0
9,14,9,3,0,0,1,,6,S,0,S,15,0.781694,0.014872,0.011625,,0
9,15,2,7,0,0,1,,5,S,0,S,15,0.014588,0.774719,0.011302,,0
9,16,6,4,0,0,1,,2,S,0,S,25,0.794201,0.013721,0.010898,,0
9,17,3,4,0,0,1,,1,S,0,S,16,0.004218,0.797046,0.003362,,0
9,18,7,2,0,0,1,,5,S,0,S,14,0.791942,0.003308,0.002619,,0
9,19,5,8,0,0,1,,3,S,0,S,18,0.041387,0.757656,0.031357,,0
9,20,2,1,0,0,1,,1,S,0,S,19,0.777583,0.023313,0.018128,,S
9,21,4,6,0,0,1,,2,S,0,S,17,0.033753,0.764096,0.025791,,0
9,22,9,6,0,0,1,,3,S,0,S,18,0.754275,0.043216,0.032596,,0
9,23,6,3,0,0,1,,3,S,0,S,15,0.75048,0.036382,0.027304,,0
9,24,2,8,0,0,1,,6,S,0,S,15,0.001044,0.795856,0.000831,,0
9,25,3,7,0,0,1,,4,S,0,S,15,0.030126,0.755181,0.022751,,0
9,26,7,5,0,0,1,,2,S,0,S,15,0.770897,0.021412,0.016507,,0
9,27,8,2,0,0,1,,6,S,0,S,14,0.75386,0.033475,0.025236,,0
9,28,5,4,0,0,0,,1,S,0,S,21,0.045705,0.757426,0.034618,,0
9,29,5,6,0,0,1,,1,S,0,S,33,0.047885,0.756008,0.036201,,0
9,30,1,5,0,0,1,,4,S,0,S,15,0.030681,0.755583,0.023182,,0
9,31,5,3,0,0,1,,2,S,0,S,16,0.771237,0.026722,0.020609,,0
9,32,1,9,0,0,1,,8,L,0,S,14,0,0.794624,0,,0
9,33,8,6,0,0,1,,2,S,0,S,18,0.780757,0.023067,0.01801,,0
9,34,4,2,0,0,1,,2,S,0,S,19,0.786752,0.019086,0.015016,,0
9,35,7,4,0,0,1,,3,S,0,S,16,0.75366,0.040523,0.030541,,0
9,36,2,9,0,0,1,,7,L,0,S,14,0.025492,0.759025,0.019349,,0
9,37,5,9,0,0,1,,4,S,0,S,17,0.040715,0.755915,0.030777,,0
9,38,8,9,0,0,1,,1,S,0,S,24,0.03787,0.767144,0.029052,,L
9,39,1,6,0,0,1,,5,S,0,S,15,0.001018,0.79607,0.000811,,0
9,40,4,1,0,0,1,,3,S,0,S,16,0.765294,0.030944,0.023681,,0
9,41,7,8,0,0,0,,1,S,0,S,18,0.784886,0.018869,0.01481,,0
9,42,2,5,0,0,1,,3,S,0,S,17,0.013568,0.783644,0.010632,,0
9,43,3,5,0,0,1,,2,S,0,S,18,0.008326,0.792876,0.006601,,0
9,44,4,8,0,0,1,,4,S,0,S,16,0.005942,0.796624,0.004733,,0
9,45,7,3,0,0,1,,4,S,0,S,14,0.781192,0.01136,0.008875,,0
9,46,8,4,0,0,1,,4,S,0,S,19,0.768302,0.035325,0.02714,,0
9,47,8,7,0,0,1,,1,S,0,S,21,0.767363,0.03342,0.025646,,0
9,48,9,4,0,0,1,,5,S,0,S,20,0.775464,0.029745,0.023066,,0
9,49,6,7,0,0,1,,1,S,0,S,26,0.026488,0.772912,0.020473,,0
9,50,1,3,0,0,1,,2,S,0,S,17,0.036695,0.756789,0.02777,,0
9,51,9,1,0,0,1,,8,L,0,S,14,0.787819,0.006641,0.005232,,0
9,52,7,1,0,0,1,,6,S,0,S,13,0.770804,0.014581,0.011239,,0
9,53,6,9,0,0,1,,3,S,0,S,19,0.042467,0.752709,0.031965,,0
9,54,8,3,0,0,1,,5,S,0,S,15,0.791526,0.007922,0.00627,,0
9,55,9,5,0,0,1,,4,S,0,S,17,0.786746,0.014104,0.011096,,0
9,56,6,5,0,0,1,,1,S,0,S,18,0.779453,0.018571,0.014475,,0
9,57,8,5,0,0,1,,3,S,0,S,16,0.754315,0.038147,0.028775,,0
9,58,9,7,0,0,1,,2,S,0,S,23,0.787164,0.017597,0.013852,,0
9,59,4,9,0,0,1,,5,S,0,S,15,0.025925,0.767092,0.019887,,0
9,60,6,1,0,0,1,,5,S,0,S,14,0.765736,0.021109,0.016164,,0
9,61,3,9,0,0,1,,6,S,0,S,15,0.002271,0.794588,0.001804,,0
9,62,5,7,0,0,1,,2,S,0,S,20,0.018179,0.785587,0.014281,,0
9,63,3,8,0,0,1,,5,S,0,S,15,0.01489,0.778676,0.011594,,0
9,64,3,6,0,0,1,,3,S,0,S,16,0.025729,0.768362,0.019769,,0
9,65,4,7,0,0,1,,3,S,0,S,16,0.025219,0.768295,0.019376,,0
9,66,5,2,0,0,1,,3,S,0,S,16,0.792827,0.009981,0.007913,,0
9,67,6,2,0,0,1,,4,S,0,S,15,0.768093,0.023047,0.017702,,0
9,68,1,8,0,0,1,,7,L,0,S,14,0.007066,0.783658,0.005537,,0
9,69,1,4,0,0,1,,3,S,0,S,14,0.023439,0.763433,0.017894,,0
9,70,7,9,0,0,0,,2,S,0,S,19,0.777296,0.025863,0.020104,,0
9,71,4,3,0,0,1,,1,S,0,S,20,0.770268,0.032903,0.025344,,0
9,72,8,1,0,0,1,,7,L,0,S,14,0.794925,0.001834,0.001458,,0
10,1,3,1,0,0,1,,2,S,0,S,15,0.760796,0.028444,0.02164,,0
10,2,5,4,0,0,1,,1,S,0,S,19,0.79019,0.014972,0.011831,,0
10,3,8,7,0,0,1,,1,S,0,S,19,0.776377,0.025978,0.020168,,0
10,4,3,9,0,0,1,,6,S,0,S,14,0,0.802969,0,,0
10,5,1,6,0,0,1,,5,S,0,S,14,0.005851,0.786315,0.004601,,0
10,6,2,7,0,0,1,,5,S,0,S,14,0,0.796982,0,,0
10,7,9,8,0,0,0,,1,S,0,S,19,0.028013,0.77489,0.021707,,L
10,8,1,3,0,0,1,,2,S,0,S,15,0.00595,0.792247,0.004714,,0
10,9,1,8,0,0,1,,7,L,0,S,13,0.010246,0.774353,0.007934,,0
10,10,9,6,0,0,1,,3,S,0,S,20,0.751921,0.047072,0.035394,,0
10,11,8,2,0,0,1,,6,S,0,S,13,0.774741,0.010154,0.007867,,0
10,12,9,4,0,0,1,,5,S,0,S,16,0.792496,0.009042,0.007166,,0
10,13,6,7,0,0,1,,1,S,0,S,18,0.02521,0.775617,0.019553,,0
10,14,6,8,0,0,1,,2,S,0,S,18,0.022912,0.777256,0.017808,,0
10,15,6,9,0,0,1,,3,S,0,S,15,0.025165,0.766134,0.019279,,0
10,16,7,2,0,0,1,,5,S,0,S,13,0.759987,0.021609,0.016423,,0
10,17,7,5,0,0,1,,2,S,0,S,15,0.776174,0.017752,0.013779,,0
10,18,9,1,0,0,1,,8,L,0,S,13,0.759849,0.021763,0.016537,,0
10,19,8,6,0,0,1,,2,S,0,S,16,0.777009,0.019345,0.015031,,0
10,20,4,3,0,0,0,,1,S,0,S,19,0.033101,0.767986,0.025421,,0
10,21,4,6,0,0,1,,2,S,0,S,16,0.030427,0.763284,0.023225,,0
10,22,3,8,0,0,1,,5,S,0,S,15,0.004148,0.793186,0.00329,,0
10,23,2,9,0,0,1,,7,L,0,S,13,0,0.78788,0,,0
10,24,2,3,0,0,1,,1,S,0,S,16,0.017208,0.780774,0.013435,,0
10,25,7,1,0,0,1,,6,S,0,S,13,0.786145,0.000721,0.000567,,0
10,26,9,7,0,0,0,,2,S,0,S,19,0.031818,0.771394,0.024544,,0
10,27,3,7,0,0,1,,4,S,0,S,15,0.004531,0.79383,0.003597,,0
10,28,4,9,0,0,1,,5,S,0,S,13,0.02818,0.75101,0.021163,,0
10,29,8,4,0,0,1,,4,S,0,S,14,0.76965,0.018567,0.01429,,0
10,30,6,5,0,0,1,,1,S,0,S,17,0.76855,0.02829,0.021742,,0
10,31,7,9,0,0,1,,2,S,0,S,17,0.042142,0.751651,0.031676,,0
10,32,9,3,0,0,1,,6,S,0,S,17,0.79678,0.008759,0.006979,,0
10,33,3,4,0,0,1,,1,S,0,S,25,0.022125,0.783781,0.017341,,0
10,34,4,7,0,0,1,,3,S,0,S,15,0.003308,0.795701,0.002632,,0
10,35,6,1,0,0,1,,5,S,0,S,14,0.798518,0,0,,0
10,36,5,1,0,0,1,,4,S,0,S,14,0.763649,0.023213,0.017727,,0
10,37,5,6,0,0,1,,1,S,0,S,19,0.023955,0.778734,0.018655,,0
10,38,8,9,0,0,1,,1,S,0,S,19,0.036753,0.761812,0.027999,,L
10,39,5,7,0,0,1,,2,S,0,S,16,0.016196,0.78357,0.012691,,0
10,40,2,4,0,0,1,,2,S,0,S,17,0.022412,0.775609,0.017383,,0
10,41,9,2,0,0,1,,7,L,0,S,14,0.780728,0.012041,0.009401,,0
10,42,2,5,0,0,1,,3,S,0,S,16,0.026495,0.767787,0.020342,,0
10,43,5,2,0,0,1,,3,S,0,S,15,0.766742,0.025958,0.019903,,0
10,44,4,1,0,0,1,,3,S,0,S,15,0.759854,0.029422,0.022357,,0
10,45,2,8,0,0,1,,6,S,0,S,14,0,0.796099,0,,0
10,46,3,2,0,0,1,,1,S,0,S,17,0.784073,0.016623,0.013034,,0
10,47,1,5,0,0,1,,4,S,0,S,15,0.012191,0.783177,0.009547,,0
10,48,1,2,0,0,1,,1,S,0,S,19,0.031298,0.769337,0.024079,,S
10,49,8,5,0,0,1,,3,S,0,S,14,0.75033,0.033457,0.025104,,0
10,50,4,8,0,0,1,,4,S,0,S,15,0.002932,0.795052,0.002331,,0
10,51,2,1,0,0,1,,1,S,0,S,18,0.789137,0.012375,0.009766,,S
10,52,4,5,0,0,1,,1,S,0,S,20,0.02339,0.780158,0.018248,,0
10,53,1,4,0,0,1,,3,S,0,S,15,0.032121,0.757327,0.024326,,0
10,54,6,2,0,0,1,,4,S,0,S,14,0.762859,0.024064,0.018358,,0
10,55,3,5,0,0,1,,2,S,0,S,20,0.029275,0.772427,0.022613,,0
10,56,7,4,0,0,1,,3,S,0,S,15,0.798433,0.000314,0.000251,,0
10,57,5,8,0,0,1,,3,S,0,S,16,0.015332,0.783477,0.012012,,0
10,58,2,6,0,0,1,,4,S,0,S,15,0.002341,0.794848,0.001861,,0
10,59,1,9,0,0,1,,8,L,0,S,12,0.017894,0.755718,0.013523,,0
10,60,6,4,0,0,1,,2,S,0,S,16,0.761845,0.031213,0.02378,,0
10,61,8,1,0,0,1,,7,L,0,S,13,0.798137,0,0,,0
10,62,7,8,0,0,0,,1,S,0,S,23,0.772208,0.03118,0.024077,,0
10,63,9,5,0,0,1,,4,S,0,S,16,0.757938,0.036281,0.027499,,0
10,64,1,7,0,0,1,,6,S,0,S,13,0.010369,0.775256,0.008039,,0
10,65,7,6,0,0,1,,1,S,0,S,17,0.780726,0.01892,0.014772,,0
10,66,4,2,0,0,1,,2,S,0,S,17,0.78222,0.018349,0.014353,,0
10,67,8,3,0,0,1,,5,S,0,S,15,0.797363,0.001743,0.001389,,0
10,68,5,3,0,0,1,,2,S,0,S,22,0.764036,0.039113,0.029883,,0
10,69,6,3,0,0,1,,3,S,0,S,17,0.75533,0.039584,0.029899,,0
10,70,3,6,0,0,1,,3,S,0,S,16,0.03245,0.760356,0.024674,,0
10,71,7,3,0,0,1,,4,S,0,S,15,0.770583,0.022939,0.017677,,0
10,72,5,9,0,0,1,,4,S,0,S,14,0.021937,0.766634,0.016818,,0
11,1,2,6,0,0,1,,4,S,0,S,15,0.02147,0.771456,0.016563,,0
11,2,7,6,0,0,1,,1,S,0,S,27,0.762911,0.042836,0.03268,,0
11,3,5,3,0,0,1,,2,S,0,S,18,0.793743,0.01039,0.008247,,0
11,4,9,5,0,0,1,,4,S,0,S,16,0.770395,0.025675,0.01978,,0
11,5,6,8,0,0,1,,2,S,0,S,16,0.016205,0.777977,0.012607,,0
11,6,6,4,0,0,1,,2,S,0,S,16,0.772138,0.022154,0.017106,,0
11,7,3,9,0,0,1,,6,S,0,S,15,0.000512,0.798682,0.000409,,0
11,8,6,7,0,0,1,,1,S,0,S,19,0.016549,0.782471,0.012949,,0
11,9,4,6,0,0,1,,2,S,0,S,19,0.015923,0.790925,0.012594,,0
11,10,1,4,0,0,1,,3,S,0,S,17,0.037244,0.760317,0.028317,,0
11,11,4,1,0,0,1,,3,S,0,S,15,0.755009,0.032574,0.024594,,0
11,12,5,6,0,0,1,,1,S,0,S,28,0.017505,0.793264,0.013886,,0
11,13,3,1,0,0,1,,2,S,0,S,17,0.781893,0.017563,0.013732,,0
11,14,7,1,0,0,1,,6,S,0,S,14,0.754729,0.029793,0.022485,,0
11,15,9,1,0,0,1,,8,L,0,S,13,0.756011,0.021918,0.016571,,0
11,16,3,6,0,0,1,,3,S,0,S,16,0.032064,0.765195,0.024535,,0
11,17,6,1,0,0,1,,5,S,0,S,14,0.759312,0.023442,0.0178,,0
11,18,2,1,0,0,1,,1,S,0,S,20,0.774956,0.023745,0.018401,,S
11,19,1,7,0,0,1,,6,S,0,S,14,0.003983,0.788855,0.003142,,0
11,20,7,3,0,0,1,,4,S,0,S,17,0.764442,0.032825,0.025093,,0
11,21,5,2,0,0,1,,3,S,0,S,16,0.76381,0.031672,0.024191,,0
11,22,8,9,0,0,1,,1,S,0,S,29,0.027832,0.775589,0.021586,,L
11,23,7,2,0,0,1,,5,S,0,S,16,0.776849,0.022287,0.017314,,0
11,24,8,4,0,0,1,,4,S,0,S,15,0.790022,0.006611,0.005223,,0
11,25,5,9,0,0,1,,4,S,0,S,17,0.023599,0.774465,0.018276,,0
11,26,3,8,0,0,1,,5,S,0,S,14,0.002574,0.79106,0.002036,,0
11,27,3,4,0,0,1,,1,S,0,S,26,0.038396,0.76626,0.029421,,0
11,28,6,9,0,0,1,,3,S,0,S,18,0.029263,0.766366,0.022426,,0
11,29,8,7,0,0,1,,1,S,0,S,26,0.780303,0.02255,0.017596,,0
11,30,4,8,0,0,1,,4,S,0,S,14,0.032744,0.750615,0.024578,,0
11,31,9,2,0,0,1,,7,L,0,S,14,0.762145,0.024887,0.018968,,0
11,32,5,7,0,0,1,,2,S,0,S,17,0.040155,0.751905,0.030193,,0
11,33,2,7,0,0,1,,5,S,0,S,14,0.014894,0.770773,0.01148,,0
11,34,8,1,0,0,1,,7,L,0,S,14,0.800443,0,0,,0
11,35,9,8,0,0,0,,1,S,0,S,19,0.025732,0.773325,0.019899,,L
11,36,6,2,0,0,1,,4,S,0,S,16,0.788122,0.010409,0.008204,,0
11,37,6,5,0,0,1,,1,S,0,S,20,0.775225,0.026823,0.020794,,0
11,38,4,5,0,0,1,,1,S,0,S,20,0.028985,0.775435,0.022476,,0
11,39,5,4,0,0,1,,1,S,0,S,17,0.79329,0.009856,0.007818,,0
11,40,9,7,0,0,1,,2,S,0,S,22,0.793052,0.011103,0.008805,,0
11,41,1,8,0,0,1,,7,L,0,S,13,0.009415,0.776312,0.007309,,0
11,42,1,9,0,0,1,,8,L,0,S,14,0,0.797041,0,,0
11,43,1,6,0,0,1,,5,S,0,S,15,0.006245,0.794915,0.004964,,0
11,44,2,4,0,0,1,,2,S,0,S,18,0.037382,0.757923,0.028333,,0
11,45,5,1,0,0,1,,4,S,0,S,15,0.797957,0,0,,0
11,46,3,7,0,0,1,,4,S,0,S,15,0.007916,0.787886,0.006237,,0
11,47,4,2,0,0,1,,2,S,0,S,18,0.771722,0.029308,0.022617,,0
11,48,3,2,0,0,1,,1,S,0,S,26,0.765699,0.039726,0.030418,,0
11,49,1,3,0,0,1,,2,S,0,S,16,0.040399,0.752463,0.030399,,0
11,50,2,9,0,0,1,,7,L,0,S,14,0.009077,0.779682,0.007077,,0
11,51,8,5,0,0,1,,3,S,0,S,17,0.794697,0.008907,0.007079,,0
11,52,4,3,0,0,1,,1,S,0,S,21,0.769937,0.032075,0.024695,,0
11,53,9,3,0,0,1,,6,S,0,S,15,0.781427,0.012446,0.009726,,0
11,54,8,2,0,0,1,,6,S,0,S,15,0.800938,0,0,,0
11,55,7,8,0,0,1,,1,S,0,S,15,0.034824,0.754193,0.026264,,0
11,56,2,5,0,0,1,,3,S,0,S,15,0.034865,0.753839,0.026283,,0
11,57,4,9,0,0,1,,5,S,0,S,16,0.007249,0.792455,0.005745,,0
11,58,9,6,0,0,1,,3,S,0,S,17,0.795558,0.008241,0.006556,,0
11,59,7,9,0,0,1,,2,S,0,S,17,0.033862,0.762523,0.025821,,0
11,60,3,5,0,0,1,,2,S,0,S,17,0.016432,0.787533,0.012941,,0
11,61,1,2,0,0,1,,1,S,0,S,18,0.019256,0.786187,0.015139,,S
11,62,7,4,0,0,1,,3,S,0,S,16,0.758794,0.035663,0.027061,,0
11,63,1,5,0,0,1,,4,S,0,S,15,0.018049,0.779543,0.01407,,0
11,64,9,4,0,0,1,,5,S,0,S,14,0.751784,0.03209,0.024125,,0
11,65,8,3,0,0,1,,5,S,0,S,15,0.766103,0.024539,0.018799,,0
11,66,6,3,0,0,1,,3,S,0,S,17,0.783036,0.015037,0.011775,,0
11,67,2,8,0,0,1,,6,S,0,S,13,0.017753,0.761557,0.01352,,0
11,68,4,7,0,0,1,,3,S,0,S,16,0.017838,0.777586,0.01387,,0
11,69,8,6,0,0,1,,2,S,0,S,17,0.766806,0.031214,0.023935,,0
11,70,5,8,0,0,1,,3,S,0,S,15,0.029276,0.760302,0.022259,,0
11,71,7,5,0,0,1,,2,S,0,S,22,0.790291,0.019298,0.015251,,0
11,72,2,3,0,0,1,,1,S,0,S,17,0.031426,0.762514,0.023963,,0
12,1,2,1,0,0,1,,1,S,0,S,17,0.758445,0.03369,0.025552,,S
12,2,7,1,0,0,1,,6,S,0,S,13,0.755615,0.024015,0.018146,,0
12,3,3,7,0,0,1,,4,S,0,S,14,0.031812,0.754682,0.024008,,0
12,4,4,2,0,0,1,,2,S,0,S,16,0.793532,0.008427,0.006687,,0
12,5,3,5,0,0,1,,2,S,0,S,16,0.006072,0.795322,0.00483,,0
12,6,6,8,0,0,1,,2,S,0,S,17,0.012029,0.794114,0.009552,,0
12,7,1,3,0,0,1,,2,S,0,S,15,0.027724,0.759583,0.021058,,0
12,8,7,3,0,0,1,,4,S,0,S,15,0.786744,0.009108,0.007166,,0
12,9,9,7,0,0,1,,2,S,0,S,19,0.776833,0.026351,0.02047,,0
12,10,8,6,0,0,0,,2,S,0,S,18,0.028308,0.774008,0.02191,,0
12,11,9,1,0,0,1,,8,L,0,S,13,0.756839,0.022334,0.016904,,0
12,12,5,4,0,0,1,,1,S,0,S,20,0.764059,0.033226,0.025387,,0
12,13,2,4,0,0,1,,2,S,0,S,19,0.029721,0.766697,0.022787,,0
12,14,5,2,0,0,1,,3,S,0,S,16,0.784133,0.015715,0.012323,,0
12,15,1,4,0,0,1,,3,S,0,S,15,0.012493,0.778677,0.009728,,0
12,16,7,6,0,0,1,,1,S,0,S,32,0.782961,0.025992,0.020351,,0
12,17,6,2,0,0,1,,4,S,0,S,15,0.775443,0.022264,0.017264,,0
12,18,2,5,0,0,1,,3,S,0,S,17,0.006207,0.795722,0.004939,,0
12,19,6,1,0,0,1,,5,S,0,S,14,0.753317,0.031832,0.02398,,0
12,20,8,2,0,0,1,,6,S,0,S,15,0.798608,0.003216,0.002568,,0
12,21,7,8,0,0,1,,1,S,0,S,29,0.048763,0.755037,0.036818,,0
12,22,5,1,0,0,1,,4,S,0,S,15,0.771922,0.018733,0.01446,,0
12,23,4,1,0,0,1,,3,S,0,S,15,0.779088,0.013306,0.010367,,0
12,24,3,4,0,0,1,,1,S,0,S,17,0.034341,0.759403,0.026079,,0
12,25,4,5,0,0,1,,1,S,0,S,24,0.041771,0.758768,0.031695,,0
12,26,5,9,0,0,1,,4,S,0,S,16,0.018737,0.776526,0.014549,,0
12,27,1,7,0,0,1,,6,S,0,S,13,0.022141,0.758334,0.01679,,0
12,28,3,1,0,0,1,,2,S,0,S,19,0.778886,0.022132,0.017238,,0
12,29,9,2,0,0,1,,7,L,0,S,14,0.793362,0.002729,0.002165,,0
12,30,4,8,0,0,1,,4,S,0,S,16,0.02399,0.772852,0.018541,,0
12,31,6,4,0,0,1,,2,S,0,S,18,0.779767,0.021628,0.016865,,0
12,32,6,3,0,0,1,,3,S,0,S,17,0.777934,0.021995,0.017111,,0
12,33,2,7,0,0,1,,5,S,0,S,15,0.019021,0.774306,0.014728,,0
12,34,4,9,0,0,1,,5,S,0,S,16,0.026292,0.766999,0.020166,,0
12,35,8,3,0,0,1,,5,S,0,S,16,0.76976,0.02527,0.019452,,0
12,36,3,9,0,0,1,,6,S,0,S,14,0.009316,0.781719,0.007282,,0
12,37,4,3,0,0,1,,1,S,0,S,18,0.768772,0.028095,0.021599,,0
12,38,1,8,0,0,1,,7,L,0,S,13,0.005817,0.780366,0.004539,,0
12,39,3,6,0,0,1,,3,S,0,S,14,0.009653,0.783451,0.007563,,0
12,40,1,9,0,0,1,,8,L,0,S,13,0.007104,0.776139,0.005514,,0
12,41,2,8,0,0,1,,6,S,0,S,14,0.026383,0.760228,0.020057,,0
12,42,7,9,0,0,1,,2,S,0,S,29,0.04058,0.762005,0.030922,,0
12,43,1,6,0,0,1,,5,S,0,S,13,0.007184,0.778111,0.00559,,0
12,44,3,2,0,0,1,,1,S,0,S,26,0.792441,0.01852,0.014676,,0
12,45,5,7,0,0,1,,2,S,0,S,17,0.034457,0.761718,0.026247,,0
12,46,6,5,0,0,1,,1,S,0,S,23,0.764243,0.040095,0.030643,,0
12,47,1,5,0,0,1,,4,S,0,S,14,0.014972,0.773219,0.011577,,0
12,48,8,9,0,0,1,,1,S,0,S,18,0.024069,0.776879,0.018699,,L
12,49,7,5,0,0,1,,2,S,0,S,16,0.755862,0.037592,0.028414,,0
12,50,2,9,0,0,1,,7,L,0,S,14,0.028052,0.755277,0.021187,,0
12,51,5,8,0,0,1,,3,S,0,S,16,0.016451,0.782309,0.01287,,0
12,52,3,8,0,0,1,,5,S,0,S,14,0.007742,0.786394,0.006088,,0
12,53,1,2,0,0,1,,1,S,0,S,17,0.019563,0.781008,0.015279,,S
12,54,4,7,0,0,1,,3,S,0,S,18,0.010439,0.794294,0.008292,,0
12,55,6,7,0,0,1,,1,S,0,S,19,0.01833,0.789396,0.01447,,0
12,56,8,5,0,0,1,,3,S,0,S,19,0.755394,0.043395,0.03278,,0
12,57,9,6,0,0,1,,3,S,0,S,26,0.789766,0.019118,0.015099,,0
12,58,4,6,0,0,1,,2,S,0,S,16,0.02797,0.767253,0.02146,,0
12,59,9,5,0,0,1,,4,S,0,S,16,0.761742,0.032123,0.024469,,0
12,60,7,4,0,0,1,,3,S,0,S,15,0.765327,0.025214,0.019297,,0
12,61,2,3,0,0,1,,1,S,0,S,21,0.031619,0.767008,0.024252,,0
12,62,9,8,0,0,1,,1,S,0,S,28,0.776063,0.03084,0.023934,,L
12,63,9,4,0,0,1,,5,S,0,S,15,0.76862,0.021831,0.016779,,0
12,64,9,3,0,0,1,,6,S,0,S,15,0.789366,0.006257,0.004939,,0
12,65,8,1,0,0,1,,7,L,0,S,14,0.77181,0.01679,0.012959,,0
12,66,7,2,0,0,1,,5,S,0,S,14,0.79178,0.004717,0.003735,,0
12,67,2,6,0,0,1,,4,S,0,S,14,0.028613,0.756826,0.021655,,0
12,68,5,6,0,0,1,,1,S,0,S,16,0.020182,0.777047,0.015682,,0
12,69,6,9,0,0,1,,3,S,0,S,17,0.014519,0.788108,0.011443,,0
12,70,8,4,0,0,1,,4,S,0,S,17,0.784428,0.015359,0.012048,,0
12,71,5,3,0,0,1,,2,S,0,S,19,0.79531,0.008083,0.006428,,0
12,72,8,7,0,0,0,,1,S,0,S,22,0.017348,0.792024,0.01374,,0
13,1,5,7,0,0,1,,2,S,0,S,17,0.020495,0.779606,0.015978,,0
13,2,4,7,0,0,1,,3,S,0,S,17,0.024951,0.771055,0.019239,,0
13,3,7,6,0,0,1,,1,S,0,S,18,0.769027,0.03237,0.024894,,0
13,4,4,2,0,0,1,,2,S,0,S,20,0.791676,0.014734,0.011665,,0
13,5,6,2,0,0,1,,4,S,0,S,17,0.788742,0.013359,0.010537,,0
13,6,5,9,0,0,1,,4,S,0,S,17,0.008337,0.79698,0.006644,,0
13,7,9,4,0,0,1,,5,S,0,S,15,0.77587,0.019845,0.015397,,0
13,8,7,1,0,0,1,,6,S,0,S,14,0.750088,0.035745,0.026812,,0
13,9,7,3,0,0,1,,4,S,0,S,17,0.781985,0.021822,0.017064,,0
13,10,3,7,0,0,1,,4,S,0,S,16,0.01431,0.783941,0.011218,,0
13,11,5,2,0,0,1,,3,S,0,S,20,0.795495,0.014031,0.011162,,0
13,12,9,2,0,0,1,,7,L,0,S,14,0.756486,0.032582,0.024648,,0
13,13,4,5,0,0,1,,1,S,0,S,22,0.016822,0.788785,0.013269,,0
13,14,3,5,0,0,1,,2,S,0,S,18,0.031464,0.768388,0.024177,,0
13,15,5,8,0,0,1,,3,S,0,S,16,0.01373,0.785834,0.01079,,0
13,16,2,1,0,0,1,,1,S,0,S,17,0.750739,0.043563,0.032705,,S
13,17,1,4,0,0,1,,3,S,0,S,17,0.028578,0.768284,0.021956,,0
13,18,4,6,0,0,1,,2,S,0,S,25,0.028736,0.775707,0.02229,,0
13,19,7,5,0,0,1,,2,S,0,S,19,0.773856,0.029294,0.022669,,0
13,20,6,3,0,0,1,,3,S,0,S,18,0.797951,0.008227,0.006565,,0
13,21,8,6,0,0,1,,2,S,0,S,16,0.794117,0.00637,0.005059,,0
13,22,3,8,0,0,1,,5,S,0,S,15,0.018915,0.774773,0.014655,,0
13,23,2,4,0,0,1,,2,S,0,S,19,0.043545,0.753661,0.032818,,0
13,24,8,2,0,0,1,,6,S,0,S,15,0.793035,0.00522,0.00414,,0
13,25,5,3,0,0,1,,2,S,0,S,22,0.760098,0.044351,0.033711,,0
13,26,1,9,0,0,1,,8,L,0,S,15,0.002689,0.796303,0.002142,,0
13,27,4,1,0,0,1,,3,S,0,S,16,0.77725,0.019213,0.014933,,0
13,28,8,3,0,0,1,,5,S,0,S,15,0.775297,0.019609,0.015203,,0
13,29,3,2,0,0,1,,1,S,0,S,35,0.788316,0.021866,0.017237,,0
13,30,2,5,0,0,1,,3,S,0,S,18,0.013435,0.79075,0.010623,,0
13,31,6,7,0,0,1,,1,S,0,S,20,0.041576,0.754715,0.031378,,0
13,32,7,2,0,0,1,,5,S,0,S,16,0.765963,0.031584,0.024193,,0
13,33,9,8,0,0,1,,1,S,0,S,21,0.792211,0.016245,0.012869,,L
13,34,1,7,0,0,1,,6,S,0,S,15,0.009172,0.786065,0.00721,,0
13,35,1,2,0,0,1,,1,S,0,S,19,0.014003,0.792606,0.011099,,S
13,36,6,4,0,0,1,,2,S,0,S,18,0.764693,0.032121,0.024563,,0
13,37,7,8,0,0,1,,1,S,0,S,18,0.038348,0.759792,0.029137,,0
13,38,8,9,0,0,0,,1,S,0,S,19,0.775216,0.026301,0.020389,,L
13,39,2,9,0,0,1,,7,L,0,S,15,0.03341,0.757388,0.025304,,0
13,40,4,9,0,0,1,,5,S,0,S,17,0.012529,0.78889,0.009884,,0
13,41,6,8,0,0,1,,2,S,0,S,18,0.017765,0.782536,0.013902,,0
13,42,2,7,0,0,1,,5,S,0,S,16,0.005675,0.794605,0.004509,,0
13,43,2,6,0,0,1,,4,S,0,S,18,0.039475,0.758552,0.029944,,0
13,44,1,5,0,0,1,,4,S,0,S,16,0.027936,0.766954,0.021426,,0
13,45,1,3,0,0,1,,2,S,0,S,17,0.042809,0.753343,0.03225,,0
13,46,9,3,0,0,1,,6,S,0,S,15,0.791713,0.009707,0.007685,,0
13,47,7,4,0,0,1,,3,S,0,S,17,0.753122,0.042123,0.031724,,0
13,48,3,6,0,0,1,,3,S,0,S,19,0.026092,0.777396,0.020284,,0
13,49,8,5,0,0,1,,3,S,0,S,16,0.776392,0.0198,0.015373,,0
13,50,8,7,0,0,1,,1,S,0,S,19,0.79284,0.010557,0.00837,,0
13,51,3,9,0,0,1,,6,S,0,S,16,0.005439,0.797193,0.004336,,0
13,52,7,9,0,0,1,,2,S,0,S,21,0.016597,0.792484,0.013153,,0
13,53,6,5,0,0,1,,1,S,0,S,20,0.761576,0.037317,0.02842,,0
13,54,5,6,0,0,1,,1,S,0,S,24,0.043801,0.759744,0.033278,,0
13,55,9,6,0,0,1,,3,S,0,S,15,0.762961,0.030865,0.023549,,0
13,56,2,8,0,0,1,,6,S,0,S,15,0.012236,0.783046,0.009582,,0
13,57,8,1,0,0,1,,7,L,0,S,14,0.796812,0,0,,0
13,58,9,1,0,0,1,,8,L,0,S,13,0.755143,0.027307,0.020621,,0
13,59,2,3,0,0,1,,1,S,0,S,20,0.0413,0.761043,0.031431,,0
13,60,4,3,0,0,1,,1,S,0,S,22,0.760453,0.041583,0.031622,,0
13,61,9,5,0,0,1,,4,S,0,S,16,0.796575,0.006965,0.005548,,0
13,62,6,9,0,0,1,,3,S,0,S,20,0.011909,0.79418,0.009458,,0
13,63,5,4,0,0,1,,1,S,0,S,26,0.758253,0.044253,0.033555,,0
13,64,6,1,0,0,1,,5,S,0,S,15,0.785631,0.009843,0.007733,,0
13,65,1,6,0,0,1,,5,S,0,S,17,0.007055,0.796813,0.005621,,0
13,66,5,1,0,0,1,,4,S,0,S,16,0.781876,0.017775,0.013898,,0
13,67,9,7,0,0,1,,2,S,0,S,18,0.781942,0.02131,0.016663,,0
13,68,3,1,0,0,1,,2,S,0,S,17,0.771165,0.027787,0.021428,,0
13,69,8,4,0,0,1,,4,S,0,S,15,0.758252,0.030507,0.023132,,0
13,70,3,4,0,0,1,,1,S,0,S,20,0.040185,0.759495,0.03052,,0
13,71,4,8,0,0,1,,4,S,0,S,16,0.01727,0.778532,0.013445,,0
13,72,1,8,0,0,1,,7,L,0,S,14,0.022292,0.764573,0.017044,,0
14,1,4,7,0,0,1,,3,S,0,S,16,0.005982,0.795158,0.004757,,0
14,2,2,9,0,0,1,,7,L,0,S,13,0.025016,0.756777,0.018932,,0
14,3,6,7,0,0,0,,1,S,0,S,22,0.771762,0.031989,0.024688,,0
14,4,5,1,0,0,1,,4,S,0,S,14,0.792353,0.002426,0.001923,,0
14,5,8,4,0,0,1,,4,S,0,S,17,0.768469,0.030554,0.023479,,0
14,6,9,2,0,0,1,,7,L,0,S,14,0.789391,0.003756,0.002965,,0
14,7,9,8,0,0,1,,1,S,0,S,32,0.780813,0.026551,0.020732,,L
14,8,7,8,0,0,1,,1,S,0,S,18,0.036655,0.757354,0.027761,,0
14,9,1,2,0,0,1,,1,S,0,S,16,0.033766,0.75336,0.025438,,S
14,10,4,8,0,0,1,,4,S,0,S,14,0.008627,0.781068,0.006738,,0
14,11,7,1,0,0,1,,6,S,0,S,13,0.750622,0.026815,0.020128,,0
14,12,9,7,0,0,1,,2,S,0,S,16,0.771157,0.027566,0.021258,,0
14,13,9,1,0,0,1,,8,L,0,S,13,0.787472,0.001877,0.001478,,0
14,14,9,4,0,0,1,,5,S,0,S,17,0.795468,0.009898,0.007874,,0
14,15,4,2,0,0,1,,2,S,0,S,26,0.761075,0.03766,0.028662,,0
14,16,2,8,0,0,1,,6,S,0,S,14,0.026869,0.759555,0.020408,,0
14,17,3,9,0,0,1,,6,S,0,S,14,0.022281,0.766774,0.017084,,0
14,18,5,7,0,0,0,,2,S,0,S,22,0.769202,0.036024,0.02771,,0
14,19,6,3,0,0,1,,3,S,0,S,14,0.769213,0.019585,0.015065,,0
14,20,4,6,0,0,1,,2,S,0,S,15,0.01545,0.776568,0.011998,,0
14,21,6,8,0,0,1,,2,S,0,S,17,0.021845,0.77546,0.01694,,0
14,22,7,3,0,0,1,,4,S,0,S,14,0.786356,0.005534,0.004352,,0
14,23,8,7,0,0,1,,1,S,0,S,17,0.796703,0.008848,0.007049,,0
14,24,4,9,0,0,1,,5,S,0,S,13,0.011752,0.77211,0.009074,,0
14,25,6,2,0,0,1,,4,S,0,S,15,0.765332,0.023746,0.018173,,0
14,26,5,6,0,0,1,,1,S,0,S,22,0.038305,0.763013,0.029227,,0
14,27,3,5,0,0,1,,2,S,0,S,19,0.038331,0.763803,0.029277,,0
14,28,1,8,0,0,1,,7,L,0,S,13,0,0.78551,0,,0
14,29,3,8,0,0,1,,5,S,0,S,16,0.004423,0.796619,0.003524,,0
14,30,8,6,0,0,1,,2,S,0,S,18,0.76314,0.034638,0.026434,,0
14,31,3,6,0,0,1,,3,S,0,S,18,0.025654,0.774034,0.019857,,0
14,32,7,4,0,0,1,,3,S,0,S,20,0.76153,0.037084,0.02824,,0
14,33,8,2,0,0,1,,6,S,0,S,14,0.779001,0.011093,0.008641,,0
14,34,6,1,0,0,1,,5,S,0,S,14,0.789278,0.003219,0.002541,,0
14,35,6,4,0,0,1,,2,S,0,S,27,0.75118,0.048875,0.036714,,0
14,36,5,2,0,0,1,,3,S,0,S,15,0.768668,0.022893,0.017597,,0
14,37,5,9,0,0,1,,4,S,0,S,15,0.014863,0.781876,0.011621,,0
14,38,5,8,0,0,1,,3,S,0,S,17,0.01784,0.782854,0.013966,,0
14,39,7,5,0,0,1,,2,S,0,S,20,0.772987,0.029474,0.022783,,0
14,40,1,6,0,0,1,,5,S,0,S,13,0.025267,0.750273,0.018957,,0
14,41,1,4,0,0,1,,3,S,0,S,14,0,0.795275,0,,0
14,42,2,3,0,0,0,,1,S,0,S,16,0.757053,0.037468,0.028365,,0
14,43,9,6,0,0,1,,3,S,0,S,17,0.750688,0.043476,0.032637,,0
14,44,9,5,0,0,1,,4,S,0,S,16,0.752245,0.043116,0.032434,,0
14,45,2,6,0,0,1,,4,S,0,S,16,0.007482,0.792705,0.005931,,0
14,46,3,1,0,0,1,,2,S,0,S,14,0.760395,0.026588,0.020217,,0
14,47,1,7,0,0,1,,6,S,0,S,14,0.003665,0.78794,0.002888,,0
14,48,2,7,0,0,1,,5,S,0,S,17,0.007121,0.798773,0.005688,,0
14,49,2,5,0,0,1,,3,S,0,S,16,0.026541,0.77234,0.020498,,0
14,50,7,6,0,0,1,,1,S,0,S,24,0.774981,0.026294,0.020377,,0
14,51,4,1,0,0,1,,3,S,0,S,17,0.792614,0.008657,0.006862,,0
14,52,1,9,0,0,1,,8,L,0,S,12,0.012213,0.761047,0.009295,,0
14,53,7,9,0,0,1,,2,S,0,S,16,0.006146,0.793188,0.004875,,0
14,54,3,4,0,0,1,,1,S,0,S,19,0.036734,0.763961,0.028063,,0
14,55,8,1,0,0,1,,7,L,0,S,13,0.77982,0.007082,0.005522,,0
14,56,6,9,0,0,1,,3,S,0,S,15,0.017409,0.776425,0.013517,,0
14,57,2,4,0,0,1,,2,S,0,S,16,0.026615,0.770513,0.020507,,0
14,58,3,2,0,0,1,,1,S,0,S,16,0.763765,0.029141,0.022257,,0
14,59,9,3,0,0,1,,6,S,0,S,13,0.773596,0.013316,0.010301,,0
14,60,7,2,0,0,1,,5,S,0,S,15,0.789051,0.004481,0.003535,,0
14,61,8,5,0,0,1,,3,S,0,S,17,0.775056,0.02675,0.020733,,0
14,62,4,5,0,0,1,,1,S,0,S,15,0.029608,0.76213,0.022565,,0
14,63,6,5,0,0,1,,1,S,0,S,26,0.758184,0.044733,0.033916,,0
14,64,4,3,0,0,1,,1,S,0,S,18,0.777272,0.023489,0.018257,,0
14,65,1,5,0,0,1,,4,S,0,S,14,0,0.797406,0,,0
14,66,1,3,0,0,1,,2,S,0,S,19,0.014921,0.787247,0.011746,,0
14,67,5,3,0,0,1,,2,S,0,S,14,0.772293,0.018847,0.014556,,0
14,68,2,1,0,0,1,,1,S,0,S,16,0.799038,0.003432,0.002742,,S
14,69,8,9,0,0,1,,1,S,0,S,17,0.019256,0.782615,0.01507,,L
14,70,5,4,0,0,1,,1,S,0,S,28,0.752164,0.050252,0.037798,,0
14,71,3,7,0,0,1,,4,S,0,S,21,0.016309,0.792458,0.012925,,0
14,72,8,3,0,0,1,,5,S,0,S,13,0.765117,0.019137,0.014642,,0
15,1,7,6,0,0,1,,1,S,0,S,27,0.77136,0.034787,0.026833,,0
15,2,4,2,0,0,1,,2,S,0,S,20,0.770349,0.032684,0.025178,,0
15,3,6,5,0,0,1,,1,S,0,S,25,0.767682,0.034687,0.026628,,0
15,4,1,9,0,0,1,,8,L,0,S,14,0,0.803306,0,,0
15,5,4,7,0,0,1,,3,S,0,S,15,0.017092,0.776293,0.013269,,0
15,6,7,2,0,0,1,,5,S,0,S,14,0.753364,0.034619,0.02608,,0
15,7,8,3,0,0,1,,5,S,0,S,14,0.76378,0.024084,0.018395,,0
15,8,3,4,0,0,1,,1,S,0,S,18,0.010173,0.791735,0.008054,,0
15,9,8,9,0,0,1,,1,S,0,S,20,0.045217,0.754153,0.034101,,L
15,10,8,4,0,0,1,,4,S,0,S,16,0.757253,0.033184,0.025128,,0
15,11,3,1,0,0,1,,2,S,0,S,16,0.755305,0.034647,0.026169,,0
15,12,5,2,0,0,1,,3,S,0,S,19,0.788472,0.017888,0.014104,,0
15,13,5,6,0,0,1,,1,S,0,S,16,0.005514,0.7958,0.004388,,0
15,14,9,3,0,0,1,,6,S,0,S,14,0.779162,0.01227,0.00956,,0
15,15,1,2,0,0,1,,1,S,0,S,20,0.047862,0.751971,0.035991,,S
15,16,9,5,0,0,1,,4,S,0,S,17,0.757156,0.037677,0.028527,,0
15,17,5,7,0,0,1,,2,S,0,S,15,0.029081,0.761545,0.022146,,0
15,18,8,2,0,0,1,,6,S,0,S,14,0.760186,0.026664,0.020269,,0
15,19,2,7,0,0,1,,5,S,0,S,14,0.004463,0.786799,0.003512,,0
15,20,9,2,0,0,1,,7,L,0,S,14,0.775926,0.014587,0.011318,,0
15,21,1,4,0,0,1,,3,S,0,S,16,0.01608,0.781021,0.012558,,0
15,22,5,8,0,0,1,,3,S,0,S,15,0.037266,0.751088,0.02799,,0
15,23,4,5,0,0,1,,1,S,0,S,16,0.022432,0.774934,0.017383,,0
15,24,7,4,0,0,1,,3,S,0,S,17,0.788227,0.013997,0.011033,,0
15,25,8,6,0,0,1,,2,S,0,S,22,0.781088,0.022548,0.017612,,0
15,26,2,8,0,0,1,,6,S,0,S,14,0.009069,0.780908,0.007082,,0
15,27,3,8,0,0,1,,5,S,0,S,15,0.016168,0.776932,0.012561,,0
15,28,4,6,0,0,1,,2,S,0,S,15,0.028211,0.762365,0.021507,,0
15,29,2,4,0,0,1,,2,S,0,S,15,0.033268,0.753331,0.025062,,0
15,30,6,8,0,0,1,,2,S,0,S,21,0.010304,0.794567,0.008187,,0
15,31,1,7,0,0,1,,6,S,0,S,14,0.014427,0.775523,0.011189,,0
15,32,5,3,0,0,1,,2,S,0,S,18,0.754358,0.043916,0.033128,,0
15,33,6,3,0,0,1,,3,S,0,S,15,0.774117,0.019356,0.014984,,0
15,34,3,2,0,0,1,,1,S,0,S,22,0.791899,0.016022,0.012687,,0
15,35,6,9,0,0,1,,3,S,0,S,17,0.036832,0.758866,0.027951,,0
15,36,8,7,0,0,1,,1,S,0,S,26,0.76474,0.036262,0.027731,,0
15,37,3,7,0,0,1,,4,S,0,S,15,0.009449,0.785467,0.007422,,0
15,38,1,8,0,0,1,,7,L,0,S,14,0.019553,0.768963,0.015036,,0
15,39,2,1,0,0,1,,1,S,0,S,20,0.765384,0.032281,0.024707,,S
15,40,4,1,0,0,1,,3,S,0,S,16,0.773048,0.021395,0.016539,,0
15,41,9,1,0,0,1,,8,L,0,S,13,0.766214,0.014411,0.011042,,0
15,42,8,1,0,0,1,,7,L,0,S,13,0.754964,0.022853,0.017253,,0
15,43,5,9,0,0,1,,4,S,0,S,15,0.000607,0.801178,0.000486,,0
15,44,4,8,0,0,1,,4,S,0,S,15,0.024359,0.767043,0.018685,,0
15,45,2,3,0,0,1,,1,S,0,S,19,0.025135,0.777622,0.019546,,0
15,46,5,1,0,0,1,,4,S,0,S,16,0.794362,0.005273,0.004189,,0
15,47,9,6,0,0,1,,3,S,0,S,19,0.755606,0.040676,0.030735,,0
15,48,9,4,0,0,1,,5,S,0,S,16,0.7859,0.010854,0.00853,,0
15,49,6,4,0,0,1,,2,S,0,S,18,0.761954,0.032666,0.02489,,0
15,50,7,8,0,0,1,,1,S,0,S,33,0.028356,0.779392,0.0221,,0
15,51,2,9,0,0,1,,7,L,0,S,13,0.022656,0.759388,0.017205,,0
15,52,2,6,0,0,1,,4,S,0,S,14,0.011434,0.7781,0.008897,,0
15,53,5,4,0,0,0,,1,S,0,S,19,0.03186,0.767412,0.02445,,0
15,54,1,6,0,0,1,,5,S,0,S,14,0.02221,0.765784,0.017008,,0
15,55,3,5,0,0,1,,2,S,0,S,16,0.011428,0.788253,0.009008,,0
15,56,8,5,0,0,1,,3,S,0,S,18,0.75253,0.043015,0.03237,,0
15,57,6,7,0,0,1,,1,S,0,S,20,0.012053,0.791464,0.009539,,0
15,58,4,3,0,0,1,,1,S,0,S,20,0.789807,0.017322,0.013681,,0
15,59,3,6,0,0,1,,3,S,0,S,15,0.019706,0.772661,0.015226,,0
15,60,9,8,0,0,1,,1,S,0,S,20,0.78108,0.021139,0.016511,,L
15,61,7,3,0,0,1,,4,S,0,S,14,0.757234,0.031817,0.024093,,0
15,62,3,9,0,0,1,,6,S,0,S,14,0.020955,0.768775,0.01611,,0
15,63,1,5,0,0,1,,4,S,0,S,15,0.006236,0.792617,0.004943,,0
15,64,7,5,0,0,1,,2,S,0,S,19,0.75308,0.047047,0.03543,,0
15,65,7,9,0,0,1,,2,S,0,S,19,0.020935,0.78733,0.016483,,0
15,66,7,1,0,0,1,,6,S,0,S,13,0.751616,0.027926,0.02099,,0
15,67,4,9,0,0,1,,5,S,0,S,14,0.027217,0.761292,0.02072,,0
15,68,6,2,0,0,1,,4,S,0,S,15,0.769539,0.022725,0.017488,,0
15,69,2,5,0,0,1,,3,S,0,S,14,0.029336,0.756043,0.022179,,0
15,70,6,1,0,0,1,,5,S,0,S,14,0.779509,0.008553,0.006667,,0
15,71,1,3,0,0,1,,2,S,0,S,21,0.030501,0.774957,0.023637,,0
15,72,9,7,0,0,1,,2,S,0,S,21,0.779218,0.023177,0.01806,,0
16,1,6,2,0,0,1,,4,S,0,S,16,0.769921,0.026208,0.020178,,0
16,2,4,3,0,0,1,,1,S,0,S,26,0.77955,0.029528,0.023018,,0
16,3,8,5,0,0,1,,3,S,0,S,15,0.794107,0.004709,0.003739,,0
16,4,3,2,0,0,1,,1,S,0,S,21,0.768131,0.03379,0.025955,,0
16,5,8,6,0,0,1,,2,S,0,S,16,0.792471,0.008141,0.006452,,0
16,6,6,8,0,0,1,,2,S,0,S,18,0.042731,0.753806,0.032211,,0
16,7,6,4,0,0,1,,2,S,0,S,19,0.791995,0.010829,0.008577,,0
16,8,5,6,0,0,1,,1,S,0,S,18,0.021803,0.780052,0.017008,,0
16,9,2,9,0,0,1,,7,L,0,S,16,0.005716,0.798001,0.004562,,0
16,10,4,9,0,0,1,,5,S,0,S,16,0.023024,0.77394,0.017819,,0
16,11,2,3,0,0,1,,1,S,0,S,24,0.029929,0.780864,0.023371,,0
16,12,7,5,0,0,1,,2,S,0,S,19,0.788982,0.016234,0.012808,,0
16,13,1,6,0,0,1,,5,S,0,S,15,0.031003,0.758312,0.02351,,0
16,14,4,7,0,0,1,,3,S,0,S,14,0.024313,0.764068,0.018577,,0
16,15,8,2,0,0,1,,6,S,0,S,14,0.795519,0.001083,0.000861,,0
16,16,9,3,0,0,1,,6,S,0,S,15,0.763135,0.031588,0.024106,,0
16,17,3,6,0,0,1,,3,S,0,S,17,0.014615,0.784186,0.011461,,0
16,18,3,8,0,0,1,,5,S,0,S,15,0.034353,0.754768,0.025929,,0
16,19,5,2,0,0,1,,3,S,0,S,18,0.758614,0.040808,0.030957,,0
16,20,5,9,0,0,1,,4,S,0,S,16,0.038988,0.754657,0.029423,,0
16,21,9,1,0,0,1,,8,L,0,S,13,0.760092,0.020832,0.015834,,0
16,22,2,1,0,0,1,,1,S,0,S,15,0.75434,0.035062,0.026448,,S
16,23,4,6,0,0,1,,2,S,0,S,17,0.033668,0.761762,0.025647,,0
16,24,6,5,0,0,1,,1,S,0,S,19,0.756985,0.040236,0.030458,,0
16,25,2,5,0,0,1,,3,S,0,S,19,0.026732,0.777348,0.02078,,0
16,26,7,3,0,0,1,,4,S,0,S,17,0.786257,0.018432,0.014492,,0
16,27,5,1,0,0,1,,4,S,0,S,15,0.782999,0.012073,0.009453,,0
16,28,6,9,0,0,1,,3,S,0,S,19,0.039165,0.758954,0.029724,,0
16,29,5,3,0,0,1,,2,S,0,S,21,0.752966,0.050091,0.037717,,0
16,30,1,3,0,0,1,,2,S,0,S,18,0.025332,0.778799,0.019729,,0
16,31,6,7,0,0,1,,1,S,0,S,16,0.004968,0.796508,0.003957,,0
16,32,7,2,0,0,1,,5,S,0,S,16,0.78422,0.016288,0.012773,,0
16,33,3,9,0,0,1,,6,S,0,S,16,0.010001,0.788807,0.007889,,0
16,34,2,4,0,0,1,,2,S,0,S,20,0.032784,0.768881,0.025207,,0
16,35,9,8,0,0,1,,1,S,0,S,25,0.777582,0.030001,0.023328,,L
16,36,2,7,0,0,1,,5,S,0,S,14,0.014358,0.778972,0.011185,,0
16,37,8,3,0,0,1,,5,S,0,S,14,0.776756,0.016981,0.01319,,0
16,38,9,6,0,0,1,,3,S,0,S,18,0.755043,0.041489,0.031326,,0
16,39,4,5,0,0,1,,1,S,0,S,20,0.04632,0.751596,0.034814,,0
16,40,3,4,0,0,1,,1,S,0,S,20,0.042776,0.752006,0.032168,,0
16,41,1,5,0,0,1,,4,S,0,S,17,0.008702,0.794043,0.00691,,0
16,42,1,4,0,0,1,,3,S,0,S,17,0.027504,0.768248,0.02113,,0
16,43,3,7,0,0,1,,4,S,0,S,14,0.01724,0.771636,0.013303,,0
16,44,5,4,0,0,0,,1,S,0,S,29,0.021939,0.784459,0.01721,,0
16,45,6,3,0,0,1,,3,S,0,S,17,0.767203,0.032174,0.024684,,0
16,46,3,5,0,0,1,,2,S,0,S,19,0.034848,0.762988,0.026589,,0
16,47,7,8,0,0,1,,1,S,0,S,19,0.023961,0.780876,0.01871,,0
16,48,9,4,0,0,1,,5,S,0,S,16,0.773872,0.021919,0.016962,,0
16,49,4,1,0,0,1,,3,S,0,S,15,0.766752,0.023835,0.018275,,0
16,50,4,2,0,0,1,,2,S,0,S,19,0.753056,0.045576,0.034321,,0
16,51,5,8,0,0,1,,3,S,0,S,16,0.02406,0.774661,0.018638,,0
16,52,6,1,0,0,1,,5,S,0,S,14,0.772939,0.014609,0.011292,,0
16,53,1,8,0,0,1,,7,L,0,S,14,0.031572,0.754735,0.023828,,0
16,54,1,7,0,0,1,,6,S,0,S,13,0.027368,0.753086,0.02061,,0
16,55,7,9,0,0,1,,2,S,0,S,20,0.026687,0.777652,0.020754,,0
16,56,2,8,0,0,1,,6,S,0,S,15,0.030532,0.763538,0.023312,,0
16,57,7,1,0,0,1,,6,S,0,S,14,0.781164,0.0095,0.007421,,0
16,58,7,4,0,0,1,,3,S,0,S,18,0.77134,0.027439,0.021164,,0
16,59,8,4,0,0,1,,4,S,0,S,15,0.800607,0,0,,0
16,60,3,1,0,0,1,,2,S,0,S,16,0.797144,0.001581,0.00126,,0
16,61,8,9,0,0,0,,1,S,0,S,17,0.794879,0.009423,0.00749,,L
16,62,5,7,0,0,1,,2,S,0,S,14,0.03253,0.754428,0.024542,,0
16,63,4,8,0,0,1,,4,S,0,S,16,0.010002,0.791426,0.007916,,0
16,64,9,7,0,0,0,,2,S,0,S,17,0.044085,0.751626,0.033135,,0
16,65,8,7,0,0,1,,1,S,0,S,28,0.791004,0.019195,0.015183,,0
16,66,9,5,0,0,1,,4,S,0,S,16,0.760538,0.033866,0.025756,,0
16,67,7,6,0,0,1,,1,S,0,S,33,0.786633,0.020909,0.016448,,0
16,68,1,9,0,0,1,,8,L,0,S,15,0.003871,0.794593,0.003076,,0
16,69,9,2,0,0,1,,7,L,0,S,15,0.792514,0.00716,0.005674,,0
16,70,1,2,0,0,1,,1,S,0,S,21,0.019444,0.787712,0.015316,,S
16,71,2,6,0,0,1,,4,S,0,S,17,0.009326,0.79476,0.007412,,0
16,72,8,1,0,0,1,,7,L,0,S,13,0.794932,0,0,,0
17,1,4,3,0,0,0,,1,S,0,S,21,0.016828,0.791678,0.013322,,0
17,2,2,3,0,0,1,,1,S,0,S,19,0.038433,0.761794,0.029278,,0
17,3,1,7,0,0,1,,6,S,0,S,14,0,0.797667,0,,0
17,4,3,8,0,0,1,,5,S,0,S,14,0.004193,0.789988,0.003312,,0
17,5,5,4,0,0,0,,1,S,0,S,32,0.028185,0.778545,0.021943,,0
17,6,8,2,0,0,1,,6,S,0,S,14,0.773752,0.018266,0.014133,,0
17,7,4,2,0,0,1,,2,S,0,S,19,0.759742,0.041895,0.031829,,0
17,8,7,4,0,0,1,,3,S,0,S,19,0.776109,0.028421,0.022058,,0
17,9,7,5,0,0,1,,2,S,0,S,16,0.785637,0.013847,0.010879,,0
17,10,4,7,0,0,1,,3,S,0,S,17,0.035806,0.762392,0.027298,,0
17,11,2,1,0,0,1,,1,S,0,S,16,0.759507,0.034967,0.026558,,S
17,12,6,3,0,0,1,,3,S,0,S,15,0.750022,0.038876,0.029158,,0
17,13,4,9,0,0,1,,5,S,0,S,14,0.034729,0.753783,0.026178,,0
17,14,7,8,0,0,1,,1,S,0,S,17,0.022642,0.778954,0.017637,,0
17,15,2,4,0,0,1,,2,S,0,S,16,0.041222,0.751328,0.030972,,0
17,16,9,3,0,0,1,,6,S,0,S,15,0.773607,0.020895,0.016165,,0
17,17,2,7,0,0,1,,5,S,0,S,17,0.015312,0.787586,0.01206,,0
17,18,8,5,0,0,1,,3,S,0,S,15,0.781933,0.012864,0.010059,,0
17,19,8,9,0,0,1,,1,S,0,S,24,0.02207,0.788934,0.017412,,L
17,20,5,1,0,0,1,,4,S,0,S,14,0.759777,0.0274,0.020818,,0
17,21,2,8,0,0,1,,6,S,0,S,14,0.012776,0.778514,0.009946,,0
17,22,9,1,0,0,1,,8,L,0,S,13,0.769373,0.015289,0.011763,,0
17,23,1,2,0,0,1,,1,S,0,S,15,0.031194,0.760228,0.023715,,S
17,24,9,2,0,0,1,,7,L,0,S,14,0.779683,0.013386,0.010437,,0
17,25,5,9,0,0,1,,4,S,0,S,16,0.034704,0.761815,0.026438,,0
17,26,1,9,0,0,1,,8,L,0,S,13,0,0.800937,0,,0
17,27,1,4,0,0,1,,3,S,0,S,14,0,0.801702,0,,0
17,28,7,3,0,0,1,,4,S,0,S,16,0.759648,0.036206,0.027504,,0
17,29,6,9,0,0,1,,3,S,0,S,21,0.041101,0.762774,0.031351,,0
17,30,8,6,0,0,1,,2,S,0,S,17,0.783534,0.019396,0.015197,,0
17,31,9,8,0,0,0,,1,S,0,S,21,0.012655,0.795152,0.010063,,L
17,32,6,4,0,0,1,,2,S,0,S,17,0.764214,0.033019,0.025233,,0
17,33,3,9,0,0,1,,6,S,0,S,14,0.016501,0.777051,0.012822,,0
17,34,7,9,0,0,1,,2,S,0,S,18,0.032089,0.772603,0.024792,,0
17,35,5,2,0,0,1,,3,S,0,S,16,0.788198,0.013123,0.010344,,0
17,36,4,8,0,0,1,,4,S,0,S,14,0.019988,0.769807,0.015387,,0
17,37,5,6,0,0,1,,1,S,0,S,26,0.050245,0.751835,0.037776,,0
17,38,3,2,0,0,1,,1,S,0,S,24,0.75184,0.05093,0.038291,,0
17,39,6,1,0,0,1,,5,S,0,S,13,0.757583,0.023939,0.018136,,0
17,40,6,7,0,0,0,,1,S,0,S,17,0.781043,0.0201,0.015699,,0
17,41,9,7,0,0,1,,2,S,0,S,16,0.766978,0.02927,0.02245,,0
17,42,1,5,0,0,1,,4,S,0,S,15,0.001462,0.794741,0.001162,,0
17,43,8,1,0,0,1,,7,L,0,S,13,0.765112,0.018804,0.014387,,0
17,44,6,2,0,0,1,,4,S,0,S,14,0.763723,0.025395,0.019395,,0
17,45,6,8,0,0,1,,2,S,0,S,19,0.017111,0.787226,0.01347,,0
17,46,4,6,0,0,1,,2,S,0,S,17,0.016512,0.787559,0.013005,,0
17,47,8,4,0,0,1,,4,S,0,S,17,0.78769,0.015147,0.011931,,0
17,48,1,8,0,0,1,,7,L,0,S,12,0.02072,0.751232,0.015566,,0
17,49,3,4,0,0,1,,1,S,0,S,16,0.02148,0.776925,0.016688,,0
17,50,9,4,0,0,1,,5,S,0,S,16,0.753348,0.039574,0.029813,,0
17,51,3,5,0,0,1,,2,S,0,S,20,0.02358,0.779356,0.018377,,0
17,52,8,3,0,0,1,,5,S,0,S,15,0.764652,0.028178,0.021546,,0
17,53,5,7,0,0,0,,2,S,0,S,25,0.759914,0.042946,0.032635,,0
17,54,5,8,0,0,1,,3,S,0,S,16,0.008154,0.79234,0.006461,,0
17,55,7,1,0,0,1,,6,S,0,S,14,0.794962,0.001884,0.001498,,0
17,56,3,1,0,0,1,,2,S,0,S,17,0.781651,0.020081,0.015696,,0
17,57,2,6,0,0,1,,4,S,0,S,16,0.035274,0.760171,0.026814,,0
17,58,7,2,0,0,1,,5,S,0,S,15,0.791119,0.009632,0.00762,,0
17,59,8,7,0,0,1,,1,S,0,S,16,0.75335,0.040265,0.030333,,0
17,60,1,6,0,0,1,,5,S,0,S,13,0.027733,0.752467,0.020868,,0
17,61,2,9,0,0,1,,7,L,0,S,14,0.026311,0.764014,0.020102,,0
17,62,6,5,0,0,1,,1,S,0,S,15,0.769272,0.022062,0.016972,,0
17,63,1,3,0,0,1,,2,S,0,S,14,0.022076,0.765619,0.016902,,0
17,64,2,5,0,0,1,,3,S,0,S,22,0.031057,0.771096,0.023948,,0
17,65,4,5,0,0,1,,1,S,0,S,27,0.018394,0.789082,0.014514,,0
17,66,3,7,0,0,1,,4,S,0,S,16,0.030291,0.76613,0.023207,,0
17,67,7,6,0,0,1,,1,S,0,S,19,0.764776,0.038459,0.029413,,0
17,68,9,6,0,0,1,,3,S,0,S,17,0.798611,0.007077,0.005652,,0
17,69,3,6,0,0,1,,3,S,0,S,16,0.016347,0.784628,0.012826,,0
17,70,4,1,0,0,1,,3,S,0,S,16,0.781233,0.018501,0.014454,,0
17,71,5,3,0,0,1,,2,S,0,S,18,0.757473,0.040114,0.030385,,0
17,72,9,5,0,0,1,,4,S,0,S,15,0.789531,0.006644,0.005245,,0
18,1,7,3,0,0,1,,4,S,0,S,16,0.799797,0.001785,0.001427,,0
18,2,2,1,0,0,1,,1,S,0,S,18,0.761474,0.034096,0.025963,,S
18,3,8,7,0,0,0,,1,S,0,S,19,0.034901,0.763617,0.026651,,0
18,4,2,7,0,0,1,,5,S,0,S,13,0.021867,0.760609,0.016632,,0
18,5,5,1,0,0,1,,4,S,0,S,14,0.767363,0.018264,0.014015,,0
18,6,8,9,0,0,1,,1,S,0,S,19,0.041917,0.752382,0.031538,,L
18,7,1,5,0,0,1,,4,S,0,S,16,0.017777,0.78391,0.013936,,0
18,8,6,5,0,0,1,,1,S,0,S,31,0.75659,0.047702,0.036091,,0
18,9,7,6,0,0,1,,1,S,0,S,27,0.791594,0.014432,0.011425,,0
18,10,6,2,0,0,1,,4,S,0,S,18,0.796329,0.010384,0.008269,,0
18,11,1,8,0,0,1,,7,L,0,S,14,0.031785,0.75638,0.024041,,0
18,12,3,1,0,0,1,,2,S,0,S,16,0.795968,0.001193,0.000949,,0
18,13,7,8,0,0,1,,1,S,0,S,20,0.031951,0.770147,0.024607,,0
18,14,1,2,0,0,1,,1,S,0,S,19,0.017439,0.790131,0.013779,,S
18,15,2,4,0,0,1,,2,S,0,S,16,0.026721,0.770513,0.020589,,0
18,16,6,9,0,0,1,,3,S,0,S,15,0.029728,0.759906,0.02259,,0
18,17,7,4,0,0,1,,3,S,0,S,18,0.781741,0.020117,0.015726,,0
18,18,6,8,0,0,1,,2,S,0,S,17,0.040684,0.756025,0.030758,,0
18,19,7,2,0,0,1,,5,S,0,S,16,0.765988,0.029085,0.022279,,0
18,20,6,7,0,0,1,,1,S,0,S,15,0.026958,0.765602,0.020639,,0
18,21,9,2,0,0,1,,7,L,0,S,15,0.774287,0.021844,0.016913,,0
18,22,4,7,0,0,1,,3,S,0,S,16,0.002978,0.79944,0.002381,,0
18,23,2,3,0,0,1,,1,S,0,S,20,0.013795,0.793862,0.010952,,0
18,24,9,1,0,0,1,,8,L,0,S,13,0.753252,0.025405,0.019136,,0
18,25,3,7,0,0,1,,4,S,0,S,14,0.028209,0.756387,0.021337,,0
18,26,5,4,0,0,1,,1,S,0,S,19,0.793161,0.012915,0.010244,,0
18,27,1,4,0,0,1,,3,S,0,S,17,0.01161,0.793326,0.009211,,0
18,28,3,6,0,0,1,,3,S,0,S,17,0.02466,0.770573,0.019003,,0
18,29,6,4,0,0,1,,2,S,0,S,21,0.781225,0.024909,0.019459,,0
18,30,8,6,0,0,1,,2,S,0,S,18,0.785791,0.014609,0.01148,,0
18,31,6,1,0,0,1,,5,S,0,S,15,0.800917,0,0,,0
18,32,9,3,0,0,1,,6,S,0,S,15,0.798498,0.002189,0.001748,,0
18,33,8,1,0,0,1,,7,L,0,S,13,0.759457,0.018563,0.014098,,0
18,34,5,8,0,0,1,,3,S,0,S,19,0.022867,0.781275,0.017865,,0
18,35,4,8,0,0,1,,4,S,0,S,18,0.030517,0.770609,0.023517,,0
18,36,3,2,0,0,1,,1,S,0,S,23,0.794497,0.013284,0.010554,,0
18,37,9,4,0,0,1,,5,S,0,S,16,0.77175,0.026432,0.020399,,0
18,38,4,5,0,0,0,,1,S,0,S,23,0.787833,0.021102,0.016625,,0
18,39,8,3,0,0,1,,5,S,0,S,14,0.758208,0.027273,0.020678,,0
18,40,3,5,0,0,1,,2,S,0,S,19,0.013226,0.792271,0.010479,,0
18,41,8,4,0,0,1,,4,S,0,S,16,0.792153,0.007928,0.00628,,0
18,42,4,1,0,0,1,,3,S,0,S,14,0.759611,0.024545,0.018645,,0
18,43,9,6,0,0,1,,3,S,0,S,19,0.785524,0.018635,0.014638,,0
18,44,1,9,0,0,1,,8,L,0,S,14,0,0.801111,0,,0
18,45,3,9,0,0,1,,6,S,0,S,14,0.03042,0.751411,0.022858,,0
18,46,5,7,0,0,1,,2,S,0,S,16,0.014579,0.784207,0.011433,,0
18,47,2,8,0,0,1,,6,S,0,S,14,0.021504,0.768889,0.016535,,0
18,48,2,5,0,0,1,,3,S,0,S,15,0.037472,0.753999,0.028254,,0
18,49,9,7,0,0,0,,2,S,0,S,18,0.018476,0.78608,0.014524,,0
18,50,7,9,0,0,1,,2,S,0,S,16,0.033718,0.756681,0.025514,,0
18,51,2,6,0,0,1,,4,S,0,S,15,0.012002,0.783242,0.009401,,0
18,52,3,8,0,0,1,,5,S,0,S,16,0.012315,0.786646,0.009688,,0
18,53,1,6,0,0,1,,5,S,0,S,15,0.024902,0.767496,0.019112,,0
18,54,8,5,0,0,1,,3,S,0,S,16,0.761878,0.032561,0.024808,,0
18,55,2,9,0,0,1,,7,L,0,S,13,0.02349,0.75651,0.017771,,0
18,56,5,3,0,0,1,,2,S,0,S,16,0.785082,0.014015,0.011003,,0
18,57,5,9,0,0,1,,4,S,0,S,16,0.017857,0.777898,0.013891,,0
18,58,4,9,0,0,1,,5,S,0,S,16,0.006059,0.793456,0.004807,,0
18,59,5,2,0,0,1,,3,S,0,S,17,0.795048,0.009029,0.007178,,0
18,60,3,4,0,0,1,,1,S,0,S,21,0.024543,0.778869,0.019115,,0
18,61,9,8,0,0,1,,1,S,0,S,24,0.784798,0.024615,0.019318,,L
18,62,1,3,0,0,1,,2,S,0,S,22,0.020874,0.787504,0.016438,,0
18,63,7,5,0,0,1,,2,S,0,S,19,0.757322,0.041694,0.031575,,0
18,64,4,2,0,0,1,,2,S,0,S,17,0.77548,0.024941,0.019341,,0
18,65,1,7,0,0,1,,6,S,0,S,13,0.02912,0.751844,0.021894,,0
18,66,4,6,0,0,1,,2,S,0,S,22,0.023953,0.779885,0.018681,,0
18,67,7,1,0,0,1,,6,S,0,S,14,0.775419,0.011512,0.008927,,0
18,68,9,5,0,0,1,,4,S,0,S,17,0.783559,0.020268,0.015881,,0
18,69,8,2,0,0,1,,6,S,0,S,15,0.788017,0.00877,0.006911,,0
18,70,6,3,0,0,1,,3,S,0,S,16,0.750716,0.041679,0.031289,,0
18,71,5,6,0,0,1,,1,S,0,S,25,0.02837,0.774887,0.021983,,0
18,72,4,3,0,0,1,,1,S,0,S,16,0.770373,0.025953,0.019993,,0
19,1,9,4,0,0,1,,5,S,0,S,15,0.76564,0.025831,0.019778,,0
19,2,2,7,0,0,1,,5,S,0,S,14,0.017067,0.778144,0.01328,,0
19,3,1,8,0,0,1,,7,L,0,S,13,0,0.795764,0,,0
19,4,9,5,0,0,1,,4,S,0,S,14,0.755301,0.030589,0.023104,,0
19,5,8,6,0,0,1,,2,S,0,S,18,0.79629,0.007237,0.005763,,0
19,6,6,9,0,0,1,,3,S,0,S,28,0.033464,0.773729,0.025892,,0
19,7,1,9,0,0,1,,8,L,0,S,13,0.015137,0.769506,0.011648,,0
19,8,5,1,0,0,1,,4,S,0,S,16,0.796259,0.006399,0.005095,,0
19,9,4,6,0,0,1,,2,S,0,S,15,0.025308,0.763324,0.019319,,0
19,10,5,9,0,0,1,,4,S,0,S,16,0.036644,0.759548,0.027833,,0
19,11,6,7,0,0,0,,1,S,0,S,36,0.770946,0.037317,0.028769,,0
19,12,9,2,0,0,1,,7,L,0,S,13,0.760724,0.019521,0.01485,,0
19,13,8,3,0,0,1,,5,S,0,S,14,0.790548,0.003647,0.002883,,0
19,14,4,1,0,0,1,,3,S,0,S,20,0.79047,0.015088,0.011927,,0
19,15,6,4,0,0,1,,2,S,0,S,16,0.75799,0.035777,0.027118,,0
19,16,1,6,0,0,1,,5,S,0,S,14,0,0.794919,0,,0
19,17,7,2,0,0,1,,5,S,0,S,14,0.781903,0.007118,0.005566,,0
19,18,4,2,0,0,1,,2,S,0,S,18,0.755688,0.039263,0.029671,,0
19,19,5,3,0,0,1,,2,S,0,S,16,0.765839,0.029838,0.022851,,0
19,20,2,8,0,0,1,,6,S,0,S,13,0.024185,0.760104,0.018383,,0
19,21,4,8,0,0,1,,4,S,0,S,14,0.000635,0.794488,0.000504,,0
19,22,8,5,0,0,1,,3,S,0,S,14,0.75198,0.034566,0.025993,,0
19,23,3,7,0,0,1,,4,S,0,S,15,0.02513,0.768664,0.019316,,0
19,24,3,8,0,0,1,,5,S,0,S,14,0.020713,0.767311,0.015893,,0
19,25,9,6,0,0,1,,3,S,0,S,17,0.760847,0.032046,0.024382,,0
19,26,9,1,0,0,1,,8,L,0,S,13,0.752861,0.026488,0.019942,,0
19,27,2,4,0,0,1,,2,S,0,S,16,0.025408,0.773439,0.019651,,0
19,28,9,8,0,0,0,,1,S,0,S,23,0.030751,0.773821,0.023796,,L
19,29,5,8,0,0,1,,3,S,0,S,15,0.016914,0.780286,0.013198,,0
19,30,4,5,0,0,1,,1,S,0,S,19,0.038926,0.760573,0.029606,,0
19,31,1,4,0,0,1,,3,S,0,S,14,0.031117,0.753759,0.023455,,0
19,32,3,2,0,0,1,,1,S,0,S,17,0.785927,0.012899,0.010138,,0
19,33,3,6,0,0,1,,3,S,0,S,16,0.02514,0.766022,0.019258,,0
19,34,6,1,0,0,1,,5,S,0,S,14,0.778949,0.012573,0.009794,,0
19,35,8,1,0,0,1,,7,L,0,S,13,0.751191,0.029094,0.021855,,0
19,36,7,5,0,0,1,,2,S,0,S,15,0.756723,0.032147,0.024326,,0
19,37,8,4,0,0,1,,4,S,0,S,15,0.760649,0.03118,0.023717,,0
19,38,7,1,0,0,1,,6,S,0,S,14,0.772109,0.015682,0.012108,,0
19,39,6,8,0,0,1,,2,S,0,S,18,0.023316,0.77976,0.018181,,0
19,40,6,5,0,0,1,,1,S,0,S,15,0.765279,0.027823,0.021293,,0
19,41,3,9,0,0,1,,6,S,0,S,15,0.023481,0.769312,0.018064,,0
19,42,5,6,0,0,1,,1,S,0,S,18,0.025834,0.773293,0.019977,,0
19,43,1,3,0,0,1,,2,S,0,S,17,0.013345,0.787246,0.010506,,0
19,44,5,7,0,0,1,,2,S,0,S,16,0.039687,0.757207,0.030051,,0
19,45,1,5,0,0,1,,4,S,0,S,15,0.025039,0.767627,0.01922,,0
19,46,2,3,0,0,1,,1,S,0,S,25,0.022987,0.786054,0.018069,,0
19,47,4,3,0,0,1,,1,S,0,S,23,0.788242,0.017877,0.014091,,0
19,48,5,2,0,0,1,,3,S,0,S,15,0.764318,0.027355,0.020908,,0
19,49,7,8,0,0,1,,1,S,0,S,18,0.022209,0.778036,0.017279,,0
19,50,3,5,0,0,1,,2,S,0,S,28,0.023957,0.782363,0.018743,,0
19,51,9,7,0,0,1,,2,S,0,S,19,0.790051,0.017039,0.013461,,0
19,52,1,2,0,0,1,,1,S,0,S,19,0.014576,0.78821,0.011489,,S
19,53,7,4,0,0,1,,3,S,0,S,17,0.796074,0.005615,0.00447,,0
19,54,1,7,0,0,1,,6,S,0,S,13,0.015771,0.770011,0.012144,,0
19,55,2,9,0,0,1,,7,L,0,S,14,0.01602,0.778107,0.012465,,0
19,56,7,9,0,0,1,,2,S,0,S,26,0.042588,0.758692,0.032311,,0
19,57,4,9,0,0,1,,5,S,0,S,14,0.032199,0.754049,0.02428,,0
19,58,8,7,0,0,1,,1,S,0,S,19,0.766294,0.037641,0.028844,,0
19,59,6,2,0,0,1,,4,S,0,S,14,0.788542,0.004131,0.003257,,0
19,60,3,1,0,0,1,,2,S,0,S,17,0.75483,0.038549,0.029098,,0
19,61,4,7,0,0,1,,3,S,0,S,14,0.033465,0.753854,0.025228,,0
19,62,8,2,0,0,1,,6,S,0,S,13,0.759352,0.021879,0.016614,,0
19,63,2,5,0,0,1,,3,S,0,S,18,0.014161,0.793482,0.011237,,0
19,64,3,4,0,0,1,,1,S,0,S,19,0.025394,0.775395,0.019691,,0
19,65,6,3,0,0,1,,3,S,0,S,14,0.761888,0.025234,0.019226,,0
19,66,2,6,0,0,1,,4,S,0,S,15,0.005307,0.792263,0.004204,,0
19,67,7,3,0,0,1,,4,S,0,S,14,0.754642,0.028571,0.021561,,0
19,68,5,4,0,0,1,,1,S,0,S,26,0.776031,0.030928,0.024001,,0
19,69,8,9,0,0,0,,1,S,0,S,20,0.794895,0.014423,0.011465,,L
19,70,9,3,0,0,1,,6,S,0,S,14,0.792347,0.000922,0.000731,,0
19,71,7,6,0,0,1,,1,S,0,S,21,0.788015,0.01339,0.010552,,0
19,72,2,1,0,0,1,,1,S,0,S,23,0.781092,0.027009,0.021096,,S
20,1,7,5,0,0,1,,2,S,0,S,18,0.752782,0.042947,0.03233,,0
20,2,9,5,0,0,1,,4,S,0,S,18,0.797332,0.007682,0.006125,,0
20,3,2,8,0,0,1,,6,S,0,S,15,0.036439,0.750891,0.027362,,0
20,4,7,4,0,0,1,,3,S,0,S,18,0.79647,0.007106,0.005659,,0
20,5,8,6,0,0,1,,2,S,0,S,21,0.79461,0.016393,0.013026,,0
20,6,4,7,0,0,1,,3,S,0,S,18,0.026943,0.772058,0.020801,,0
20,7,6,9,0,0,1,,3,S,0,S,18,0.013657,0.790252,0.010793,,0
20,8,2,3,0,0,1,,1,S,0,S,22,0.023452,0.783761,0.018381,,0
20,9,4,5,0,0,1,,1,S,0,S,23,0.021058,0.783794,0.016505,,0
20,10,8,5,0,0,1,,3,S,0,S,19,0.782409,0.02224,0.0174,,0
20,11,3,9,0,0,1,,6,S,0,S,14,0.016671,0.775013,0.01292,,0
20,12,3,8,0,0,1,,5,S,0,S,14,0.027581,0.757114,0.020882,,0
20,13,6,2,0,0,1,,4,S,0,S,15,0.78476,0.010628,0.00834,,0
20,14,4,6,0,0,1,,2,S,0,S,20,0.0195,0.786749,0.015342,,0
20,15,7,2,0,0,1,,5,S,0,S,14,0.768333,0.020841,0.016013,,0
20,16,9,8,0,0,1,,1,S,0,S,28,0.761041,0.039707,0.030218,,L
20,17,2,6,0,0,1,,4,S,0,S,17,0.012409,0.792611,0.009836,,0
20,18,8,7,0,0,1,,1,S,0,S,35,0.782317,0.026191,0.02049,,0
20,19,6,4,0,0,1,,2,S,0,S,20,0.764844,0.032803,0.025089,,0
20,20,7,3,0,0,1,,4,S,0,S,16,0.762815,0.032297,0.024636,,0
20,21,1,4,0,0,1,,3,S,0,S,15,0.021112,0.770019,0.016257,,0
20,22,5,6,0,0,1,,1,S,0,S,24,0.017813,0.792609,0.014119,,0
20,23,7,6,0,0,1,,1,S,0,S,20,0.780617,0.025437,0.019856,,0
20,24,9,6,0,0,1,,3,S,0,S,18,0.752143,0.045806,0.034452,,0
20,25,5,2,0,0,1,,3,S,0,S,15,0.78275,0.013602,0.010647,,0
20,26,5,8,0,0,1,,3,S,0,S,18,0.03306,0.763673,0.025247,,0
20,27,7,1,0,0,1,,6,S,0,S,14,0.768187,0.021936,0.016851,,0
20,28,8,1,0,0,1,,7,L,0,S,14,0.765736,0.025112,0.019229,,0
20,29,4,8,0,0,1,,4,S,0,S,17,0.027247,0.76758,0.020914,,0
20,30,2,1,0,0,1,,1,S,0,S,17,0.777663,0.024015,0.018676,,S
20,31,2,5,0,0,1,,3,S,0,S,18,0.01069,0.794016,0.008488,,0
20,32,4,9,0,0,1,,5,S,0,S,16,0.039434,0.753178,0.029701,,0
20,33,3,6,0,0,1,,3,S,0,S,15,0.021355,0.774506,0.016539,,0
20,34,2,7,0,0,1,,5,S,0,S,16,0.019891,0.77789,0.015473,,0
20,35,9,3,0,0,1,,6,S,0,S,16,0.78726,0.013137,0.010342,,0
20,36,6,1,0,0,1,,5,S,0,S,15,0.784283,0.012007,0.009417,,0
20,37,1,5,0,0,1,,4,S,0,S,15,0.0062,0.790704,0.004902,,0
20,38,1,8,0,0,1,,7,L,0,S,14,0.00421,0.78705,0.003314,,0
20,39,5,3,0,0,1,,2,S,0,S,18,0.771764,0.029315,0.022625,,0
20,40,4,3,0,0,1,,1,S,0,S,20,0.777465,0.025838,0.020088,,0
20,41,9,4,0,0,1,,5,S,0,S,17,0.783183,0.016111,0.012618,,0
20,42,3,1,0,0,1,,2,S,0,S,22,0.789146,0.019732,0.015571,,0
20,43,4,1,0,0,1,,3,S,0,S,15,0.753603,0.036252,0.02732,,0
20,44,6,5,0,0,1,,1,S,0,S,23,0.777207,0.025851,0.020092,,0
20,45,6,7,0,0,1,,1,S,0,S,20,0.0419,0.755293,0.031647,,0
20,46,8,3,0,0,1,,5,S,0,S,16,0.755345,0.039559,0.029881,,0
20,47,2,9,0,0,1,,7,L,0,S,15,0.021072,0.774564,0.016322,,0
20,48,1,9,0,0,1,,8,L,0,S,14,0,0.80238,0,,0
20,49,5,7,0,0,1,,2,S,0,S,20,0.016415,0.789361,0.012957,,0
20,50,5,9,0,0,1,,4,S,0,S,17,0.037174,0.760398,0.028267,,0
20,51,7,9,0,0,1,,2,S,0,S,20,0.044755,0.755774,0.033825,,0
20,52,6,8,0,0,1,,2,S,0,S,19,0.013317,0.788104,0.010495,,0
20,53,5,1,0,0,1,,4,S,0,S,15,0.782146,0.015085,0.011799,,0
20,54,1,3,0,0,1,,2,S,0,S,16,0.00946,0.791492,0.007487,,0
20,55,9,1,0,0,1,,8,L,0,S,14,0.780883,0.012171,0.009504,,0
20,56,6,3,0,0,1,,3,S,0,S,18,0.782313,0.019381,0.015162,,0
20,57,9,2,0,0,1,,7,L,0,S,14,0.780864,0.011225,0.008765,,0
20,58,5,4,0,0,1,,1,S,0,S,21,0.785466,0.018689,0.014679,,0
20,59,3,7,0,0,1,,4,S,0,S,15,0.004287,0.793992,0.003404,,0
20,60,3,2,0,0,1,,1,S,0,S,21,0.763293,0.038736,0.029567,,0
20,61,1,7,0,0,1,,6,S,0,S,14,0.014131,0.775901,0.010964,,0
20,62,1,2,0,0,1,,1,S,0,S,22,0.014229,0.793822,0.011296,,S
20,63,8,9,0,0,1,,1,S,0,S,20,0.014291,0.795761,0.011372,,L
20,64,2,4,0,0,1,,2,S,0,S,19,0.016415,0.786736,0.012914,,0
20,65,3,4,0,0,1,,1,S,0,S,16,0.025138,0.769161,0.019335,,0
20,66,9,7,0,0,1,,2,S,0,S,21,0.774369,0.029003,0.022459,,0
20,67,4,2,0,0,1,,2,S,0,S,15,0.754734,0.034324,0.025906,,0
20,68,7,8,0,0,1,,1,S,0,S,23,0.032633,0.768787,0.025088,,0
20,69,8,4,0,0,1,,4,S,0,S,18,0.784848,0.017802,0.013972,,0
20,70,3,5,0,0,1,,2,S,0,S,16,0.004774,0.796641,0.003803,,0
20,71,8,2,0,0,1,,6,S,0,S,14,0.76598,0.023937,0.018335,,0
20,72,1,6,0,0,1,,5,S,0,S,14,0.027379,0.76102,0.020836,,0
21,1,6,1,0,0,1,,5,S,0,S,14,0.752255,0.033495,0.025197,,0
21,2,6,3,0,0,1,,3,S,0,S,19,0.788511,0.017401,0.013721,,0
21,3,9,5,0,0,1,,4,S,0,S,15,0.760573,0.029,0.022057,,0
21,4,2,9,0,0,1,,7,L,0,S,14,0.026725,0.757633,0.020247,,0
21,5,7,1,0,0,1,,6,S,0,S,14,0.754761,0.029544,0.022298,,0
21,6,5,4,0,0,1,,1,S,0,S,19,0.755049,0.04725,0.035676,,0
21,7,9,3,0,0,1,,6,S,0,S,15,0.791776,0.004821,0.003817,,0
21,8,2,3,0,0,1,,1,S,0,S,17,0.004581,0.79628,0.003648,,0
21,9,9,8,0,0,1,,1,S,0,S,15,0.756651,0.033596,0.02542,,L
21,10,9,6,0,0,1,,3,S,0,S,17,0.757647,0.03757,0.028465,,0
21,11,6,5,0,0,1,,1,S,0,S,22,0.753101,0.047832,0.036023,,0
21,12,7,3,0,0,1,,4,S,0,S,18,0.761036,0.03567,0.027146,,0
21,13,4,7,0,0,1,,3,S,0,S,20,0.04183,0.758039,0.031709,,0
21,14,3,5,0,0,1,,2,S,0,S,16,0.020855,0.773848,0.016138,,0
21,15,6,9,0,0,1,,3,S,0,S,18,0.042736,0.755967,0.032307,,0
21,16,6,4,0,0,1,,2,S,0,S,17,0.789727,0.015268,0.012058,,0
21,17,5,3,0,0,0,,2,S,0,S,30,0.024031,0.78645,0.018899,,0
21,18,5,7,0,0,1,,2,S,0,S,18,0.043271,0.756021,0.032714,,0
21,19,1,7,0,0,1,,6,S,0,S,13,0.025811,0.755371,0.019497,,0
21,20,2,6,0,0,1,,4,S,0,S,14,0.024893,0.760466,0.018931,,0
21,21,3,8,0,0,1,,5,S,0,S,16,0.011764,0.787466,0.009264,,0
21,22,5,1,0,0,1,,4,S,0,S,15,0.758635,0.033839,0.025672,,0
21,23,2,4,0,0,1,,2,S,0,S,18,0.026058,0.773267,0.02015,,0
21,24,1,6,0,0,1,,5,S,0,S,13,0.004282,0.785012,0.003361,,0
21,25,1,2,0,0,1,,1,S,0,S,20,0.011294,0.795536,0.008985,,S
21,26,8,3,0,0,1,,5,S,0,S,16,0.78664,0.012875,0.010128,,0
21,27,7,8,0,0,0,,1,S,0,S,22,0.768474,0.034946,0.026855,,0
21,28,9,2,0,0,1,,7,L,0,S,13,0.793284,0,0,,0
21,29,7,4,0,0,1,,3,S,0,S,17,0.798717,0.005945,0.004748,,0
21,30,7,6,0,0,0,,1,S,0,S,19,0.025673,0.776675,0.019939,,0
21,31,9,7,0,0,1,,2,S,0,S,16,0.790162,0.008753,0.006916,,0
21,32,1,9,0,0,1,,8,L,0,S,13,0.005413,0.783133,0.004239,,0
21,33,6,8,0,0,0,,2,S,0,S,24,0.758042,0.046438,0.035202,,0
21,34,2,7,0,0,1,,5,S,0,S,15,0.02667,0.761722,0.020315,,0
21,35,9,4,0,0,1,,5,S,0,S,14,0.774535,0.01599,0.012385,,0
21,36,8,1,0,0,1,,7,L,0,S,14,0.80131,0,0,,0
21,37,2,1,0,0,1,,1,S,0,S,20,0.781257,0.019749,0.015429,,S
21,38,1,5,0,0,1,,4,S,0,S,14,0,0.798682,0,,0
21,39,5,9,0,0,1,,4,S,0,S,16,0.030945,0.767469,0.023749,,0
21,40,9,1,0,0,1,,8,L,0,S,13,0.775205,0.008895,0.006896,,0
21,41,2,5,0,0,1,,3,S,0,S,16,0.006062,0.791844,0.0048,,0
21,42,3,2,0,0,1,,1,S,0,S,17,0.790299,0.009039,0.007143,,0
21,43,4,6,0,0,1,,2,S,0,S,17,0.021703,0.779983,0.016928,,0
21,44,8,4,0,0,1,,4,S,0,S,15,0.783274,0.014259,0.011169,,0
21,45,5,2,0,0,1,,3,S,0,S,15,0.799338,0.001381,0.001104,,0
21,46,8,2,0,0,1,,6,S,0,S,13,0.770188,0.013182,0.010153,,0
21,47,5,8,0,0,1,,3,S,0,S,19,0.031821,0.774303,0.024639,,0
21,48,4,2,0,0,1,,2,S,0,S,14,0.76103,0.025452,0.01937,,0
21,49,4,1,0,0,1,,3,S,0,S,15,0.77679,0.017819,0.013842,,0
21,50,4,8,0,0,1,,4,S,0,S,22,0.018912,0.790492,0.01495,,0
21,51,7,9,0,0,1,,2,S,0,S,19,0.033625,0.766176,0.025763,,0
21,52,6,2,0,0,1,,4,S,0,S,14,0.782974,0.009224,0.007222,,0
21,53,1,3,0,0,1,,2,S,0,S,14,0.013729,0.777925,0.01068,,0
21,54,8,6,0,0,1,,2,S,0,S,22,0.780944,0.025655,0.020035,,0
21,55,2,8,0,0,1,,6,S,0,S,15,0.033784,0.754571,0.025493,,0
21,56,3,9,0,0,1,,6,S,0,S,15,0.000257,0.79762,0.000205,,0
21,57,4,9,0,0,1,,5,S,0,S,17,0.026078,0.773988,0.020184,,0
21,58,3,4,0,0,1,,1,S,0,S,19,0.026142,0.775681,0.020278,,0
21,59,1,4,0,0,1,,3,S,0,S,14,0.035316,0.751868,0.026553,,0
21,60,3,6,0,0,1,,3,S,0,S,15,0,0.800579,0,,0
21,61,6,7,0,0,1,,1,S,0,S,30,0.048611,0.753944,0.03665,,0
21,62,8,9,0,0,0,,1,S,0,S,21,0.753372,0.046727,0.035203,,L
21,63,7,5,0,0,1,,2,S,0,S,21,0.769409,0.031899,0.024544,,0
21,64,7,2,0,0,1,,5,S,0,S,14,0.784203,0.006347,0.004977,,0
21,65,4,3,0,0,1,,1,S,0,S,22,0.784765,0.021794,0.017103,,0
21,66,1,8,0,0,1,,7,L,0,S,13,0.02939,0.752549,0.022118,,0
21,67,5,6,0,0,1,,1,S,0,S,16,0.027475,0.772334,0.02122,,0
21,68,8,5,0,0,1,,3,S,0,S,17,0.787342,0.01443,0.011361,,0
21,69,4,5,0,0,1,,1,S,0,S,23,0.043756,0.757785,0.033157,,0
21,70,3,7,0,0,1,,4,S,0,S,16,0.003877,0.795481,0.003084,,0
21,71,3,1,0,0,1,,2,S,0,S,19,0.793551,0.009863,0.007827,,0
21,72,8,7,0,0,1,,1,S,0,S,17,0.752993,0.04144,0.031204,,0
22,1,5,2,0,0,1,,3,S,0,S,15,0.755719,0.030637,0.023153,,0
22,2,9,7,0,0,1,,2,S,0,S,21,0.753549,0.042466,0.032,,0
22,3,8,5,0,0,1,,3,S,0,S,18,0.772513,0.027753,0.02144,,0
22,4,5,8,0,0,1,,3,S,0,S,17,0.019532,0.776825,0.015173,,0
22,5,6,2,0,0,1,,4,S,0,S,15,0.792534,0.004436,0.003516,,0
22,6,3,8,0,0,1,,5,S,0,S,17,0.008313,0.795005,0.006609,,0
22,7,5,6,0,0,1,,1,S,0,S,18,0.036376,0.758151,0.027579,,0
22,8,2,9,0,0,1,,7,L,0,S,14,0.001533,0.79319,0.001216,,0
22,9,7,2,0,0,1,,5,S,0,S,14,0.778343,0.01282,0.009979,,0
22,10,9,5,0,0,1,,4,S,0,S,17,0.757984,0.033731,0.025568,,0
22,11,4,6,0,0,1,,2,S,0,S,15,0.032897,0.758174,0.024941,,0
22,12,1,2,0,0,1,,1,S,0,S,21,0.042297,0.754157,0.031899,,S
22,13,4,2,0,0,1,,2,S,0,S,18,0.785557,0.017311,0.013599,,0
22,14,8,1,0,0,1,,7,L,0,S,14,0.766858,0.023847,0.018287,,0
22,15,3,7,0,0,1,,4,S,0,S,17,0.03128,0.765355,0.02394,,0
22,16,3,9,0,0,1,,6,S,0,S,15,0.017003,0.776283,0.013199,,0
22,17,5,4,0,0,1,,1,S,0,S,29,0.754984,0.043367,0.032741,,0
22,18,7,4,0,0,1,,3,S,0,S,17,0.769474,0.029356,0.022589,,0
22,19,1,5,0,0,1,,4,S,0,S,15,0.000916,0.794217,0.000727,,0
22,20,8,4,0,0,1,,4,S,0,S,17,0.773479,0.026883,0.020794,,0
22,21,4,5,0,0,1,,1,S,0,S,17,0.005343,0.797617,0.004262,,0
22,22,1,7,0,0,1,,6,S,0,S,14,0.004573,0.785773,0.003594,,0
22,23,2,7,0,0,1,,5,S,0,S,15,0.013082,0.783864,0.010255,,0
22,24,1,4,0,0,1,,3,S,0,S,15,0.012743,0.780787,0.009949,,0
22,25,2,5,0,0,1,,3,S,0,S,16,0.028986,0.766341,0.022213,,0
22,26,1,9,0,0,1,,8,L,0,S,13,0.006787,0.775913,0.005266,,0
22,27,4,7,0,0,1,,3,S,0,S,15,0.021083,0.772175,0.01628,,0
22,28,9,2,0,0,1,,7,L,0,S,14,0.785608,0.004611,0.003622,,0
22,29,6,1,0,0,1,,5,S,0,S,15,0.774532,0.020078,0.015551,,0
22,30,5,9,0,0,1,,4,S,0,S,15,0.024152,0.763181,0.018432,,0
22,31,6,5,0,0,1,,1,S,0,S,23,0.774205,0.028129,0.021777,,0
22,32,2,3,0,0,1,,1,S,0,S,27,0.025482,0.784544,0.019992,,0
22,33,7,1,0,0,1,,6,S,0,S,14,0.7646,0.024971,0.019093,,0
22,34,4,8,0,0,1,,4,S,0,S,15,0.009003,0.788234,0.007097,,0
22,35,9,8,0,0,1,,1,S,0,S,25,0.763809,0.036217,0.027663,,L
22,36,9,1,0,0,1,,8,L,0,S,14,0.773468,0.01546,0.011958,,0
22,37,8,2,0,0,1,,6,S,0,S,14,0.780486,0.011772,0.009188,,0
22,38,5,7,0,0,1,,2,S,0,S,18,0.008644,0.791979,0.006846,,0
22,39,4,3,0,0,1,,1,S,0,S,27,0.791319,0.018707,0.014803,,0
22,40,3,2,0,0,1,,1,S,0,S,15,0.757761,0.032091,0.024317,,0
22,41,4,1,0,0,1,,3,S,0,S,19,0.76743,0.034805,0.02671,,0
22,42,1,3,0,0,1,,2,S,0,S,17,0.02355,0.774189,0.018232,,0
22,43,7,9,0,0,1,,2,S,0,S,17,0.031584,0.764704,0.024153,,0
22,44,2,8,0,0,1,,6,S,0,S,15,0.001747,0.798889,0.001396,,0
22,45,5,1,0,0,1,,4,S,0,S,16,0.78202,0.014759,0.011542,,0
22,46,9,4,0,0,1,,5,S,0,S,17,0.797067,0.004562,0.003636,,0
22,47,2,1,0,0,1,,1,S,0,S,20,0.779881,0.027076,0.021116,,S
22,48,7,5,0,0,1,,2,S,0,S,18,0.767621,0.030915,0.023731,,0
22,49,9,3,0,0,1,,6,S,0,S,15,0.795393,0.001899,0.00151,,0
22,50,9,6,0,0,1,,3,S,0,S,20,0.790905,0.01317,0.010416,,0
22,51,8,6,0,0,1,,2,S,0,S,22,0.786617,0.021716,0.017082,,0
22,52,8,7,0,0,1,,1,S,0,S,27,0.760551,0.042746,0.03251,,0
22,53,2,6,0,0,1,,4,S,0,S,15,0.024063,0.770979,0.018552,,0
22,54,8,9,0,0,1,,1,S,0,S,17,0.032304,0.764671,0.024702,,L
22,55,7,8,0,0,1,,1,S,0,S,23,0.041297,0.760999,0.031427,,0
22,56,5,3,0,0,1,,2,S,0,S,17,0.773229,0.023472,0.018149,,0
22,57,3,1,0,0,1,,2,S,0,S,16,0.783413,0.016709,0.01309,,0
22,58,4,9,0,0,1,,5,S,0,S,14,0.006835,0.784978,0.005365,,0
22,59,1,8,0,0,1,,7,L,0,S,14,0,0.796254,0,,0
22,60,3,6,0,0,1,,3,S,0,S,18,0.020591,0.782268,0.016108,,0
22,61,3,5,0,0,1,,2,S,0,S,21,0.045408,0.752324,0.034161,,0
22,62,8,3,0,0,1,,5,S,0,S,15,0.786527,0.012191,0.009588,,0
22,63,6,8,0,0,1,,2,S,0,S,18,0.035415,0.761881,0.026982,,0
22,64,7,3,0,0,1,,4,S,0,S,15,0.783978,0.013554,0.010626,,0
22,65,6,7,0,0,1,,1,S,0,S,19,0.040369,0.756606,0.030543,,0
22,66,7,6,0,0,1,,1,S,0,S,22,0.775304,0.030071,0.023314,,0
22,67,6,4,0,0,1,,2,S,0,S,20,0.777105,0.025909,0.020134,,0
22,68,6,9,0,0,1,,3,S,0,S,16,0.013976,0.782888,0.010942,,0
22,69,2,4,0,0,1,,2,S,0,S,17,0.015834,0.787766,0.012474,,0
22,70,3,4,0,0,1,,1,S,0,S,29,0.014896,0.794846,0.01184,,0
22,71,6,3,0,0,1,,3,S,0,S,16,0.781249,0.01743,0.013617,,0
22,72,1,6,0,0,1,,5,S,0,S,14,0.011484,0.777895,0.008933,,0
23,1,3,2,0,0,1,,1,S,0,S,26,0.789203,0.020654,0.0163,,0
23,2,7,1,0,0,1,,6,S,0,S,13,0.781046,0.003482,0.00272,,0
23,3,2,3,0,0,1,,1,S,0,S,18,0.032432,0.771041,0.025006,,0
23,4,1,9,0,0,1,,8,L,0,S,14,0.002811,0.790632,0.002223,,0
23,5,9,4,0,0,1,,5,S,0,S,18,0.792837,0.012214,0.009684,,0
23,6,6,3,0,0,1,,3,S,0,S,18,0.780641,0.024242,0.018925,,0
23,7,6,8,0,0,1,,2,S,0,S,15,0.033628,0.758635,0.025512,,0
23,8,3,9,0,0,1,,6,S,0,S,15,0.011708,0.787729,0.009223,,0
23,9,2,9,0,0,1,,7,L,0,S,14,0.031748,0.756876,0.024029,,0
23,10,7,2,0,0,1,,5,S,0,S,15,0.775922,0.016882,0.013099,,0
23,11,1,5,0,0,1,,4,S,0,S,15,0.014796,0.776051,0.011483,,0
23,12,3,8,0,0,1,,5,S,0,S,14,0.008069,0.787145,0.006351,,0
23,13,2,6,0,0,1,,4,S,0,S,16,0.019575,0.778331,0.015236,,0
23,14,6,9,0,0,1,,3,S,0,S,17,0.040686,0.756925,0.030796,,0
23,15,4,6,0,0,1,,2,S,0,S,23,0.012899,0.795087,0.010256,,0
23,16,5,7,0,0,1,,2,S,0,S,21,0.035582,0.768312,0.027338,,0
23,17,6,7,0,0,1,,1,S,0,S,25,0.031305,0.775637,0.024281,,0
23,18,1,3,0,0,1,,2,S,0,S,16,0.022863,0.773939,0.017695,,0
23,19,8,6,0,0,1,,2,S,0,S,15,0.758386,0.031255,0.023703,,0
23,20,2,4,0,0,1,,2,S,0,S,16,0.04019,0.753054,0.030265,,0
23,21,2,5,0,0,1,,3,S,0,S,16,0.026119,0.769199,0.020091,,0
23,22,4,9,0,0,1,,5,S,0,S,17,0.015079,0.789088,0.011899,,0
23,23,5,9,0,0,1,,4,S,0,S,17,0.016143,0.787831,0.012718,,0
23,24,7,4,0,0,1,,3,S,0,S,17,0.766463,0.028629,0.021943,,0
23,25,6,2,0,0,1,,4,S,0,S,16,0.755193,0.038618,0.029164,,0
23,26,5,1,0,0,1,,4,S,0,S,14,0.798069,0,0,,0
23,27,5,6,0,0,1,,1,S,0,S,23,0.019198,0.787365,0.015116,,0
23,28,9,8,0,0,0,,1,S,0,S,17,0.015059,0.788981,0.011882,,L
23,29,4,2,0,0,1,,2,S,0,S,17,0.775052,0.025117,0.019467,,0
23,30,7,3,0,0,1,,4,S,0,S,16,0.787945,0.01189,0.009368,,0
23,31,6,4,0,0,1,,2,S,0,S,22,0.77716,0.028054,0.021803,,0
23,32,9,3,0,0,1,,6,S,0,S,16,0.776362,0.023707,0.018405,,0
23,33,4,5,0,0,1,,1,S,0,S,24,0.029458,0.773999,0.0228,,0
23,34,5,2,0,0,1,,3,S,0,S,17,0.776797,0.023804,0.018491,,0
23,35,3,1,0,0,1,,2,S,0,S,15,0.796191,0.002984,0.002375,,0
23,36,8,2,0,0,1,,6,S,0,S,14,0.791111,0.003531,0.002793,,0
23,37,1,7,0,0,1,,6,S,0,S,15,0.003335,0.793791,0.002648,,0
23,38,5,3,0,0,1,,2,S,0,S,19,0.780449,0.025562,0.01995,,0
23,39,8,9,0,0,0,,1,S,0,S,17,0.755714,0.041193,0.03113,,L
23,40,8,1,0,0,1,,7,L,0,S,12,0.761377,0.0137,0.010431,,0
23,41,1,2,0,0,1,,1,S,0,S,17,0.039919,0.752834,0.030052,,S
23,42,8,7,0,0,1,,1,S,0,S,15,0.754076,0.036384,0.027437,,0
23,43,1,8,0,0,1,,7,L,0,S,13,0.010997,0.773217,0.008503,,0
23,44,5,8,0,0,1,,3,S,0,S,15,0.020562,0.775293,0.015941,,0
23,45,3,6,0,0,1,,3,S,0,S,17,0.011848,0.790809,0.009369,,0
23,46,7,5,0,0,1,,2,S,0,S,18,0.781639,0.01676,0.0131,,0
23,47,8,4,0,0,1,,4,S,0,S,15,0.779602,0.015601,0.012163,,0
23,48,9,6,0,0,1,,3,S,0,S,19,0.787117,0.01711,0.013468,,0
23,49,9,5,0,0,1,,4,S,0,S,18,0.754145,0.041335,0.031172,,0
23,50,9,2,0,0,1,,7,L,0,S,15,0.768378,0.025367,0.019491,,0
23,51,6,5,0,0,1,,1,S,0,S,26,0.760802,0.04058,0.030873,,0
23,52,4,1,0,0,1,,3,S,0,S,14,0.797452,0,0,,0
23,53,6,1,0,0,1,,5,S,0,S,13,0.754001,0.026181,0.01974,,0
23,54,8,5,0,0,1,,3,S,0,S,15,0.762693,0.027329,0.020844,,0
23,55,3,5,0,0,1,,2,S,0,S,17,0.020074,0.779627,0.01565,,0
23,56,4,3,0,0,1,,1,S,0,S,19,0.777321,0.027994,0.02176,,0
23,57,9,7,0,0,1,,2,S,0,S,19,0.766287,0.035656,0.027323,,0
23,58,4,7,0,0,1,,3,S,0,S,21,0.031351,0.773518,0.024251,,0
23,59,3,7,0,0,1,,4,S,0,S,16,0.035847,0.759868,0.027239,,0
23,60,2,1,0,0,1,,1,S,0,S,15,0.774262,0.020107,0.015568,,S
23,61,5,4,0,0,1,,1,S,0,S,28,0.765392,0.038659,0.029589,,0
23,62,1,6,0,0,1,,5,S,0,S,15,0.01038,0.782513,0.008122,,0
23,63,8,3,0,0,1,,5,S,0,S,14,0.768235,0.022651,0.017401,,0
23,64,1,4,0,0,1,,3,S,0,S,15,0.023329,0.766796,0.017888,,0
23,65,3,4,0,0,1,,1,S,0,S,17,0.038726,0.757834,0.029348,,0
23,66,7,8,0,0,1,,1,S,0,S,17,0.040555,0.753058,0.03054,,0
23,67,9,1,0,0,1,,8,L,0,S,13,0.779675,0.006802,0.005303,,0
23,68,7,6,0,0,1,,1,S,0,S,18,0.770805,0.025954,0.020005,,0
23,69,7,9,0,0,1,,2,S,0,S,25,0.033989,0.76945,0.026153,,0
23,70,2,7,0,0,1,,5,S,0,S,16,0.009595,0.793282,0.007611,,0
23,71,2,8,0,0,1,,6,S,0,S,14,0,0.802103,0,,0
23,72,4,8,0,0,1,,4,S,0,S,15,0.019978,0.775963,0.015502,,0
24,1,5,6,0,0,1,,1,S,0,S,27,0.037515,0.762272,0.028597,,0
24,2,7,4,0,0,1,,3,S,0,S,14,0.775306,0.014326,0.011107,,0
24,3,3,7,0,0,1,,4,S,0,S,16,0.009343,0.794172,0.00742,,0
24,4,2,7,0,0,1,,5,S,0,S,14,0.00232,0.793738,0.001841,,0
24,5,8,7,0,0,1,,1,S,0,S,16,0.761064,0.034554,0.026297,,0
24,6,7,9,0,0,1,,2,S,0,S,18,0.009644,0.793439,0.007652,,0
24,7,4,3,0,0,1,,1,S,0,S,20,0.794786,0.008012,0.006368,,0
24,8,1,7,0,0,1,,6,S,0,S,13,0.0068,0.778837,0.005296,,0
24,9,8,2,0,0,1,,6,S,0,S,13,0.775066,0.008404,0.006514,,0
24,10,4,7,0,0,1,,3,S,0,S,15,0.023398,0.768352,0.017978,,0
24,11,3,5,0,0,1,,2,S,0,S,19,0.043061,0.757503,0.032619,,0
24,12,9,1,0,0,1,,8,L,0,S,13,0.78274,0.006335,0.004959,,0
24,13,7,8,0,0,1,,1,S,0,S,20,0.045109,0.750763,0.033866,,0
24,14,5,9,0,0,1,,4,S,0,S,15,0.01296,0.780671,0.010117,,0
24,15,3,6,0,0,1,,3,S,0,S,18,0.014366,0.78936,0.01134,,0
24,16,1,4,0,0,1,,3,S,0,S,16,0.003079,0.79681,0.002454,,0
24,17,7,5,0,0,1,,2,S,0,S,16,0.782429,0.015832,0.012388,,0
24,18,8,1,0,0,1,,7,L,0,S,12,0.753427,0.01998,0.015053,,0
24,19,7,1,0,0,1,,6,S,0,S,13,0.779156,0.006018,0.004689,,0
24,20,1,5,0,0,1,,4,S,0,S,14,0.006906,0.784376,0.005417,,0
24,21,4,2,0,0,1,,2,S,0,S,18,0.770527,0.024283,0.01871,,0
24,22,7,2,0,0,1,,5,S,0,S,14,0.789812,0.000653,0.000516,,0
24,23,3,1,0,0,1,,2,S,0,S,15,0.785614,0.011635,0.00914,,0
24,24,1,8,0,0,1,,7,L,0,S,13,0,0.803014,0,,0
24,25,4,1,0,0,1,,3,S,0,S,16,0.796637,0.00252,0.002007,,0
24,26,6,8,0,0,1,,2,S,0,S,16,0.0231,0.774779,0.017898,,0
24,27,3,9,0,0,1,,6,S,0,S,14,0.008713,0.784505,0.006836,,0
24,28,6,9,0,0,1,,3,S,0,S,15,0.021148,0.774069,0.01637,,0
24,29,6,5,0,0,1,,1,S,0,S,19,0.758458,0.042937,0.032566,,0
24,30,8,4,0,0,1,,4,S,0,S,13,0.764402,0.018905,0.014451,,0
24,31,6,3,0,0,1,,3,S,0,S,15,0.767148,0.025295,0.019405,,0
24,32,8,6,0,0,1,,2,S,0,S,15,0.773135,0.019684,0.015218,,0
24,33,6,2,0,0,1,,4,S,0,S,15,0.787865,0.008306,0.006544,,0
24,34,3,4,0,0,0,,1,S,0,S,18,0.783401,0.020679,0.0162,,0
24,35,4,9,0,0,1,,5,S,0,S,14,0,0.795312,0,,0
24,36,9,6,0,0,1,,3,S,0,S,17,0.781518,0.020355,0.015907,,0
24,37,6,7,0,0,1,,1,S,0,S,19,0.021273,0.786358,0.016728,,0
24,38,1,2,0,0,1,,1,S,0,S,17,0.004252,0.794218,0.003377,,S
24,39,1,3,0,0,1,,2,S,0,S,16,0.012938,0.781808,0.010115,,0
24,40,8,9,0,0,1,,1,S,0,S,26,0.036914,0.76666,0.0283,,L
24,41,1,9,0,0,1,,8,L,0,S,12,0.010675,0.763348,0.008148,,0
24,42,2,8,0,0,1,,6,S,0,S,13,0.01158,0.772833,0.008949,,0
24,43,2,6,0,0,1,,4,S,0,S,15,0,0.798847,0,,0
24,44,9,7,0,0,1,,2,S,0,S,20,0.763224,0.041588,0.031741,,0
24,45,9,4,0,0,1,,5,S,0,S,14,0.778299,0.015304,0.011911,,0
24,46,2,4,0,0,1,,2,S,0,S,18,0.037182,0.76144,0.028312,,0
24,47,1,6,0,0,1,,5,S,0,S,14,0,0.797298,0,,0
24,48,6,4,0,0,1,,2,S,0,S,15,0.762993,0.0304,0.023195,,0
24,49,5,3,0,0,1,,2,S,0,S,16,0.791918,0.005675,0.004494,,0
24,50,2,9,0,0,1,,7,L,0,S,13,0,0.792481,0,,0
24,51,4,8,0,0,1,,4,S,0,S,14,0.017903,0.768007,0.01375,,0
24,52,2,3,0,0,1,,1,S,0,S,19,0.024323,0.776647,0.01889,,0
24,53,5,4,0,0,1,,1,S,0,S,16,0.787261,0.011216,0.00883,,0
24,54,7,3,0,0,1,,4,S,0,S,14,0.7767,0.01151,0.00894,,0
24,55,8,5,0,0,1,,3,S,0,S,14,0.7518,0.034132,0.02566,,0
24,56,2,5,0,0,1,,3,S,0,S,15,0.017563,0.778303,0.013669,,0
24,57,4,5,0,0,1,,1,S,0,S,18,0.015277,0.786399,0.012014,,0
24,58,8,3,0,0,1,,5,S,0,S,13,0.764979,0.016802,0.012853,,0
24,59,9,3,0,0,1,,6,S,0,S,14,0.779931,0.0123,0.009593,,0
24,60,9,2,0,0,1,,7,L,0,S,14,0.793368,0.001116,0.000885,,0
24,61,3,2,0,0,1,,1,S,0,S,17,0.791302,0.00986,0.007802,,0
24,62,5,8,0,0,1,,3,S,0,S,16,0.011467,0.785571,0.009008,,0
24,63,9,8,0,0,0,,1,S,0,S,20,0.01225,0.796944,0.009763,,L
24,64,9,5,0,0,1,,4,S,0,S,16,0.782892,0.019045,0.01491,,0
24,65,3,8,0,0,1,,5,S,0,S,14,0.032214,0.753397,0.02427,,0
24,66,6,1,0,0,1,,5,S,0,S,14,0.794303,0.001702,0.001352,,0
24,67,2,1,0,0,1,,1,S,0,S,19,0.781106,0.022189,0.017332,,S
24,68,4,6,0,0,1,,2,S,0,S,17,0.010778,0.787546,0.008489,,0
24,69,5,1,0,0,1,,4,S,0,S,14,0.777789,0.011554,0.008987,,0
24,70,7,6,0,0,1,,1,S,0,S,17,0.783022,0.01547,0.012113,,0
24,71,5,7,0,0,1,,2,S,0,S,18,0.027567,0.772626,0.021299,,0
24,72,5,2,0,0,1,,3,S,0,S,15,0.765812,0.022318,0.017091,,0
25,1,2,6,0,0,1,,4,S,0,S,15,0.014224,0.781625,0.011118,,0
25,2,5,4,0,0,1,,1,S,0,S,22,0.790668,0.015677,0.012395,,0
25,3,6,5,0,0,0,,1,S,0,S,26,0.018171,0.793116,0.014412,,0
25,4,3,4,0,0,1,,1,S,0,S,19,0.032074,0.771535,0.024746,,0
25,5,8,2,0,0,1,,6,S,0,S,14,0.793098,0.003811,0.003023,,0
25,6,6,9,0,0,1,,3,S,0,S,16,0.025205,0.768807,0.019378,,0
25,7,5,1,0,0,1,,4,S,0,S,15,0.783326,0.009638,0.00755,,0
25,8,7,1,0,0,1,,6,S,0,S,14,0.800126,0,0,,0
25,9,5,7,0,0,1,,2,S,0,S,16,0.036977,0.755772,0.027946,,0
25,10,1,2,0,0,1,,1,S,0,S,27,0.022373,0.785769,0.01758,,S
25,11,4,7,0,0,1,,3,S,0,S,15,0.018063,0.776719,0.01403,,0
25,12,1,6,0,0,1,,5,S,0,S,14,0.008553,0.784018,0.006706,,0
25,13,7,5,0,0,1,,2,S,0,S,17,0.793111,0.01099,0.008716,,0
25,14,9,3,0,0,1,,6,S,0,S,14,0.75962,0.027325,0.020756,,0
25,15,7,9,0,0,1,,2,S,0,S,23,0.031853,0.768349,0.024474,,0
25,16,3,5,0,0,1,,2,S,0,S,17,0.046311,0.751944,0.034824,,0
25,17,2,5,0,0,1,,3,S,0,S,18,0.01089,0.796943,0.008679,,0
25,18,3,9,0,0,1,,6,S,0,S,15,0.007235,0.790184,0.005717,,0
25,19,8,9,0,0,1,,1,S,0,S,38,0.029136,0.777979,0.022667,,L
25,20,6,1,0,0,1,,5,S,0,S,15,0.783942,0.01047,0.008208,,0
25,21,5,9,0,0,1,,4,S,0,S,16,0.030312,0.760447,0.02305,,0
25,22,4,9,0,0,1,,5,S,0,S,15,0.014499,0.777659,0.011275,,0
25,23,4,6,0,0,1,,2,S,0,S,15,0.020792,0.771636,0.016044,,0
25,24,7,3,0,0,1,,4,S,0,S,15,0.772264,0.020895,0.016137,,0
25,25,9,6,0,0,1,,3,S,0,S,20,0.793623,0.012612,0.010009,,0
25,26,1,9,0,0,1,,8,L,0,S,14,0.004599,0.78719,0.00362,,0
25,27,1,7,0,0,1,,6,S,0,S,14,0.006608,0.78801,0.005207,,0
25,28,8,5,0,0,1,,3,S,0,S,16,0.776374,0.025434,0.019746,,0
25,29,4,5,0,0,1,,1,S,0,S,18,0.026528,0.775707,0.020578,,0
25,30,3,6,0,0,1,,3,S,0,S,15,0.013201,0.784589,0.010357,,0
25,31,6,7,0,0,1,,1,S,0,S,16,0.031604,0.764453,0.02416,,0
25,32,7,6,0,0,0,,1,S,0,S,27,0.046674,0.753172,0.035154,,0
25,33,5,6,0,0,1,,1,S,0,S,17,0.004962,0.797618,0.003958,,0
25,34,1,3,0,0,1,,2,S,0,S,17,0.040312,0.755661,0.030462,,0
25,35,6,4,0,0,1,,2,S,0,S,22,0.771809,0.032346,0.024965,,0
