ANN,trial,N1,N2,P1,P2,Succ.,,Ndist,Ndist,Pdist,Pdist,rt,a1,a2,x_acc,,Size
1,1,9,3,0,0,1,,6,S,0,S,14,0.765456,0.010523,0.008055,,0
1,2,5,1,0,0,1,,4,S,0,S,14,0.766241,0.010857,0.008319,,0
1,3,8,9,0,0,1,,1,S,0,S,24,0.003576,0.790849,0.002828,,L
1,4,9,4,0,0,1,,5,S,0,S,14,0.752188,0.023339,0.017555,,0
1,5,9,1,0,0,1,,8,L,0,S,13,0.794997,0,0,,0
1,6,8,6,0,0,0,,2,S,0,S,17,0,0.789982,0,,0
1,7,7,1,0,0,1,,6,S,0,S,14,0.768946,0.008062,0.006199,,0
1,8,1,8,0,0,1,,7,L,0,S,14,0,0.798602,0,,0
1,9,3,7,0,0,1,,4,S,0,S,15,0.006697,0.774348,0.005186,,0
1,10,8,2,0,0,1,,6,S,0,S,15,0.789663,0,0,,0
1,11,4,6,0,0,1,,2,S,0,S,14,0.008001,0.767809,0.006143,,0
1,12,4,8,0,0,1,,4,S,0,S,14,0.016158,0.755861,0.012213,,0
1,13,1,2,0,0,1,,1,S,0,S,25,0.010973,0.785925,0.008624,,S
1,14,7,3,0,0,1,,4,S,0,S,18,0.775858,0.01155,0.008961,,0
1,15,3,4,0,0,1,,1,S,0,S,16,0.027434,0.754936,0.020711,,0
1,16,5,9,0,0,1,,4,S,0,S,18,0.028013,0.757217,0.021212,,0
1,17,3,8,0,0,1,,5,S,0,S,14,0,0.791765,0,,0
1,18,9,2,0,0,1,,7,L,0,S,13,0.762402,0.009962,0.007595,,0
1,19,6,1,0,0,1,,5,S,0,S,15,0.798676,0,0,,0
1,20,7,5,0,0,1,,2,S,0,S,19,0.757846,0.027109,0.020544,,0
1,21,2,4,0,0,1,,2,S,0,S,21,0.006619,0.789601,0.005226,,0
1,22,3,5,0,0,1,,2,S,0,S,17,0,0.788853,0,,0
1,23,5,2,0,0,1,,3,S,0,S,15,0.750634,0.027855,0.020909,,0
1,24,6,2,0,0,1,,4,S,0,S,16,0.771505,0.014057,0.010845,,0
1,25,6,3,0,0,1,,3,S,0,S,20,0.78008,0.010657,0.008313,,0
1,26,1,5,0,0,1,,4,S,0,S,16,0.022699,0.758338,0.017214,,0
1,27,1,3,0,0,1,,2,S,0,S,17,0.015682,0.769912,0.012073,,0
1,28,8,4,0,0,1,,4,S,0,S,17,0.760633,0.024513,0.018645,,0
1,29,3,9,0,0,1,,6,S,0,S,15,0,0.796255,0,,0
1,30,7,4,0,0,1,,3,S,0,S,19,0.753805,0.033336,0.025129,,0
1,31,4,5,0,0,1,,1,S,0,S,19,0.025862,0.758131,0.019607,,0
1,32,5,3,0,0,1,,2,S,0,S,18,0.762813,0.022752,0.017356,,0
1,33,5,6,0,0,1,,1,S,0,S,15,0.024344,0.753609,0.018346,,0
1,34,8,1,0,0,1,,7,L,0,S,14,0.791165,0,0,,0
1,35,5,8,0,0,1,,3,S,0,S,16,0.002134,0.78413,0.001674,,0
1,36,6,5,0,0,1,,1,S,0,S,23,0.770162,0.020193,0.015552,,0
1,37,6,7,0,0,1,,1,S,0,S,19,0,0.793942,0,,0
1,38,2,5,0,0,1,,3,S,0,S,21,0.030308,0.756408,0.022925,,0
1,39,1,7,0,0,1,,6,S,0,S,15,0,0.784624,0,,0
1,40,9,7,0,0,1,,2,S,0,S,16,0.781865,0.004159,0.003252,,0
1,41,4,3,0,0,0,,1,S,0,S,22,0.007609,0.783373,0.005961,,0
1,42,9,6,0,0,1,,3,S,0,S,23,0.791379,0.004634,0.003667,,0
1,43,4,2,0,0,1,,2,S,0,S,18,0.750464,0.03312,0.024855,,0
1,44,2,3,0,0,1,,1,S,0,S,32,0.02441,0.766117,0.018701,,0
1,45,8,7,0,0,1,,1,S,0,S,24,0.781858,0.010087,0.007887,,0
1,46,7,6,0,0,0,,1,S,0,S,16,0,0.793048,0,,0
1,47,2,8,0,0,1,,6,S,0,S,15,0,0.792928,0,,0
1,48,1,9,0,0,1,,8,L,0,S,14,0.018878,0.755588,0.014264,,0
1,49,4,1,0,0,1,,3,S,0,S,16,0.789072,0,0,,0
1,50,9,8,0,0,1,,1,S,0,S,21,0.791751,0.002282,0.001807,,L
1,51,2,7,0,0,1,,5,S,0,S,17,0.005307,0.782385,0.004152,,0
1,52,2,9,0,0,1,,7,L,0,S,16,0.011753,0.772521,0.009079,,0
1,53,2,1,0,0,1,,1,S,0,S,15,0.766011,0.014413,0.011041,,S
1,54,5,7,0,0,1,,2,S,0,S,20,0.027594,0.759505,0.020957,,0
1,55,6,4,0,0,1,,2,S,0,S,24,0.781684,0.01425,0.011139,,0
1,56,3,1,0,0,1,,2,S,0,S,17,0.763683,0.021037,0.016066,,0
1,57,7,9,0,0,1,,2,S,0,S,19,0.008538,0.782082,0.006678,,0
1,58,3,2,0,0,1,,1,S,0,S,30,0.75232,0.037837,0.028466,,0
1,59,2,6,0,0,1,,4,S,0,S,14,0.018297,0.75603,0.013833,,0
1,60,7,2,0,0,1,,5,S,0,S,15,0.755725,0.023122,0.017474,,0
1,61,8,3,0,0,1,,5,S,0,S,17,0.796305,0,0,,0
1,62,1,4,0,0,1,,3,S,0,S,16,0.015525,0.77096,0.01197,,0
1,63,6,9,0,0,1,,3,S,0,S,17,0.023358,0.760555,0.017765,,0
1,64,9,5,0,0,1,,4,S,0,S,15,0.798759,0,0,,0
1,65,4,7,0,0,1,,3,S,0,S,16,0.017855,0.762149,0.013608,,0
1,66,3,6,0,0,1,,3,S,0,S,14,0,0.801348,0,,0
1,67,7,8,0,0,1,,1,S,0,S,16,0.009077,0.77435,0.007029,,0
1,68,6,8,0,0,1,,2,S,0,S,15,0.018484,0.759319,0.014035,,0
1,69,4,9,0,0,1,,5,S,0,S,16,0,0.793284,0,,0
1,70,8,5,0,0,1,,3,S,0,S,17,0.759523,0.022515,0.0171,,0
1,71,5,4,0,0,1,,1,S,0,S,20,0.775605,0.017662,0.013699,,0
1,72,1,6,0,0,1,,5,S,0,S,13,0.013655,0.756232,0.010326,,0
2,1,6,9,0,0,1,,3,S,0,S,14,0.014766,0.758564,0.011201,,0
2,2,8,5,0,0,1,,3,S,0,S,16,0.750799,0.02849,0.02139,,0
2,3,9,8,0,0,1,,1,S,0,S,25,0.756688,0.03182,0.024078,,L
2,4,1,5,0,0,1,,4,S,0,S,15,0.018438,0.757107,0.01396,,0
2,5,7,4,0,0,1,,3,S,0,S,20,0.777606,0.01243,0.009666,,0
2,6,2,7,0,0,1,,5,S,0,S,14,0.013212,0.759668,0.010037,,0
2,7,8,7,0,0,1,,1,S,0,S,20,0.76854,0.018717,0.014384,,0
2,8,6,3,0,0,1,,3,S,0,S,16,0.794213,0,0,,0
2,9,5,9,0,0,1,,4,S,0,S,14,0.00353,0.77181,0.002724,,0
2,10,8,9,0,0,1,,1,S,0,S,16,0.007329,0.777002,0.005695,,L
2,11,2,3,0,0,1,,1,S,0,S,21,0.033369,0.752055,0.025096,,0
2,12,9,5,0,0,1,,4,S,0,S,17,0.753667,0.027324,0.020593,,0
2,13,1,7,0,0,1,,6,S,0,S,14,0.012164,0.758719,0.009229,,0
2,14,6,8,0,0,1,,2,S,0,S,18,0.029261,0.755236,0.022099,,0
2,15,7,8,0,0,1,,1,S,0,S,19,0.022632,0.763517,0.01728,,0
2,16,9,7,0,0,1,,2,S,0,S,24,0.759247,0.026747,0.020308,,0
2,17,9,1,0,0,1,,8,L,0,S,14,0.787654,0,0,,0
2,18,7,9,0,0,1,,2,S,0,S,15,0,0.797184,0,,0
2,19,6,4,0,0,1,,2,S,0,S,21,0.771877,0.018993,0.01466,,0
2,20,2,9,0,0,1,,7,L,0,S,13,0,0.79143,0,,0
2,21,5,4,0,0,1,,1,S,0,S,30,0.775299,0.01673,0.01297,,0
2,22,4,6,0,0,1,,2,S,0,S,19,0.032707,0.751942,0.024594,,0
2,23,7,1,0,0,1,,6,S,0,S,14,0.751501,0.020583,0.015468,,0
2,24,4,3,0,0,1,,1,S,0,S,17,0.786397,0.000996,0.000783,,0
2,25,1,2,0,0,1,,1,S,0,S,17,0.018097,0.764952,0.013843,,S
2,26,8,4,0,0,1,,4,S,0,S,16,0.769763,0.014704,0.011319,,0
2,27,4,7,0,0,1,,3,S,0,S,17,0.006388,0.778174,0.004971,,0
2,28,7,6,0,0,1,,1,S,0,S,24,0.77803,0.013846,0.010772,,0
2,29,6,5,0,0,1,,1,S,0,S,23,0.766654,0.022844,0.017513,,0
2,30,3,6,0,0,1,,3,S,0,S,21,0.013097,0.779544,0.01021,,0
2,31,5,7,0,0,1,,2,S,0,S,18,0,0.789686,0,,0
2,32,2,6,0,0,1,,4,S,0,S,15,0.008859,0.773158,0.006849,,0
2,33,7,2,0,0,1,,5,S,0,S,17,0.782839,0.00453,0.003546,,0
2,34,1,4,0,0,1,,3,S,0,S,16,0,0.79628,0,,0
2,35,9,6,0,0,1,,3,S,0,S,18,0.77388,0.014063,0.010883,,0
2,36,2,8,0,0,1,,6,S,0,S,14,0.00947,0.767443,0.007267,,0
2,37,8,2,0,0,1,,6,S,0,S,15,0.781733,0.002347,0.001835,,0
2,38,6,7,0,0,1,,1,S,0,S,19,0.005728,0.782971,0.004485,,0
2,39,7,5,0,0,1,,2,S,0,S,21,0.761557,0.024731,0.018834,,0
2,40,2,4,0,0,1,,2,S,0,S,16,0,0.796105,0,,0
2,41,3,4,0,0,1,,1,S,0,S,31,0.011128,0.784271,0.008727,,0
2,42,9,2,0,0,1,,7,L,0,S,15,0.755988,0.021427,0.016199,,0
2,43,3,2,0,0,1,,1,S,0,S,18,0.754539,0.030096,0.022708,,0
2,44,1,8,0,0,1,,7,L,0,S,14,0.008417,0.766534,0.006452,,0
2,45,6,2,0,0,1,,4,S,0,S,17,0.767316,0.018052,0.013852,,0
2,46,7,3,0,0,1,,4,S,0,S,15,0.754743,0.020442,0.015429,,0
2,47,4,9,0,0,1,,5,S,0,S,14,0,0.78413,0,,0
2,48,2,5,0,0,1,,3,S,0,S,15,0.02039,0.757014,0.015435,,0
2,49,3,9,0,0,1,,6,S,0,S,14,0.000693,0.77718,0.000538,,0
2,50,4,5,0,0,1,,1,S,0,S,21,0.014454,0.77526,0.011205,,0
2,51,2,1,0,0,1,,1,S,0,S,21,0.779611,0.012859,0.010025,,S
2,52,8,1,0,0,1,,7,L,0,S,13,0.751384,0.017255,0.012965,,0
2,53,4,2,0,0,1,,2,S,0,S,19,0.751988,0.032489,0.024432,,0
2,54,4,1,0,0,1,,3,S,0,S,15,0.757331,0.02045,0.015488,,0
2,55,5,2,0,0,1,,3,S,0,S,18,0.759362,0.02473,0.018779,,0
2,56,1,9,0,0,1,,8,L,0,S,13,0,0.789802,0,,0
2,57,5,8,0,0,1,,3,S,0,S,17,0.024084,0.758141,0.018259,,0
2,58,9,4,0,0,1,,5,S,0,S,17,0.777607,0.009538,0.007417,,0
2,59,3,5,0,0,1,,2,S,0,S,23,0.034835,0.752077,0.026199,,0
2,60,3,8,0,0,1,,5,S,0,S,17,0.016877,0.769148,0.012981,,0
2,61,1,3,0,0,1,,2,S,0,S,21,0.014047,0.773526,0.010866,,0
2,62,6,1,0,0,1,,5,S,0,S,15,0.795481,0,0,,0
2,63,4,8,0,0,1,,4,S,0,S,17,0,0.790646,0,,0
2,64,9,3,0,0,1,,6,S,0,S,14,0.751619,0.019777,0.014865,,0
2,65,5,1,0,0,1,,4,S,0,S,15,0.773132,0.00754,0.005829,,0
2,66,8,3,0,0,1,,5,S,0,S,14,0.771119,0.005766,0.004446,,0
2,67,8,6,0,0,1,,2,S,0,S,17,0.779524,0.009081,0.007079,,0
2,68,3,7,0,0,1,,4,S,0,S,17,0.025257,0.755316,0.019077,,0
2,69,1,6,0,0,1,,5,S,0,S,15,0.007202,0.772931,0.005566,,0
2,70,5,3,0,0,1,,2,S,0,S,16,0.763365,0.016503,0.012597,,0
2,71,3,1,0,0,1,,2,S,0,S,15,0.773356,0.008735,0.006756,,0
2,72,5,6,0,0,1,,1,S,0,S,21,0.033869,0.751649,0.025458,,0
3,1,9,5,0,0,1,,4,S,0,S,16,0.774635,0.00795,0.006158,,0
3,2,6,4,0,0,1,,2,S,0,S,17,0.792491,0,0,,0
3,3,9,4,0,0,1,,5,S,0,S,16,0.784794,0,0,,0
3,4,5,7,0,0,1,,2,S,0,S,19,0.005153,0.783688,0.004038,,0
3,5,4,3,0,0,1,,1,S,0,S,22,0.765211,0.025264,0.019333,,0
3,6,1,4,0,0,1,,3,S,0,S,17,0.016298,0.766936,0.0125,,0
3,7,9,1,0,0,1,,8,L,0,S,14,0.765008,0.006547,0.005009,,0
3,8,3,7,0,0,1,,4,S,0,S,16,0.001684,0.781545,0.001316,,0
3,9,4,2,0,0,1,,2,S,0,S,19,0.776224,0.013562,0.010527,,0
3,10,4,9,0,0,1,,5,S,0,S,17,0.005791,0.784364,0.004542,,0
3,11,2,1,0,0,1,,1,S,0,S,18,0.758438,0.021495,0.016303,,S
3,12,7,4,0,0,1,,3,S,0,S,17,0.774946,0.008885,0.006886,,0
3,13,8,6,0,0,1,,2,S,0,S,22,0.777683,0.010567,0.008218,,0
3,14,8,9,0,0,1,,1,S,0,S,24,0.006368,0.787882,0.005017,,L
3,15,7,5,0,0,1,,2,S,0,S,17,0.759873,0.020763,0.015777,,0
3,16,1,7,0,0,1,,6,S,0,S,15,0,0.785254,0,,0
3,17,6,2,0,0,1,,4,S,0,S,16,0.791211,0,0,,0
3,18,1,8,0,0,1,,7,L,0,S,14,0,0.79157,0,,0
3,19,2,8,0,0,1,,6,S,0,S,14,0.013624,0.760409,0.01036,,0
3,20,8,5,0,0,1,,3,S,0,S,17,0.758761,0.023369,0.017732,,0
3,21,3,6,0,0,1,,3,S,0,S,17,0.003944,0.780563,0.003079,,0
3,22,6,8,0,0,1,,2,S,0,S,17,0.029164,0.752419,0.021943,,0
3,23,7,9,0,0,1,,2,S,0,S,25,0.01517,0.774948,0.011756,,0
3,24,5,1,0,0,1,,4,S,0,S,15,0.750608,0.022639,0.016993,,0
3,25,3,9,0,0,1,,6,S,0,S,16,0,0.787834,0,,0
3,26,9,8,0,0,0,,1,S,0,S,19,0.025552,0.759491,0.019406,,L
3,27,2,4,0,0,1,,2,S,0,S,20,0.016381,0.771339,0.012635,,0
3,28,6,1,0,0,1,,5,S,0,S,15,0.793862,0,0,,0
3,29,8,4,0,0,1,,4,S,0,S,17,0.774388,0.011027,0.008539,,0
3,30,7,6,0,0,1,,1,S,0,S,22,0.791553,0,0,,0
3,31,1,3,0,0,1,,2,S,0,S,17,0.026921,0.753571,0.020287,,0
3,32,6,3,0,0,1,,3,S,0,S,16,0.756368,0.023182,0.017534,,0
3,33,9,7,0,0,1,,2,S,0,S,21,0.782685,0.005675,0.004442,,0
3,34,5,9,0,0,1,,4,S,0,S,19,0.002055,0.790995,0.001626,,0
3,35,3,4,0,0,1,,1,S,0,S,21,0.003313,0.789337,0.002615,,0
3,36,5,8,0,0,1,,3,S,0,S,16,0.001421,0.785854,0.001117,,0
3,37,2,3,0,0,1,,1,S,0,S,21,0.008886,0.781587,0.006945,,0
3,38,5,6,0,0,1,,1,S,0,S,22,0.031584,0.752467,0.023766,,0
3,39,6,5,0,0,1,,1,S,0,S,17,0.77906,0.007292,0.005681,,0
3,40,2,9,0,0,1,,7,L,0,S,16,0,0.792851,0,,0
3,41,4,7,0,0,1,,3,S,0,S,17,0.008419,0.777715,0.006548,,0
3,42,3,8,0,0,1,,5,S,0,S,14,0.016526,0.757491,0.012518,,0
3,43,9,3,0,0,1,,6,S,0,S,16,0.792957,0,0,,0
3,44,4,6,0,0,1,,2,S,0,S,19,0,0.794633,0,,0
3,45,8,3,0,0,1,,5,S,0,S,17,0.786429,0.001559,0.001226,,0
3,46,3,5,0,0,1,,2,S,0,S,20,0.007141,0.783808,0.005597,,0
3,47,1,6,0,0,1,,5,S,0,S,15,0.01998,0.753153,0.015048,,0
3,48,3,1,0,0,1,,2,S,0,S,18,0.775194,0.009005,0.006981,,0
3,49,2,7,0,0,1,,5,S,0,S,16,0,0.786567,0,,0
3,50,9,6,0,0,1,,3,S,0,S,18,0.763495,0.017937,0.013695,,0
3,51,5,3,0,0,1,,2,S,0,S,18,0.752727,0.030643,0.023066,,0
3,52,1,2,0,0,1,,1,S,0,S,19,0.015894,0.770038,0.012239,,S
3,53,7,3,0,0,1,,4,S,0,S,17,0.786614,0,0,,0
3,54,7,8,0,0,1,,1,S,0,S,17,0.018904,0.763274,0.014429,,0
3,55,5,4,0,0,1,,1,S,0,S,19,0.777064,0.012378,0.009619,,0
3,56,4,1,0,0,1,,3,S,0,S,16,0.757016,0.021535,0.016302,,0
3,57,2,5,0,0,1,,3,S,0,S,19,0.025125,0.759261,0.019077,,0
3,58,8,1,0,0,1,,7,L,0,S,15,0.785149,0,0,,0
3,59,4,5,0,0,0,,1,S,0,S,30,0.78669,0.009116,0.007172,,0
3,60,2,6,0,0,1,,4,S,0,S,17,0,0.787833,0,,0
3,61,7,1,0,0,1,,6,S,0,S,15,0.78369,0,0,,0
3,62,4,8,0,0,1,,4,S,0,S,15,0.005154,0.77897,0.004015,,0
3,63,8,7,0,0,0,,1,S,0,S,24,0.007906,0.78235,0.006185,,0
3,64,5,2,0,0,1,,3,S,0,S,17,0.769217,0.015244,0.011726,,0
3,65,8,2,0,0,1,,6,S,0,S,16,0.778272,0.005316,0.004137,,0
3,66,3,2,0,0,1,,1,S,0,S,26,0.792653,0.001323,0.001048,,0
3,67,6,7,0,0,1,,1,S,0,S,32,0.027997,0.758225,0.021228,,0
3,68,9,2,0,0,1,,7,L,0,S,15,0.772485,0.006375,0.004925,,0
3,69,6,9,0,0,1,,3,S,0,S,34,0.031389,0.757858,0.023788,,0
3,70,7,2,0,0,1,,5,S,0,S,16,0.777663,0.004158,0.003234,,0
3,71,1,9,0,0,1,,8,L,0,S,15,0,0.791028,0,,0
3,72,1,5,0,0,1,,4,S,0,S,17,0.00479,0.78147,0.003743,,0
4,1,9,8,0,0,1,,1,S,0,S,26,0.77831,0.012523,0.009747,,L
4,2,4,5,0,0,1,,1,S,0,S,27,0.003242,0.791276,0.002565,,0
4,3,4,2,0,0,1,,2,S,0,S,23,0.759198,0.02981,0.022632,,0
4,4,8,4,0,0,1,,4,S,0,S,17,0.76676,0.016969,0.013011,,0
4,5,1,4,0,0,1,,3,S,0,S,15,0,0.792153,0,,0
4,6,5,2,0,0,1,,3,S,0,S,22,0.778613,0.014697,0.011443,,0
4,7,4,9,0,0,1,,5,S,0,S,16,0,0.788497,0,,0
4,8,8,6,0,0,1,,2,S,0,S,18,0.769792,0.018983,0.014613,,0
4,9,6,3,0,0,1,,3,S,0,S,20,0.7506,0.036628,0.027493,,0
4,10,5,6,0,0,1,,1,S,0,S,23,0.002159,0.794294,0.001715,,0
4,11,5,8,0,0,1,,3,S,0,S,17,0,0.790465,0,,0
4,12,1,6,0,0,1,,5,S,0,S,14,0.009465,0.766566,0.007256,,0
4,13,5,3,0,0,1,,2,S,0,S,22,0.754386,0.03518,0.026539,,0
4,14,8,2,0,0,1,,6,S,0,S,17,0.793784,0,0,,0
4,15,8,1,0,0,1,,7,L,0,S,14,0.769263,0.009479,0.007292,,0
4,16,1,7,0,0,1,,6,S,0,S,14,0,0.786831,0,,0
4,17,9,6,0,0,1,,3,S,0,S,17,0.769198,0.014682,0.011293,,0
4,18,7,4,0,0,1,,3,S,0,S,16,0.774837,0.006679,0.005175,,0
4,19,5,1,0,0,1,,4,S,0,S,15,0.752759,0.025514,0.019206,,0
4,20,2,7,0,0,1,,5,S,0,S,17,0.010536,0.774954,0.008165,,0
4,21,3,8,0,0,1,,5,S,0,S,16,0.01986,0.761661,0.015126,,0
4,22,7,2,0,0,1,,5,S,0,S,16,0.795162,0,0,,0
4,23,6,7,0,0,1,,1,S,0,S,20,0.00212,0.790741,0.001676,,0
4,24,3,5,0,0,1,,2,S,0,S,24,0.001861,0.792684,0.001475,,0
4,25,8,3,0,0,1,,5,S,0,S,17,0.791164,0.001352,0.00107,,0
4,26,9,1,0,0,1,,8,L,0,S,14,0.779884,0,0,,0
4,27,8,5,0,0,1,,3,S,0,S,17,0.758085,0.025529,0.019353,,0
4,28,2,8,0,0,1,,6,S,0,S,16,0,0.789549,0,,0
4,29,5,4,0,0,1,,1,S,0,S,25,0.765158,0.023185,0.01774,,0
4,30,1,3,0,0,1,,2,S,0,S,15,0,0.794667,0,,0
4,31,9,3,0,0,1,,6,S,0,S,16,0.77325,0.01046,0.008088,,0
4,32,3,7,0,0,1,,4,S,0,S,18,0.011198,0.776478,0.008695,,0
4,33,9,2,0,0,1,,7,L,0,S,16,0.774951,0.008254,0.006396,,0
4,34,3,2,0,0,1,,1,S,0,S,26,0.768181,0.023452,0.018015,,0
4,35,6,9,0,0,1,,3,S,0,S,16,0.014815,0.767086,0.011364,,0
4,36,9,7,0,0,1,,2,S,0,S,19,0.775276,0.011407,0.008843,,0
4,37,2,1,0,0,1,,1,S,0,S,16,0.752593,0.027626,0.020791,,S
4,38,3,4,0,0,1,,1,S,0,S,27,0.005683,0.786236,0.004468,,0
4,39,4,6,0,0,1,,2,S,0,S,21,0.034187,0.752364,0.025721,,0
4,40,2,3,0,0,1,,1,S,0,S,22,0.008164,0.786576,0.006421,,0
4,41,1,9,0,0,1,,8,L,0,S,13,0,0.772631,0,,0
4,42,4,3,0,0,1,,1,S,0,S,24,0.764141,0.027122,0.020725,,0
4,43,2,6,0,0,1,,4,S,0,S,19,0.000969,0.791643,0.000767,,0
4,44,2,5,0,0,1,,3,S,0,S,20,0.015339,0.773424,0.011864,,0
4,45,7,6,0,0,1,,1,S,0,S,17,0.796425,0,0,,0
4,46,7,3,0,0,1,,4,S,0,S,16,0.793895,0,0,,0
4,47,5,7,0,0,1,,2,S,0,S,19,0.003201,0.788721,0.002524,,0
4,48,6,8,0,0,1,,2,S,0,S,17,0.016909,0.768565,0.012996,,0
4,49,2,4,0,0,1,,2,S,0,S,21,0.011188,0.777141,0.008695,,0
4,50,7,9,0,0,1,,2,S,0,S,24,0.032142,0.753532,0.02422,,0
4,51,1,8,0,0,1,,7,L,0,S,13,0.00947,0.759736,0.007195,,0
4,52,3,1,0,0,1,,2,S,0,S,16,0.784304,0.002971,0.00233,,0
4,53,6,1,0,0,1,,5,S,0,S,15,0.765229,0.015517,0.011874,,0
4,54,1,2,0,0,1,,1,S,0,S,15,0,0.790062,0,,S
4,55,6,5,0,0,1,,1,S,0,S,23,0.761686,0.027042,0.020598,,0
4,56,7,8,0,0,0,,1,S,0,S,22,0.787073,0.005797,0.004563,,0
4,57,3,6,0,0,1,,3,S,0,S,20,0.03487,0.750876,0.026183,,0
4,58,4,7,0,0,1,,3,S,0,S,18,0.025732,0.757946,0.019503,,0
4,59,6,2,0,0,1,,4,S,0,S,20,0.763774,0.025135,0.019198,,0
4,60,6,4,0,0,1,,2,S,0,S,22,0.775256,0.013919,0.010791,,0
4,61,1,5,0,0,1,,4,S,0,S,14,0.019823,0.751817,0.014904,,0
4,62,5,9,0,0,1,,4,S,0,S,16,0.002222,0.783434,0.00174,,0
4,63,8,7,0,0,1,,1,S,0,S,21,0.763378,0.025804,0.019698,,0
4,64,3,9,0,0,1,,6,S,0,S,16,0,0.796772,0,,0
4,65,2,9,0,0,1,,7,L,0,S,15,0.008426,0.77092,0.006495,,0
4,66,7,1,0,0,1,,6,S,0,S,14,0.791144,0,0,,0
4,67,7,5,0,0,1,,2,S,0,S,16,0.770413,0.011781,0.009076,,0
4,68,4,8,0,0,1,,4,S,0,S,16,0.028357,0.750584,0.021284,,0
4,69,9,5,0,0,1,,4,S,0,S,17,0.793351,0,0,,0
4,70,4,1,0,0,1,,3,S,0,S,16,0.792188,0,0,,0
4,71,8,9,0,0,1,,1,S,0,S,19,0.004557,0.787173,0.003587,,L
4,72,9,4,0,0,1,,5,S,0,S,16,0.752202,0.023173,0.017431,,0
5,1,5,4,0,0,1,,1,S,0,S,26,0.767978,0.019631,0.015076,,0
5,2,4,7,0,0,1,,3,S,0,S,17,0.006724,0.777973,0.005231,,0
5,3,5,2,0,0,1,,3,S,0,S,18,0.763869,0.020365,0.015556,,0
5,4,5,9,0,0,1,,4,S,0,S,16,0.019454,0.758801,0.014762,,0
5,5,4,1,0,0,1,,3,S,0,S,16,0.786703,0,0,,0
5,6,8,1,0,0,1,,7,L,0,S,14,0.775184,0.000356,0.000276,,0
5,7,7,2,0,0,1,,5,S,0,S,15,0.783414,0,0,,0
5,8,1,5,0,0,1,,4,S,0,S,15,0.007681,0.774831,0.005951,,0
5,9,8,5,0,0,1,,3,S,0,S,19,0.778375,0.008624,0.006713,,0
5,10,7,8,0,0,1,,1,S,0,S,25,0.020236,0.770395,0.015589,,0
5,11,8,4,0,0,1,,4,S,0,S,19,0.767778,0.014922,0.011457,,0
5,12,2,8,0,0,1,,6,S,0,S,13,0.005897,0.765968,0.004517,,0
5,13,9,3,0,0,1,,6,S,0,S,16,0.793536,0,0,,0
5,14,7,3,0,0,1,,4,S,0,S,14,0.757845,0.015546,0.011781,,0
5,15,9,1,0,0,1,,8,L,0,S,14,0.781591,0,0,,0
5,16,8,6,0,0,1,,2,S,0,S,17,0.760318,0.020482,0.015573,,0
5,17,9,6,0,0,1,,3,S,0,S,17,0.767757,0.018188,0.013964,,0
5,18,8,2,0,0,1,,6,S,0,S,17,0.793906,0,0,,0
5,19,4,6,0,0,1,,2,S,0,S,21,0.021786,0.76639,0.016696,,0
5,20,3,7,0,0,1,,4,S,0,S,18,0,0.790724,0,,0
5,21,6,8,0,0,1,,2,S,0,S,17,0.027458,0.755688,0.02075,,0
5,22,1,9,0,0,1,,8,L,0,S,13,0.015506,0.751481,0.011652,,0
5,23,5,7,0,0,1,,2,S,0,S,21,0.010775,0.778134,0.008385,,0
5,24,3,4,0,0,1,,1,S,0,S,20,0.010379,0.778846,0.008083,,0
5,25,9,7,0,0,1,,2,S,0,S,23,0.763375,0.025327,0.019334,,0
5,26,1,2,0,0,1,,1,S,0,S,16,0.020489,0.761401,0.015601,,S
5,27,1,4,0,0,1,,3,S,0,S,15,0.008695,0.771114,0.006705,,0
5,28,2,1,0,0,1,,1,S,0,S,22,0.750828,0.035969,0.027006,,S
5,29,7,1,0,0,1,,6,S,0,S,13,0.766572,0.003903,0.002992,,0
5,30,6,7,0,0,0,,1,S,0,S,22,0.778467,0.012346,0.009611,,0
5,31,6,9,0,0,1,,3,S,0,S,18,0.016903,0.768272,0.012986,,0
5,32,2,3,0,0,1,,1,S,0,S,17,0.008571,0.779322,0.006679,,0
5,33,3,8,0,0,1,,5,S,0,S,15,0.002848,0.780864,0.002224,,0
5,34,1,8,0,0,1,,7,L,0,S,13,0.009325,0.762019,0.007105,,0
5,35,4,9,0,0,1,,5,S,0,S,15,0.000821,0.779155,0.00064,,0
5,36,2,4,0,0,1,,2,S,0,S,15,0.002284,0.778737,0.001778,,0
5,37,9,8,0,0,0,,1,S,0,S,17,0.016534,0.770036,0.012732,,L
5,38,3,6,0,0,1,,3,S,0,S,27,0.009066,0.786185,0.007127,,0
5,39,8,9,0,0,1,,1,S,0,S,18,0.012057,0.770326,0.009288,,L
5,40,7,5,0,0,1,,2,S,0,S,16,0.779121,0.005293,0.004124,,0
5,41,6,5,0,0,1,,1,S,0,S,18,0.757732,0.02713,0.020557,,0
5,42,2,9,0,0,1,,7,L,0,S,13,0.011895,0.755686,0.008989,,0
5,43,3,9,0,0,1,,6,S,0,S,15,0.013773,0.764306,0.010527,,0
5,44,8,3,0,0,1,,5,S,0,S,16,0.786276,0,0,,0
5,45,5,6,0,0,0,,1,S,0,S,20,0.788303,0.003633,0.002864,,0
5,46,5,8,0,0,1,,3,S,0,S,16,0.004548,0.780456,0.00355,,0
5,47,3,1,0,0,1,,2,S,0,S,15,0.763979,0.015556,0.011884,,0
5,48,4,8,0,0,1,,4,S,0,S,15,0,0.794199,0,,0
5,49,6,1,0,0,1,,5,S,0,S,14,0.78484,0,0,,0
5,50,9,2,0,0,1,,7,L,0,S,16,0.754606,0.025629,0.019339,,0
5,51,5,1,0,0,1,,4,S,0,S,15,0.798395,0,0,,0
5,52,6,3,0,0,1,,3,S,0,S,15,0.751529,0.025339,0.019043,,0
5,53,2,6,0,0,1,,4,S,0,S,15,0.024751,0.752565,0.018627,,0
5,54,5,3,0,0,1,,2,S,0,S,17,0.778786,0.007633,0.005945,,0
5,55,3,2,0,0,1,,1,S,0,S,22,0.756051,0.031406,0.023744,,0
5,56,7,6,0,0,1,,1,S,0,S,15,0.765242,0.013618,0.010421,,0
5,57,9,4,0,0,1,,5,S,0,S,19,0.775153,0.012774,0.009902,,0
5,58,4,2,0,0,0,,2,S,0,S,29,0.003199,0.790457,0.002529,,0
5,59,8,7,0,0,1,,1,S,0,S,23,0.764104,0.020814,0.015904,,0
5,60,7,9,0,0,0,,2,S,0,S,28,0.792145,0.000549,0.000435,,0
5,61,6,2,0,0,1,,4,S,0,S,16,0.763147,0.018508,0.014124,,0
5,62,4,5,0,0,1,,1,S,0,S,18,0.029233,0.753265,0.02202,,0
5,63,2,5,0,0,1,,3,S,0,S,15,0.001235,0.782466,0.000967,,0
5,64,2,7,0,0,1,,5,S,0,S,14,0.015331,0.757994,0.011621,,0
5,65,7,4,0,0,1,,3,S,0,S,16,0.772325,0.008671,0.006697,,0
5,66,9,5,0,0,1,,4,S,0,S,19,0.785553,0.006547,0.005143,,0
5,67,1,7,0,0,1,,6,S,0,S,14,0.020618,0.751712,0.015498,,0
5,68,1,3,0,0,1,,2,S,0,S,17,0.022122,0.76289,0.016876,,0
5,69,1,6,0,0,1,,5,S,0,S,16,0,0.791335,0,,0
5,70,3,5,0,0,1,,2,S,0,S,20,0.010474,0.781403,0.008185,,0
5,71,6,4,0,0,1,,2,S,0,S,19,0.793226,0,0,,0
5,72,4,3,0,0,1,,1,S,0,S,21,0.770904,0.018037,0.013905,,0
6,1,9,7,0,0,0,,2,S,0,S,18,0.0298,0.756253,0.022537,,0
6,2,3,6,0,0,1,,3,S,0,S,21,0.007595,0.782613,0.005944,,0
6,3,2,9,0,0,1,,7,L,0,S,15,0.010763,0.772181,0.008311,,0
6,4,6,4,0,0,1,,2,S,0,S,16,0.762044,0.020789,0.015842,,0
6,5,6,1,0,0,1,,5,S,0,S,14,0.752869,0.021131,0.015909,,0
6,6,5,8,0,0,1,,3,S,0,S,15,0.018342,0.760306,0.013946,,0
6,7,5,1,0,0,1,,4,S,0,S,17,0.778827,0.008938,0.006961,,0
6,8,1,2,0,0,1,,1,S,0,S,22,0.009651,0.78334,0.00756,,S
6,9,7,8,0,0,1,,1,S,0,S,21,0.019446,0.768532,0.014945,,0
6,10,5,9,0,0,1,,4,S,0,S,16,0,0.791309,0,,0
6,11,7,1,0,0,1,,6,S,0,S,14,0.759692,0.013828,0.010505,,0
6,12,7,5,0,0,1,,2,S,0,S,20,0.760836,0.022755,0.017313,,0
6,13,2,3,0,0,1,,1,S,0,S,22,0.015821,0.775623,0.012271,,0
6,14,3,8,0,0,1,,5,S,0,S,17,0.002508,0.785424,0.00197,,0
6,15,2,6,0,0,1,,4,S,0,S,16,0.019812,0.761378,0.015085,,0
6,16,8,9,0,0,1,,1,S,0,S,35,0.017653,0.774838,0.013678,,L
6,17,9,1,0,0,1,,8,L,0,S,14,0.762646,0.013554,0.010337,,0
6,18,7,9,0,0,1,,2,S,0,S,25,0.032138,0.755992,0.024296,,0
6,19,9,8,0,0,0,,1,S,0,S,21,0.003416,0.791375,0.002704,,L
6,20,7,3,0,0,1,,4,S,0,S,16,0.781327,0.002252,0.00176,,0
6,21,8,2,0,0,1,,6,S,0,S,14,0.768715,0.007299,0.005611,,0
6,22,8,7,0,0,0,,1,S,0,S,19,0.020739,0.766388,0.015894,,0
6,23,8,5,0,0,1,,3,S,0,S,20,0.788592,0.000668,0.000527,,0
6,24,7,6,0,0,1,,1,S,0,S,20,0.782635,0.006201,0.004853,,0
6,25,4,1,0,0,1,,3,S,0,S,15,0.764467,0.014217,0.010868,,0
6,26,1,8,0,0,1,,7,L,0,S,14,0,0.793411,0,,0
6,27,1,6,0,0,1,,5,S,0,S,15,0,0.797585,0,,0
6,28,4,8,0,0,1,,4,S,0,S,17,0.019897,0.76314,0.015185,,0
6,29,3,2,0,0,1,,1,S,0,S,15,0.758089,0.019755,0.014976,,0
6,30,4,2,0,0,1,,2,S,0,S,15,0.769834,0.010362,0.007977,,0
6,31,8,6,0,0,1,,2,S,0,S,19,0.762878,0.021252,0.016212,,0
6,32,1,4,0,0,1,,3,S,0,S,16,0.015259,0.767381,0.011709,,0
6,33,5,6,0,0,1,,1,S,0,S,17,0.018493,0.764911,0.014146,,0
6,34,4,3,0,0,1,,1,S,0,S,18,0.789547,0,0,,0
6,35,7,2,0,0,1,,5,S,0,S,14,0.763787,0.010993,0.008396,,0
6,36,8,3,0,0,1,,5,S,0,S,16,0.789311,0,0,,0
6,37,6,7,0,0,1,,1,S,0,S,18,0.003585,0.789121,0.002829,,0
6,38,8,1,0,0,1,,7,L,0,S,14,0.76475,0.01004,0.007678,,0
6,39,9,5,0,0,1,,4,S,0,S,20,0.757401,0.027902,0.021133,,0
6,40,1,7,0,0,1,,6,S,0,S,13,0.01212,0.757392,0.009179,,0
6,41,4,9,0,0,1,,5,S,0,S,18,0.014336,0.773622,0.01109,,0
6,42,2,5,0,0,1,,3,S,0,S,16,0.015847,0.765417,0.01213,,0
6,43,8,4,0,0,1,,4,S,0,S,16,0.785244,0.000413,0.000324,,0
6,44,4,6,0,0,1,,2,S,0,S,23,0.008242,0.782451,0.006449,,0
6,45,3,5,0,0,1,,2,S,0,S,20,0.026218,0.757451,0.019859,,0
6,46,6,2,0,0,1,,4,S,0,S,14,0.757236,0.018079,0.01369,,0
6,47,5,3,0,0,1,,2,S,0,S,26,0.785525,0.008064,0.006335,,0
6,48,4,5,0,0,1,,1,S,0,S,22,0.014795,0.772787,0.011434,,0
6,49,3,9,0,0,1,,6,S,0,S,17,0.027499,0.75533,0.020771,,0
6,50,2,8,0,0,1,,6,S,0,S,15,0,0.786294,0,,0
6,51,1,3,0,0,1,,2,S,0,S,16,0.023555,0.755297,0.017791,,0
6,52,7,4,0,0,1,,3,S,0,S,16,0.776844,0.006928,0.005382,,0
6,53,1,5,0,0,1,,4,S,0,S,15,0,0.799082,0,,0
6,54,9,2,0,0,1,,7,L,0,S,14,0.766739,0.010703,0.008206,,0
6,55,3,7,0,0,1,,4,S,0,S,16,0.007716,0.777446,0.005999,,0
6,56,6,8,0,0,1,,2,S,0,S,19,0.027796,0.759156,0.021101,,0
6,57,4,7,0,0,1,,3,S,0,S,16,0.021097,0.760111,0.016036,,0
6,58,5,7,0,0,1,,2,S,0,S,15,0,0.786531,0,,0
6,59,9,4,0,0,1,,5,S,0,S,16,0.77946,0.007011,0.005465,,0
6,60,6,3,0,0,1,,3,S,0,S,16,0.767689,0.015178,0.011652,,0
6,61,5,4,0,0,1,,1,S,0,S,36,0.782433,0.012325,0.009643,,0
6,62,5,2,0,0,1,,3,S,0,S,17,0.787566,0.002321,0.001828,,0
6,63,2,7,0,0,1,,5,S,0,S,14,0.017159,0.758863,0.013022,,0
6,64,1,9,0,0,1,,8,L,0,S,14,0,0.78493,0,,0
6,65,9,6,0,0,1,,3,S,0,S,20,0.780573,0.010222,0.007979,,0
6,66,6,9,0,0,1,,3,S,0,S,21,0.026937,0.763819,0.020575,,0
6,67,2,4,0,0,1,,2,S,0,S,21,0.014055,0.778791,0.010946,,0
6,68,6,5,0,0,1,,1,S,0,S,22,0.766042,0.022214,0.017017,,0
6,69,3,4,0,0,0,,1,S,0,S,19,0.794149,0,0,,0
6,70,3,1,0,0,1,,2,S,0,S,15,0.75225,0.023961,0.018025,,0
6,71,9,3,0,0,1,,6,S,0,S,16,0.784104,0.002196,0.001722,,0
6,72,2,1,0,0,1,,1,S,0,S,18,0.773668,0.015298,0.011836,,S
7,1,3,5,0,0,1,,2,S,0,S,18,0.015511,0.776251,0.012041,,0
7,2,9,1,0,0,1,,8,L,0,S,15,0.760958,0.018301,0.013926,,0
7,3,5,3,0,0,1,,2,S,0,S,20,0.755458,0.028286,0.021369,,0
7,4,4,6,0,0,1,,2,S,0,S,22,0.004477,0.787829,0.003527,,0
7,5,4,3,0,0,1,,1,S,0,S,19,0.760808,0.025325,0.019267,,0
7,6,1,7,0,0,1,,6,S,0,S,15,0,0.785523,0,,0
7,7,1,6,0,0,1,,5,S,0,S,16,0,0.795805,0,,0
7,8,4,8,0,0,1,,4,S,0,S,18,0.018397,0.765921,0.014091,,0
7,9,3,7,0,0,1,,4,S,0,S,16,0.013296,0.772862,0.010276,,0
7,10,5,7,0,0,1,,2,S,0,S,18,0.010625,0.776787,0.008253,,0
7,11,5,4,0,0,1,,1,S,0,S,23,0.760213,0.028352,0.021554,,0
7,12,3,8,0,0,1,,5,S,0,S,16,0.009151,0.77457,0.007088,,0
7,13,1,2,0,0,1,,1,S,0,S,25,0.034629,0.751998,0.026041,,S
7,14,3,4,0,0,1,,1,S,0,S,20,0.016358,0.777508,0.012718,,0
7,15,1,8,0,0,1,,7,L,0,S,15,0,0.784824,0,,0
7,16,2,9,0,0,1,,7,L,0,S,15,0.02137,0.755207,0.016139,,0
7,17,9,2,0,0,1,,7,L,0,S,15,0.782183,0.000124,9.7E-05,,0
7,18,6,1,0,0,1,,5,S,0,S,17,0.790853,0.000587,0.000464,,0
7,19,2,7,0,0,1,,5,S,0,S,16,0.019874,0.764352,0.015191,,0
7,20,4,9,0,0,1,,5,S,0,S,17,0.003955,0.782219,0.003094,,0
7,21,2,8,0,0,1,,6,S,0,S,16,0.015335,0.766527,0.011754,,0
7,22,2,3,0,0,1,,1,S,0,S,25,0.019144,0.773646,0.014811,,0
7,23,8,2,0,0,1,,6,S,0,S,15,0.768808,0.012006,0.00923,,0
7,24,1,9,0,0,1,,8,L,0,S,14,0.013423,0.759492,0.010195,,0
7,25,1,3,0,0,1,,2,S,0,S,17,0.030419,0.750797,0.022839,,0
7,26,6,9,0,0,1,,3,S,0,S,17,0.016591,0.767447,0.012733,,0
7,27,6,8,0,0,1,,2,S,0,S,19,0.003788,0.786876,0.00298,,0
7,28,8,7,0,0,0,,1,S,0,S,24,0.024506,0.769084,0.018847,,0
7,29,2,1,0,0,1,,1,S,0,S,20,0.766989,0.023541,0.018056,,S
7,30,6,2,0,0,1,,4,S,0,S,16,0.777425,0.007502,0.005832,,0
7,31,8,6,0,0,1,,2,S,0,S,21,0.759292,0.028554,0.021681,,0
7,32,3,9,0,0,1,,6,S,0,S,15,0.016519,0.761628,0.012581,,0
7,33,9,7,0,0,1,,2,S,0,S,24,0.751549,0.036884,0.02772,,0
7,34,5,6,0,0,1,,1,S,0,S,20,0.030415,0.751277,0.02285,,0
7,35,9,6,0,0,1,,3,S,0,S,19,0.75352,0.029862,0.022502,,0
7,36,9,8,0,0,1,,1,S,0,S,30,0.764363,0.024036,0.018372,,L
7,37,7,5,0,0,1,,2,S,0,S,18,0.771903,0.01851,0.014288,,0
7,38,5,9,0,0,1,,4,S,0,S,17,0,0.79225,0,,0
7,39,8,3,0,0,1,,5,S,0,S,17,0.782147,0.007045,0.005511,,0
7,40,8,5,0,0,1,,3,S,0,S,19,0.77172,0.020683,0.015962,,0
7,41,3,1,0,0,1,,2,S,0,S,21,0.781356,0.012808,0.010008,,0
7,42,4,1,0,0,1,,3,S,0,S,17,0.770766,0.015656,0.012067,,0
7,43,5,8,0,0,1,,3,S,0,S,18,0.002587,0.783172,0.002026,,0
7,44,3,2,0,0,1,,1,S,0,S,19,0.793462,0,0,,0
7,45,6,4,0,0,1,,2,S,0,S,20,0.781452,0.012892,0.010074,,0
7,46,4,5,0,0,1,,1,S,0,S,28,0.030691,0.761673,0.023376,,0
7,47,8,1,0,0,1,,7,L,0,S,16,0.79275,0,0,,0
7,48,2,6,0,0,1,,4,S,0,S,18,0,0.794691,0,,0
7,49,1,4,0,0,1,,3,S,0,S,17,8.2E-05,0.791681,6.5E-05,,0
7,50,6,7,0,0,1,,1,S,0,S,19,0.01679,0.774427,0.013002,,0
7,51,6,5,0,0,1,,1,S,0,S,25,0.773769,0.021562,0.016684,,0
7,52,8,4,0,0,1,,4,S,0,S,17,0.751082,0.033831,0.02541,,0
7,53,2,4,0,0,1,,2,S,0,S,21,0.004962,0.792229,0.003931,,0
7,54,7,2,0,0,1,,5,S,0,S,15,0.781862,0.001121,0.000877,,0
7,55,5,1,0,0,1,,4,S,0,S,18,0.79004,0,0,,0
7,56,9,4,0,0,1,,5,S,0,S,17,0.78292,0.006963,0.005451,,0
7,57,7,8,0,0,1,,1,S,0,S,34,0.025844,0.763387,0.019729,,0
7,58,5,2,0,0,1,,3,S,0,S,17,0.787252,0,0,,0
7,59,7,3,0,0,1,,4,S,0,S,16,0.758029,0.023249,0.017623,,0
7,60,9,3,0,0,1,,6,S,0,S,16,0.759563,0.021239,0.016133,,0
7,61,4,2,0,0,1,,2,S,0,S,16,0.761439,0.019156,0.014586,,0
7,62,2,5,0,0,1,,3,S,0,S,18,0.028274,0.7601,0.021491,,0
7,63,7,1,0,0,1,,6,S,0,S,15,0.76023,0.01964,0.014931,,0
7,64,8,9,0,0,1,,1,S,0,S,19,0.011274,0.778255,0.008774,,L
7,65,7,9,0,0,1,,2,S,0,S,20,0.027125,0.758543,0.020575,,0
7,66,6,3,0,0,1,,3,S,0,S,18,0.750468,0.033284,0.024979,,0
7,67,7,4,0,0,1,,3,S,0,S,17,0.780761,0.009492,0.007411,,0
7,68,3,6,0,0,1,,3,S,0,S,17,0.022574,0.760846,0.017175,,0
7,69,7,6,0,0,1,,1,S,0,S,20,0.791675,0.001062,0.00084,,0
7,70,1,5,0,0,1,,4,S,0,S,16,0.005224,0.782984,0.004091,,0
7,71,9,5,0,0,1,,4,S,0,S,18,0.775889,0.014485,0.011239,,0
7,72,4,7,0,0,1,,3,S,0,S,18,0.028832,0.756558,0.021813,,0
8,1,9,4,0,0,1,,5,S,0,S,15,0.79413,0,0,,0
8,2,2,6,0,0,1,,4,S,0,S,17,0.025286,0.756639,0.019132,,0
8,3,9,6,0,0,1,,3,S,0,S,15,0.770893,0.008085,0.006233,,0
8,4,1,5,0,0,1,,4,S,0,S,16,0.021761,0.7614,0.016569,,0
8,5,4,7,0,0,1,,3,S,0,S,20,0.030251,0.757331,0.02291,,0
8,6,5,3,0,0,1,,2,S,0,S,22,0.777376,0.015332,0.011919,,0
8,7,9,5,0,0,1,,4,S,0,S,15,0.789192,0,0,,0
8,8,3,1,0,0,1,,2,S,0,S,17,0.764828,0.019072,0.014587,,0
8,9,4,5,0,0,1,,1,S,0,S,29,0.007,0.789916,0.005529,,0
8,10,2,4,0,0,1,,2,S,0,S,19,0.028267,0.753694,0.021304,,0
8,11,6,4,0,0,1,,2,S,0,S,22,0.753891,0.030255,0.022809,,0
8,12,7,9,0,0,1,,2,S,0,S,24,0.012577,0.7835,0.009854,,0
8,13,2,8,0,0,1,,6,S,0,S,16,0.025696,0.75538,0.01941,,0
8,14,3,9,0,0,1,,6,S,0,S,14,0.00139,0.779886,0.001084,,0
8,15,6,2,0,0,1,,4,S,0,S,17,0.774757,0.012392,0.009601,,0
8,16,5,8,0,0,1,,3,S,0,S,20,0.002452,0.793526,0.001946,,0
8,17,1,2,0,0,1,,1,S,0,S,21,0.025933,0.765337,0.019848,,S
8,18,7,5,0,0,1,,2,S,0,S,15,0.758615,0.019489,0.014785,,0
8,19,2,3,0,0,1,,1,S,0,S,19,0.019362,0.768058,0.014871,,0
8,20,8,1,0,0,1,,7,L,0,S,13,0.764322,0.005009,0.003829,,0
8,21,8,2,0,0,1,,6,S,0,S,14,0.77971,0,0,,0
8,22,6,3,0,0,1,,3,S,0,S,23,0.792585,0.002052,0.001627,,0
8,23,8,6,0,0,1,,2,S,0,S,16,0.791669,0,0,,0
8,24,6,8,0,0,1,,2,S,0,S,19,0.031381,0.754794,0.023686,,0
8,25,6,7,0,0,1,,1,S,0,S,21,0.024417,0.763814,0.01865,,0
8,26,5,7,0,0,1,,2,S,0,S,21,0.036772,0.750015,0.027579,,0
8,27,5,2,0,0,1,,3,S,0,S,17,0.78296,0.007066,0.005533,,0
8,28,8,5,0,0,1,,3,S,0,S,15,0.765374,0.013063,0.009998,,0
8,29,4,2,0,0,1,,2,S,0,S,17,0.767173,0.019656,0.01508,,0
8,30,3,6,0,0,1,,3,S,0,S,17,0.00735,0.779363,0.005729,,0
8,31,8,9,0,0,1,,1,S,0,S,32,0.023539,0.769241,0.018107,,L
8,32,2,5,0,0,1,,3,S,0,S,18,0.02289,0.762774,0.01746,,0
8,33,9,8,0,0,1,,1,S,0,S,15,0.750021,0.025797,0.019348,,L
8,34,4,6,0,0,1,,2,S,0,S,22,0.001206,0.79442,0.000958,,0
8,35,7,1,0,0,1,,6,S,0,S,13,0.761894,0.007874,0.005999,,0
8,36,4,1,0,0,1,,3,S,0,S,15,0.764134,0.015917,0.012163,,0
8,37,6,9,0,0,1,,3,S,0,S,15,0.011471,0.771778,0.008853,,0
8,38,1,8,0,0,1,,7,L,0,S,15,0.015409,0.766749,0.011815,,0
8,39,7,8,0,0,0,,1,S,0,S,16,0.75569,0.025406,0.019199,,0
8,40,3,4,0,0,1,,1,S,0,S,19,0,0.792079,0,,0
8,41,3,2,0,0,1,,1,S,0,S,24,0.775566,0.017191,0.013332,,0
8,42,6,5,0,0,1,,1,S,0,S,28,0.770038,0.021709,0.016717,,0
8,43,2,9,0,0,1,,7,L,0,S,14,0.00783,0.771539,0.006041,,0
8,44,2,7,0,0,1,,5,S,0,S,17,0.01213,0.773675,0.009385,,0
8,45,8,4,0,0,1,,4,S,0,S,15,0.772246,0.005055,0.003903,,0
8,46,8,3,0,0,1,,5,S,0,S,15,0.776371,0.00404,0.003136,,0
8,47,3,5,0,0,1,,2,S,0,S,18,0,0.791905,0,,0
8,48,9,2,0,0,1,,7,L,0,S,14,0.795488,0,0,,0
8,49,5,9,0,0,1,,4,S,0,S,15,0.012515,0.771885,0.00966,,0
8,50,5,4,0,0,1,,1,S,0,S,22,0.780742,0.01005,0.007846,,0
8,51,6,1,0,0,1,,5,S,0,S,15,0.767137,0.012414,0.009523,,0
8,52,1,6,0,0,1,,5,S,0,S,16,0.002883,0.784323,0.002261,,0
8,53,7,6,0,0,1,,1,S,0,S,16,0.783937,0.001634,0.001281,,0
8,54,9,3,0,0,1,,6,S,0,S,15,0.79824,0,0,,0
8,55,4,3,0,0,1,,1,S,0,S,24,0.773021,0.01954,0.015105,,0
8,56,9,1,0,0,1,,8,L,0,S,13,0.776787,0,0,,0
8,57,5,6,0,0,1,,1,S,0,S,23,0.029493,0.759847,0.02241,,0
8,58,2,1,0,0,1,,1,S,0,S,17,0.786141,0.002135,0.001678,,S
8,59,8,7,0,0,1,,1,S,0,S,16,0.782747,0.001678,0.001313,,0
8,60,1,9,0,0,1,,8,L,0,S,13,0.020134,0.750778,0.015116,,0
8,61,1,7,0,0,1,,6,S,0,S,16,0,0.795031,0,,0
8,62,4,8,0,0,1,,4,S,0,S,19,0.012308,0.780257,0.009604,,0
8,63,1,4,0,0,1,,3,S,0,S,17,0.008225,0.777622,0.006396,,0
8,64,9,7,0,0,1,,2,S,0,S,15,0.763403,0.014189,0.010832,,0
8,65,5,1,0,0,1,,4,S,0,S,15,0.772652,0.009242,0.007141,,0
8,66,1,3,0,0,1,,2,S,0,S,17,0.002955,0.787192,0.002326,,0
8,67,7,4,0,0,1,,3,S,0,S,15,0.766393,0.010745,0.008235,,0
8,68,3,7,0,0,1,,4,S,0,S,17,0,0.793863,0,,0
8,69,4,9,0,0,1,,5,S,0,S,15,0.005889,0.780342,0.004596,,0
8,70,7,3,0,0,1,,4,S,0,S,15,0.77044,0.009809,0.007558,,0
8,71,3,8,0,0,1,,5,S,0,S,16,0.011945,0.772902,0.009232,,0
8,72,7,2,0,0,1,,5,S,0,S,14,0.776112,0.00272,0.002111,,0
9,1,9,7,0,0,1,,2,S,0,S,18,0.793268,0,0,,0
9,2,4,9,0,0,1,,5,S,0,S,17,0.001347,0.789384,0.001063,,0
9,3,2,5,0,0,1,,3,S,0,S,18,0.006731,0.781817,0.005263,,0
9,4,2,7,0,0,1,,5,S,0,S,16,0,0.792016,0,,0
9,5,2,3,0,0,1,,1,S,0,S,17,0.010085,0.777223,0.007839,,0
9,6,7,5,0,0,1,,2,S,0,S,16,0.753329,0.024217,0.018243,,0
9,7,1,3,0,0,1,,2,S,0,S,15,0,0.793113,0,,0
9,8,2,4,0,0,1,,2,S,0,S,19,0.017741,0.770453,0.013668,,0
9,9,7,2,0,0,1,,5,S,0,S,14,0.760892,0.011319,0.008612,,0
9,10,3,1,0,0,1,,2,S,0,S,20,0.788059,0.003589,0.002828,,0
9,11,7,3,0,0,1,,4,S,0,S,17,0.77364,0.011563,0.008946,,0
9,12,6,4,0,0,1,,2,S,0,S,18,0.7631,0.022349,0.017055,,0
9,13,3,7,0,0,1,,4,S,0,S,15,0.017105,0.757477,0.012956,,0
9,14,1,9,0,0,1,,8,L,0,S,13,0.014247,0.754155,0.010744,,0
9,15,8,4,0,0,1,,4,S,0,S,17,0.786619,0.00397,0.003123,,0
9,16,6,7,0,0,1,,1,S,0,S,20,0.020575,0.763925,0.015718,,0
9,17,9,1,0,0,1,,8,L,0,S,14,0.798472,0,0,,0
9,18,5,2,0,0,1,,3,S,0,S,15,0.790439,0,0,,0
9,19,6,3,0,0,1,,3,S,0,S,22,0.762114,0.026988,0.020568,,0
9,20,7,9,0,0,1,,2,S,0,S,26,0.006751,0.788099,0.00532,,0
9,21,6,9,0,0,1,,3,S,0,S,17,0.024724,0.760092,0.018792,,0
9,22,7,8,0,0,1,,1,S,0,S,21,0.015124,0.771034,0.011661,,0
9,23,6,2,0,0,1,,4,S,0,S,15,0.755303,0.020479,0.015468,,0
9,24,6,1,0,0,1,,5,S,0,S,15,0.767735,0.011634,0.008932,,0
9,25,8,2,0,0,1,,6,S,0,S,15,0.788808,0,0,,0
9,26,7,1,0,0,1,,6,S,0,S,14,0.769792,0.005262,0.004051,,0
9,27,4,1,0,0,1,,3,S,0,S,15,0.750596,0.024865,0.018663,,0
9,28,3,8,0,0,1,,5,S,0,S,14,0.011378,0.761384,0.008663,,0
9,29,2,6,0,0,1,,4,S,0,S,15,0.009824,0.771342,0.007577,,0
9,30,1,5,0,0,1,,4,S,0,S,15,0.005251,0.77413,0.004065,,0
9,31,5,1,0,0,1,,4,S,0,S,14,0.750717,0.021107,0.015845,,0
9,32,5,7,0,0,0,,2,S,0,S,28,0.762469,0.02404,0.01833,,0
9,33,2,9,0,0,1,,7,L,0,S,15,0,0.793628,0,,0
9,34,8,1,0,0,1,,7,L,0,S,15,0.798969,0,0,,0
9,35,1,6,0,0,1,,5,S,0,S,14,0,0.791349,0,,0
9,36,3,6,0,0,1,,3,S,0,S,15,0.000571,0.782878,0.000447,,0
9,37,9,5,0,0,1,,4,S,0,S,15,0.759635,0.018419,0.013992,,0
9,38,9,3,0,0,1,,6,S,0,S,16,0.790029,0,0,,0
9,39,5,3,0,0,1,,2,S,0,S,18,0.757986,0.026946,0.020425,,0
9,40,7,6,0,0,1,,1,S,0,S,23,0.783847,0.00835,0.006545,,0
9,41,8,9,0,0,1,,1,S,0,S,19,0.014545,0.778933,0.011329,,L
9,42,2,1,0,0,1,,1,S,0,S,19,0.789068,0.00221,0.001744,,S
9,43,9,2,0,0,1,,7,L,0,S,14,0.791031,0,0,,0
9,44,4,5,0,0,0,,1,S,0,S,22,0.778571,0.01231,0.009584,,0
9,45,6,8,0,0,1,,2,S,0,S,17,0.000119,0.786536,9.4E-05,,0
9,46,4,3,0,0,1,,1,S,0,S,32,0.782518,0.011808,0.00924,,0
9,47,3,5,0,0,1,,2,S,0,S,17,0.020345,0.762376,0.015511,,0
9,48,4,8,0,0,1,,4,S,0,S,16,0.016318,0.763326,0.012456,,0
9,49,8,7,0,0,0,,1,S,0,S,28,0.011049,0.781199,0.008632,,0
9,50,3,2,0,0,1,,1,S,0,S,21,0.782309,0.007934,0.006207,,0
9,51,1,4,0,0,1,,3,S,0,S,15,0.020991,0.754749,0.015843,,0
9,52,2,8,0,0,1,,6,S,0,S,14,0.018667,0.752166,0.014041,,0
9,53,9,4,0,0,1,,5,S,0,S,15,0.782105,0.001576,0.001232,,0
9,54,3,4,0,0,1,,1,S,0,S,18,0.022127,0.763103,0.016885,,0
9,55,4,7,0,0,1,,3,S,0,S,19,0.008315,0.778127,0.00647,,0
9,56,5,4,0,0,1,,1,S,0,S,17,0.792963,0,0,,0
9,57,6,5,0,0,1,,1,S,0,S,20,0.780501,0.009731,0.007595,,0
9,58,9,8,0,0,1,,1,S,0,S,23,0.755807,0.030346,0.022936,,L
9,59,4,2,0,0,1,,2,S,0,S,16,0.785224,0,0,,0
9,60,5,9,0,0,1,,4,S,0,S,20,0.004084,0.790567,0.003228,,0
9,61,8,6,0,0,0,,2,S,0,S,21,0.030519,0.759609,0.023182,,0
9,62,1,7,0,0,1,,6,S,0,S,14,0.000525,0.773162,0.000406,,0
9,63,4,6,0,0,1,,2,S,0,S,18,0.000974,0.790341,0.00077,,0
9,64,7,4,0,0,1,,3,S,0,S,16,0.783672,0.001145,0.000897,,0
9,65,5,8,0,0,1,,3,S,0,S,18,0.026202,0.755559,0.019797,,0
9,66,1,8,0,0,1,,7,L,0,S,13,0.008276,0.758005,0.006273,,0
9,67,1,2,0,0,1,,1,S,0,S,18,0.02815,0.752075,0.021171,,S
9,68,5,6,0,0,1,,1,S,0,S,23,0.013211,0.779659,0.0103,,0
9,69,3,9,0,0,1,,6,S,0,S,14,0.020544,0.753727,0.015484,,0
9,70,8,5,0,0,1,,3,S,0,S,18,0.788999,0.002877,0.00227,,0
9,71,8,3,0,0,1,,5,S,0,S,19,0.788697,0.00554,0.004369,,0
9,72,9,6,0,0,1,,3,S,0,S,18,0.761922,0.024447,0.018627,,0
10,1,1,4,0,0,1,,3,S,0,S,16,0.001763,0.784046,0.001382,,0
10,2,2,1,0,0,1,,1,S,0,S,16,0.751439,0.026793,0.020133,,S
10,3,1,6,0,0,1,,5,S,0,S,15,0.010991,0.770361,0.008467,,0
10,4,2,8,0,0,1,,6,S,0,S,15,0.011324,0.771302,0.008734,,0
10,5,6,1,0,0,1,,5,S,0,S,14,0.777151,0.000562,0.000437,,0
10,6,9,3,0,0,1,,6,S,0,S,16,0.787421,0,0,,0
10,7,3,2,0,0,0,,1,S,0,S,21,0.013762,0.780064,0.010736,,0
10,8,6,7,0,0,1,,1,S,0,S,33,0.006453,0.790816,0.005103,,0
10,9,7,6,0,0,1,,1,S,0,S,20,0.769601,0.0203,0.015623,,0
10,10,2,3,0,0,1,,1,S,0,S,22,0.00946,0.782909,0.007406,,0
10,11,3,9,0,0,1,,6,S,0,S,14,0.022149,0.752134,0.016659,,0
10,12,9,4,0,0,1,,5,S,0,S,19,0.758386,0.02601,0.019726,,0
10,13,3,8,0,0,1,,5,S,0,S,15,0,0.793568,0,,0
10,14,6,9,0,0,1,,3,S,0,S,20,0.013342,0.779589,0.010401,,0
10,15,7,8,0,0,0,,1,S,0,S,22,0.775807,0.016581,0.012864,,0
10,16,9,6,0,0,1,,3,S,0,S,23,0.768375,0.021869,0.016803,,0
10,17,4,3,0,0,1,,1,S,0,S,20,0.772473,0.014458,0.011169,,0
10,18,3,6,0,0,1,,3,S,0,S,15,0.003198,0.781514,0.002499,,0
10,19,2,7,0,0,1,,5,S,0,S,16,0,0.795083,0,,0
10,20,4,8,0,0,1,,4,S,0,S,17,0,0.791943,0,,0
10,21,5,1,0,0,1,,4,S,0,S,15,0.750128,0.025022,0.018769,,0
10,22,6,3,0,0,1,,3,S,0,S,16,0.764484,0.017441,0.013333,,0
10,23,5,3,0,0,1,,2,S,0,S,22,0.751144,0.035059,0.026335,,0
10,24,8,3,0,0,1,,5,S,0,S,15,0.751753,0.024877,0.018702,,0
10,25,4,5,0,0,1,,1,S,0,S,24,0.011987,0.776259,0.009305,,0
10,26,7,3,0,0,1,,4,S,0,S,15,0.761791,0.015632,0.011908,,0
10,27,6,8,0,0,1,,2,S,0,S,21,0.026546,0.76436,0.020291,,0
10,28,2,9,0,0,1,,7,L,0,S,15,0.00322,0.781366,0.002516,,0
10,29,8,1,0,0,1,,7,L,0,S,14,0.79493,0,0,,0
10,30,7,4,0,0,1,,3,S,0,S,18,0.771266,0.015525,0.011974,,0
10,31,8,4,0,0,1,,4,S,0,S,19,0.785917,0.00654,0.00514,,0
10,32,3,4,0,0,1,,1,S,0,S,16,0,0.797272,0,,0
10,33,7,9,0,0,0,,2,S,0,S,25,0.767727,0.023719,0.01821,,0
10,34,6,2,0,0,1,,4,S,0,S,16,0.795762,0,0,,0
10,35,4,9,0,0,1,,5,S,0,S,16,0.019885,0.761107,0.015134,,0
10,36,5,7,0,0,1,,2,S,0,S,17,0,0.792668,0,,0
10,37,1,3,0,0,1,,2,S,0,S,20,0.012412,0.776441,0.009637,,0
10,38,2,5,0,0,1,,3,S,0,S,18,0.00438,0.784055,0.003434,,0
10,39,9,7,0,0,1,,2,S,0,S,22,0.792199,0.001722,0.001364,,0
10,40,4,6,0,0,1,,2,S,0,S,17,0.016368,0.768452,0.012578,,0
10,41,8,2,0,0,1,,6,S,0,S,15,0.777935,0.006664,0.005184,,0
10,42,5,6,0,0,1,,1,S,0,S,16,0.023753,0.759127,0.018031,,0
10,43,2,4,0,0,1,,2,S,0,S,16,0.01635,0.766838,0.012538,,0
10,44,5,4,0,0,0,,1,S,0,S,17,0.030404,0.751849,0.022859,,0
10,45,1,5,0,0,1,,4,S,0,S,17,0.016111,0.766001,0.012341,,0
10,46,1,7,0,0,1,,6,S,0,S,15,0.017753,0.761112,0.013512,,0
10,47,6,5,0,0,1,,1,S,0,S,18,0.766818,0.018254,0.013998,,0
10,48,8,6,0,0,1,,2,S,0,S,22,0.7877,0.008497,0.006693,,0
10,49,6,4,0,0,1,,2,S,0,S,22,0.785718,0.008338,0.006551,,0
10,50,2,6,0,0,1,,4,S,0,S,15,0.022561,0.756822,0.017075,,0
10,51,4,2,0,0,1,,2,S,0,S,18,0.75783,0.026556,0.020125,,0
10,52,9,2,0,0,1,,7,L,0,S,15,0.766641,0.01324,0.01015,,0
10,53,8,5,0,0,1,,3,S,0,S,17,0.779887,0.006699,0.005224,,0
10,54,1,2,0,0,1,,1,S,0,S,23,0.002107,0.794146,0.001673,,S
10,55,5,9,0,0,1,,4,S,0,S,16,0,0.791713,0,,0
10,56,3,1,0,0,1,,2,S,0,S,17,0.755768,0.0255,0.019272,,0
10,57,9,1,0,0,1,,8,L,0,S,14,0.786666,0,0,,0
10,58,9,5,0,0,1,,4,S,0,S,17,0.762587,0.017926,0.01367,,0
10,59,5,2,0,0,1,,3,S,0,S,20,0.79182,0.003704,0.002933,,0
10,60,8,7,0,0,1,,1,S,0,S,21,0.793197,0.003021,0.002396,,0
10,61,7,5,0,0,1,,2,S,0,S,17,0.795739,0,0,,0
10,62,4,7,0,0,1,,3,S,0,S,17,0.029534,0.751144,0.022184,,0
10,63,3,7,0,0,1,,4,S,0,S,15,0.009511,0.772888,0.007351,,0
10,64,5,8,0,0,1,,3,S,0,S,16,0.008529,0.778522,0.00664,,0
10,65,3,5,0,0,1,,2,S,0,S,17,0.002161,0.784912,0.001697,,0
10,66,9,8,0,0,0,,1,S,0,S,47,0.034994,0.753578,0.02637,,L
10,67,4,1,0,0,1,,3,S,0,S,15,0.764727,0.011629,0.008893,,0
10,68,1,8,0,0,1,,7,L,0,S,15,0.000948,0.7833,0.000743,,0
10,69,1,9,0,0,1,,8,L,0,S,15,0,0.792311,0,,0
10,70,7,2,0,0,1,,5,S,0,S,15,0.786131,0,0,,0
10,71,7,1,0,0,1,,6,S,0,S,14,0.798964,0,0,,0
10,72,8,9,0,0,1,,1,S,0,S,26,0.022609,0.771395,0.01744,,L
11,1,9,1,0,0,1,,8,L,0,S,12,0.752655,0.006752,0.005082,,0
11,2,8,4,0,0,1,,4,S,0,S,21,0.787187,0.005493,0.004324,,0
11,3,4,8,0,0,1,,4,S,0,S,15,0,0.786905,0,,0
11,4,3,5,0,0,1,,2,S,0,S,17,0.000738,0.786283,0.00058,,0
11,5,7,2,0,0,1,,5,S,0,S,14,0.754791,0.020068,0.015147,,0
11,6,5,4,0,0,1,,1,S,0,S,21,0.772164,0.018524,0.014303,,0
11,7,6,1,0,0,1,,5,S,0,S,14,0.754525,0.017445,0.013163,,0
11,8,5,1,0,0,1,,4,S,0,S,14,0.788707,0,0,,0
11,9,7,1,0,0,1,,6,S,0,S,13,0.77076,0.000353,0.000272,,0
11,10,2,9,0,0,1,,7,L,0,S,14,0,0.797799,0,,0
11,11,4,6,0,0,1,,2,S,0,S,16,0.005157,0.780284,0.004024,,0
11,12,9,2,0,0,1,,7,L,0,S,13,0.759673,0.010242,0.007781,,0
11,13,2,5,0,0,1,,3,S,0,S,15,0.018378,0.758842,0.013946,,0
11,14,6,8,0,0,1,,2,S,0,S,16,0,0.789615,0,,0
11,15,9,4,0,0,1,,5,S,0,S,15,0.792851,0,0,,0
11,16,8,1,0,0,1,,7,L,0,S,14,0.788805,0,0,,0
11,17,8,5,0,0,1,,3,S,0,S,21,0.76622,0.022207,0.017016,,0
11,18,1,2,0,0,1,,1,S,0,S,19,0,0.79292,0,,S
11,19,7,3,0,0,1,,4,S,0,S,14,0.763461,0.011344,0.008661,,0
11,20,1,6,0,0,1,,5,S,0,S,14,0.016683,0.75472,0.012591,,0
11,21,3,1,0,0,1,,2,S,0,S,16,0.788988,0,0,,0
11,22,2,7,0,0,1,,5,S,0,S,16,0,0.797482,0,,0
11,23,1,5,0,0,1,,4,S,0,S,15,0.007976,0.770545,0.006146,,0
11,24,6,4,0,0,0,,2,S,0,S,21,0.001707,0.793596,0.001355,,0
11,25,2,1,0,0,1,,1,S,0,S,17,0.766811,0.014728,0.011293,,S
11,26,8,9,0,0,1,,1,S,0,S,17,0,0.793602,0,,L
11,27,5,8,0,0,1,,3,S,0,S,17,0.027949,0.754058,0.021076,,0
11,28,7,6,0,0,1,,1,S,0,S,19,0.767587,0.021066,0.01617,,0
11,29,4,5,0,0,1,,1,S,0,S,17,0.019031,0.765219,0.014563,,0
11,30,1,8,0,0,1,,7,L,0,S,14,0,0.789531,0,,0
11,31,9,6,0,0,1,,3,S,0,S,15,0.751205,0.024764,0.018603,,0
11,32,3,7,0,0,1,,4,S,0,S,17,0.01133,0.772276,0.00875,,0
11,33,7,8,0,0,1,,1,S,0,S,24,0.006002,0.788975,0.004735,,0
11,34,8,2,0,0,1,,6,S,0,S,16,0.794785,0,0,,0
11,35,9,3,0,0,1,,6,S,0,S,13,0.764487,0.004706,0.003598,,0
11,36,1,7,0,0,1,,6,S,0,S,15,0.014111,0.762025,0.010753,,0
11,37,5,2,0,0,1,,3,S,0,S,16,0.793318,0,0,,0
11,38,5,3,0,0,1,,2,S,0,S,15,0.759139,0.017923,0.013606,,0
11,39,8,3,0,0,1,,5,S,0,S,15,0.760341,0.016184,0.012305,,0
11,40,9,5,0,0,1,,4,S,0,S,15,0.789628,0,0,,0
11,41,2,4,0,0,1,,2,S,0,S,15,0.021121,0.7555,0.015957,,0
11,42,3,2,0,0,1,,1,S,0,S,23,0.75428,0.032221,0.024303,,0
11,43,9,7,0,0,1,,2,S,0,S,15,0.794575,0,0,,0
11,44,2,8,0,0,1,,6,S,0,S,14,0,0.783376,0,,0
11,45,6,7,0,0,1,,1,S,0,S,21,0.021847,0.767779,0.016773,,0
11,46,6,2,0,0,1,,4,S,0,S,17,0.762331,0.023122,0.017627,,0
11,47,7,4,0,0,1,,3,S,0,S,17,0.781831,0.006954,0.005437,,0
11,48,7,9,0,0,1,,2,S,0,S,19,0.03115,0.752879,0.023452,,0
11,49,3,4,0,0,1,,1,S,0,S,17,0.005039,0.781057,0.003936,,0
11,50,2,3,0,0,1,,1,S,0,S,22,0.013324,0.775453,0.010332,,0
11,51,6,5,0,0,0,,1,S,0,S,20,0.022922,0.766264,0.017564,,0
11,52,2,6,0,0,1,,4,S,0,S,15,0,0.795622,0,,0
11,53,4,7,0,0,1,,3,S,0,S,18,0,0.794537,0,,0
11,54,6,9,0,0,1,,3,S,0,S,15,0.010259,0.769591,0.007895,,0
11,55,1,9,0,0,1,,8,L,0,S,13,0.012802,0.751791,0.009624,,0
11,56,4,3,0,0,1,,1,S,0,S,19,0.767983,0.018111,0.013909,,0
11,57,4,9,0,0,1,,5,S,0,S,14,0.014956,0.757671,0.011332,,0
11,58,9,8,0,0,1,,1,S,0,S,17,0.769163,0.015175,0.011672,,L
11,59,3,9,0,0,1,,6,S,0,S,14,0.008085,0.764771,0.006184,,0
11,60,3,8,0,0,1,,5,S,0,S,15,0,0.795168,0,,0
11,61,3,6,0,0,1,,3,S,0,S,16,0,0.793381,0,,0
11,62,1,4,0,0,1,,3,S,0,S,15,0.010418,0.767587,0.007997,,0
11,63,5,9,0,0,1,,4,S,0,S,16,0.024841,0.753905,0.018728,,0
11,64,8,6,0,0,0,,2,S,0,S,23,0.003601,0.790476,0.002847,,0
11,65,5,7,0,0,0,,2,S,0,S,21,0.79236,0.001507,0.001194,,0
11,66,1,3,0,0,1,,2,S,0,S,20,0.017218,0.767333,0.013212,,0
11,67,6,3,0,0,1,,3,S,0,S,17,0.787998,0.000468,0.000369,,0
11,68,8,7,0,0,1,,1,S,0,S,20,0.760757,0.025358,0.019291,,0
11,69,4,1,0,0,1,,3,S,0,S,15,0.760832,0.015361,0.011688,,0
11,70,5,6,0,0,1,,1,S,0,S,22,0.014353,0.777899,0.011165,,0
11,71,7,5,0,0,1,,2,S,0,S,17,0.775216,0.012061,0.00935,,0
11,72,4,2,0,0,1,,2,S,0,S,21,0.78941,0.004816,0.003802,,0
12,1,5,7,0,0,1,,2,S,0,S,18,0.01949,0.766616,0.014941,,0
12,2,2,5,0,0,1,,3,S,0,S,16,0.008641,0.779354,0.006735,,0
12,3,8,1,0,0,1,,7,L,0,S,13,0.760664,0.007862,0.005981,,0
12,4,4,2,0,0,1,,2,S,0,S,18,0.768018,0.018669,0.014338,,0
12,5,2,3,0,0,1,,1,S,0,S,18,0.03142,0.752061,0.02363,,0
12,6,8,9,0,0,0,,1,S,0,S,19,0.790057,0.001466,0.001158,,L
12,7,7,4,0,0,1,,3,S,0,S,15,0.779436,0.001272,0.000991,,0
12,8,3,7,0,0,1,,4,S,0,S,17,0.016887,0.769522,0.012995,,0
12,9,6,7,0,0,0,,1,S,0,S,18,0.778272,0.010716,0.00834,,0
12,10,8,6,0,0,1,,2,S,0,S,20,0.761409,0.023929,0.01822,,0
12,11,5,4,0,0,1,,1,S,0,S,24,0.778497,0.01198,0.009326,,0
12,12,2,8,0,0,1,,6,S,0,S,14,0.01796,0.758599,0.013625,,0
12,13,9,7,0,0,1,,2,S,0,S,18,0.794417,0,0,,0
12,14,3,1,0,0,1,,2,S,0,S,17,0.774226,0.013193,0.010214,,0
12,15,7,6,0,0,1,,1,S,0,S,37,0.763908,0.025978,0.019845,,0
12,16,5,9,0,0,1,,4,S,0,S,15,0.021877,0.756497,0.01655,,0
12,17,3,9,0,0,1,,6,S,0,S,15,0.004474,0.780297,0.003491,,0
12,18,1,9,0,0,1,,8,L,0,S,14,0,0.788121,0,,0
12,19,3,5,0,0,1,,2,S,0,S,17,0.028738,0.756761,0.021748,,0
12,20,4,3,0,0,1,,1,S,0,S,20,0.768104,0.021026,0.01615,,0
12,21,6,1,0,0,1,,5,S,0,S,14,0.777159,0.001676,0.001303,,0
12,22,6,4,0,0,1,,2,S,0,S,16,0.793218,0,0,,0
12,23,1,3,0,0,1,,2,S,0,S,17,0,0.791794,0,,0
12,24,3,4,0,0,1,,1,S,0,S,25,0.002774,0.791824,0.002197,,0
12,25,8,3,0,0,1,,5,S,0,S,14,0.753348,0.017343,0.013065,,0
12,26,4,8,0,0,1,,4,S,0,S,16,0.015497,0.770624,0.011942,,0
12,27,6,5,0,0,1,,1,S,0,S,17,0.756451,0.028184,0.02132,,0
12,28,4,9,0,0,1,,5,S,0,S,16,0.005884,0.782311,0.004603,,0
12,29,9,4,0,0,1,,5,S,0,S,15,0.752119,0.022134,0.016647,,0
12,30,6,9,0,0,1,,3,S,0,S,22,0.027669,0.762651,0.021102,,0
12,31,9,5,0,0,1,,4,S,0,S,17,0.770924,0.015662,0.012074,,0
12,32,8,5,0,0,1,,3,S,0,S,15,0.755861,0.021574,0.016307,,0
12,33,7,1,0,0,1,,6,S,0,S,14,0.79743,0,0,,0
12,34,2,7,0,0,1,,5,S,0,S,16,0.001707,0.786039,0.001342,,0
12,35,1,4,0,0,1,,3,S,0,S,17,0,0.786856,0,,0
12,36,1,5,0,0,1,,4,S,0,S,15,0.00602,0.774071,0.00466,,0
12,37,8,4,0,0,1,,4,S,0,S,14,0.753076,0.016863,0.012699,,0
12,38,2,9,0,0,1,,7,L,0,S,14,0.012689,0.764982,0.009707,,0
12,39,2,4,0,0,1,,2,S,0,S,19,0.001737,0.789761,0.001372,,0
12,40,4,5,0,0,1,,1,S,0,S,20,0.035569,0.753476,0.026801,,0
12,41,1,6,0,0,1,,5,S,0,S,14,0,0.796103,0,,0
12,42,9,2,0,0,1,,7,L,0,S,15,0.777722,0.002698,0.002099,,0
12,43,3,8,0,0,1,,5,S,0,S,15,0.01125,0.772097,0.008686,,0
12,44,6,2,0,0,1,,4,S,0,S,15,0.772156,0.007996,0.006174,,0
12,45,5,3,0,0,1,,2,S,0,S,24,0.754915,0.031787,0.023997,,0
12,46,5,8,0,0,1,,3,S,0,S,16,0,0.795204,0,,0
12,47,9,8,0,0,1,,1,S,0,S,31,0.76851,0.023631,0.01816,,L
12,48,2,6,0,0,1,,4,S,0,S,14,0.003407,0.775537,0.002642,,0
12,49,7,2,0,0,1,,5,S,0,S,14,0.751254,0.019852,0.014914,,0
12,50,8,2,0,0,1,,6,S,0,S,14,0.7717,0.003028,0.002336,,0
12,51,1,7,0,0,1,,6,S,0,S,15,0.001481,0.777875,0.001152,,0
12,52,7,5,0,0,1,,2,S,0,S,16,0.768242,0.015992,0.012286,,0
12,53,6,3,0,0,1,,3,S,0,S,16,0.793068,0,0,,0
12,54,4,6,0,0,1,,2,S,0,S,15,0.024956,0.752838,0.018788,,0
12,55,3,2,0,0,1,,1,S,0,S,23,0.790896,0.003573,0.002826,,0
12,56,1,2,0,0,1,,1,S,0,S,18,0,0.789992,0,,S
12,57,2,1,0,0,1,,1,S,0,S,19,0.757209,0.029606,0.022418,,S
12,58,5,6,0,0,1,,1,S,0,S,15,0.008139,0.772593,0.006288,,0
12,59,9,6,0,0,0,,3,S,0,S,21,0.010713,0.779983,0.008356,,0
12,60,3,6,0,0,1,,3,S,0,S,15,0,0.79374,0,,0
12,61,7,3,0,0,1,,4,S,0,S,15,0.779569,0.001864,0.001453,,0
12,62,7,9,0,0,0,,2,S,0,S,22,0.778273,0.014334,0.011156,,0
12,63,8,7,0,0,1,,1,S,0,S,16,0.790057,0,0,,0
12,64,9,3,0,0,1,,6,S,0,S,15,0.751977,0.022969,0.017272,,0
12,65,6,8,0,0,1,,2,S,0,S,25,0.021282,0.772199,0.016434,,0
12,66,4,7,0,0,1,,3,S,0,S,20,0.005085,0.789119,0.004013,,0
12,67,1,8,0,0,1,,7,L,0,S,14,0,0.783232,0,,0
12,68,5,2,0,0,1,,3,S,0,S,20,0.780103,0.009466,0.007384,,0
12,69,4,1,0,0,1,,3,S,0,S,16,0.790866,0,0,,0
12,70,5,1,0,0,1,,4,S,0,S,16,0.75711,0.023281,0.017626,,0
12,71,7,8,0,0,0,,1,S,0,S,20,0.751356,0.035127,0.026393,,0
12,72,9,1,0,0,1,,8,L,0,S,14,0.780633,0,0,,0
13,1,4,5,0,0,1,,1,S,0,S,18,0.026546,0.756018,0.020069,,0
13,2,1,8,0,0,1,,7,L,0,S,15,0,0.785488,0,,0
13,3,7,2,0,0,1,,5,S,0,S,16,0.796531,0,0,,0
13,4,7,6,0,0,1,,1,S,0,S,23,0.753798,0.03633,0.027385,,0
13,5,3,1,0,0,1,,2,S,0,S,16,0.791376,0,0,,0
13,6,6,4,0,0,0,,2,S,0,S,24,0.028196,0.762371,0.021496,,0
13,7,3,7,0,0,1,,4,S,0,S,18,0.014408,0.773907,0.01115,,0
13,8,7,8,0,0,1,,1,S,0,S,21,0.020007,0.771915,0.015444,,0
13,9,2,9,0,0,1,,7,L,0,S,14,0,0.783542,0,,0
13,10,3,4,0,0,1,,1,S,0,S,25,0.037225,0.750853,0.027951,,0
13,11,5,2,0,0,1,,3,S,0,S,16,0.781161,0.007576,0.005918,,0
13,12,6,3,0,0,1,,3,S,0,S,19,0.767313,0.021891,0.016797,,0
13,13,6,5,0,0,0,,1,S,0,S,26,0.034104,0.753113,0.025684,,0
13,14,9,3,0,0,1,,6,S,0,S,17,0.796299,0,0,,0
13,15,8,6,0,0,1,,2,S,0,S,19,0.752224,0.034945,0.026286,,0
13,16,8,4,0,0,1,,4,S,0,S,18,0.771591,0.016735,0.012913,,0
13,17,4,6,0,0,1,,2,S,0,S,17,0.011635,0.776852,0.009039,,0
13,18,2,3,0,0,1,,1,S,0,S,30,0.010003,0.783397,0.007837,,0
13,19,7,1,0,0,1,,6,S,0,S,15,0.784344,0,0,,0
13,20,9,8,0,0,0,,1,S,0,S,23,0.007249,0.789056,0.00572,,L
13,21,2,4,0,0,1,,2,S,0,S,19,0,0.795021,0,,0
13,22,9,5,0,0,1,,4,S,0,S,19,0.776109,0.012767,0.009909,,0
13,23,2,7,0,0,1,,5,S,0,S,16,0.018413,0.761971,0.01403,,0
13,24,6,7,0,0,1,,1,S,0,S,18,0.008428,0.781891,0.00659,,0
13,25,1,5,0,0,1,,4,S,0,S,16,0.013296,0.763366,0.010149,,0
13,26,4,3,0,0,0,,1,S,0,S,24,0.036438,0.751601,0.027387,,0
13,27,5,3,0,0,1,,2,S,0,S,17,0.7563,0.027881,0.021086,,0
13,28,1,7,0,0,1,,6,S,0,S,15,0,0.780929,0,,0
13,29,2,8,0,0,1,,6,S,0,S,16,0.01409,0.768497,0.010828,,0
13,30,3,5,0,0,1,,2,S,0,S,29,0.022937,0.76679,0.017588,,0
13,31,1,4,0,0,1,,3,S,0,S,16,0.007178,0.773326,0.005551,,0
13,32,5,9,0,0,1,,4,S,0,S,15,0,0.784004,0,,0
13,33,3,2,0,0,1,,1,S,0,S,17,0.78638,0.005032,0.003957,,0
13,34,6,1,0,0,1,,5,S,0,S,16,0.789165,0,0,,0
13,35,8,9,0,0,1,,1,S,0,S,16,0,0.792642,0,,L
13,36,2,1,0,0,1,,1,S,0,S,17,0.765947,0.016127,0.012353,,S
13,37,9,6,0,0,1,,3,S,0,S,21,0.753369,0.035959,0.02709,,0
13,38,1,9,0,0,1,,8,L,0,S,13,0.002983,0.763556,0.002278,,0
13,39,8,1,0,0,1,,7,L,0,S,14,0.755588,0.017636,0.013325,,0
13,40,3,6,0,0,1,,3,S,0,S,20,0.032526,0.756002,0.02459,,0
13,41,4,8,0,0,1,,4,S,0,S,16,0.005558,0.780935,0.004341,,0
13,42,1,3,0,0,1,,2,S,0,S,18,0.00361,0.782726,0.002825,,0
13,43,9,1,0,0,1,,8,L,0,S,15,0.792476,0,0,,0
13,44,8,5,0,0,1,,3,S,0,S,18,0.776531,0.011052,0.008582,,0
13,45,3,9,0,0,1,,6,S,0,S,14,0.017744,0.755147,0.013399,,0
13,46,8,7,0,0,1,,1,S,0,S,26,0.757225,0.032526,0.024629,,0
13,47,5,1,0,0,1,,4,S,0,S,15,0.773021,0.007985,0.006172,,0
13,48,4,1,0,0,1,,3,S,0,S,17,0.756613,0.024817,0.018777,,0
13,49,8,3,0,0,1,,5,S,0,S,16,0.773281,0.012106,0.009362,,0
13,50,7,9,0,0,1,,2,S,0,S,15,0.008922,0.771698,0.006885,,0
13,51,2,6,0,0,1,,4,S,0,S,17,0.023762,0.759889,0.018056,,0
13,52,1,2,0,0,1,,1,S,0,S,21,0.005848,0.785157,0.004592,,S
13,53,7,4,0,0,1,,3,S,0,S,20,0.775819,0.015444,0.011982,,0
13,54,4,7,0,0,1,,3,S,0,S,16,0.00961,0.774806,0.007446,,0
13,55,7,3,0,0,1,,4,S,0,S,17,0.780744,0.008291,0.006473,,0
13,56,5,8,0,0,1,,3,S,0,S,20,0.002353,0.793178,0.001866,,0
13,57,9,4,0,0,1,,5,S,0,S,19,0.767686,0.02129,0.016344,,0
13,58,6,9,0,0,1,,3,S,0,S,14,0.015794,0.758146,0.011974,,0
13,59,9,7,0,0,0,,2,S,0,S,24,0.003191,0.793287,0.002531,,0
13,60,5,6,0,0,1,,1,S,0,S,31,0.006406,0.792285,0.005075,,0
13,61,6,2,0,0,1,,4,S,0,S,17,0.782578,0.008458,0.006619,,0
13,62,5,4,0,0,1,,1,S,0,S,22,0.791355,0.004237,0.003353,,0
13,63,6,8,0,0,1,,2,S,0,S,18,0.001554,0.791486,0.00123,,0
13,64,2,5,0,0,1,,3,S,0,S,19,0.00947,0.777235,0.00736,,0
13,65,8,2,0,0,1,,6,S,0,S,15,0.775784,0.008809,0.006834,,0
13,66,9,2,0,0,1,,7,L,0,S,15,0.758814,0.022308,0.016927,,0
13,67,3,8,0,0,1,,5,S,0,S,18,0.007211,0.783946,0.005653,,0
13,68,5,7,0,0,1,,2,S,0,S,20,0.014539,0.777032,0.011297,,0
13,69,7,5,0,0,1,,2,S,0,S,20,0.787341,0.004369,0.00344,,0
13,70,4,9,0,0,1,,5,S,0,S,14,0,0.790339,0,,0
13,71,1,6,0,0,1,,5,S,0,S,15,0.020868,0.754057,0.015735,,0
13,72,4,2,0,0,1,,2,S,0,S,20,0.775713,0.016892,0.013103,,0
14,1,5,9,0,0,1,,4,S,0,S,15,0.013429,0.767078,0.010301,,0
14,2,6,1,0,0,1,,5,S,0,S,13,0.762088,0.007683,0.005855,,0
14,3,5,4,0,0,1,,1,S,0,S,19,0.752289,0.031558,0.023741,,0
14,4,3,5,0,0,1,,2,S,0,S,15,0.0224,0.753271,0.016873,,0
14,5,6,4,0,0,1,,2,S,0,S,15,0.767649,0.010946,0.008403,,0
14,6,9,3,0,0,1,,6,S,0,S,17,0.789214,0,0,,0
14,7,5,7,0,0,1,,2,S,0,S,21,0.018155,0.772372,0.014022,,0
14,8,7,1,0,0,1,,6,S,0,S,13,0.770519,0.000816,0.000629,,0
14,9,4,3,0,0,1,,1,S,0,S,23,0.783484,0.009428,0.007387,,0
14,10,2,7,0,0,1,,5,S,0,S,16,0,0.792632,0,,0
14,11,8,4,0,0,1,,4,S,0,S,18,0.782239,0.006606,0.005168,,0
14,12,7,5,0,0,1,,2,S,0,S,16,0.787109,0,0,,0
14,13,6,9,0,0,1,,3,S,0,S,20,0.014504,0.775492,0.011247,,0
14,14,9,5,0,0,1,,4,S,0,S,18,0.76888,0.017203,0.013227,,0
14,15,9,7,0,0,1,,2,S,0,S,19,0.755552,0.030166,0.022792,,0
14,16,1,7,0,0,1,,6,S,0,S,14,0.004116,0.771331,0.003175,,0
14,17,4,7,0,0,1,,3,S,0,S,19,0.031685,0.754535,0.023907,,0
14,18,7,6,0,0,1,,1,S,0,S,16,0.788747,0,0,,0
14,19,4,2,0,0,1,,2,S,0,S,15,0.771165,0.010167,0.00784,,0
14,20,2,5,0,0,1,,3,S,0,S,16,0.015413,0.764705,0.011786,,0
14,21,5,2,0,0,1,,3,S,0,S,15,0.782559,0.000513,0.000401,,0
14,22,1,8,0,0,1,,7,L,0,S,12,0.007384,0.752549,0.005557,,0
14,23,3,4,0,0,1,,1,S,0,S,17,0,0.791139,0,,0
14,24,6,2,0,0,1,,4,S,0,S,13,0.756652,0.011381,0.008611,,0
14,25,8,9,0,0,1,,1,S,0,S,16,0.000329,0.787342,0.000259,,L
14,26,9,4,0,0,1,,5,S,0,S,16,0.759521,0.021005,0.015954,,0
14,27,2,1,0,0,1,,1,S,0,S,18,0.788712,0.001014,0.0008,,S
14,28,9,8,0,0,0,,1,S,0,S,15,0.02125,0.756639,0.016079,,L
14,29,7,9,0,0,1,,2,S,0,S,23,0.012161,0.779469,0.009479,,0
14,30,5,3,0,0,1,,2,S,0,S,21,0.793238,0,0,,0
14,31,1,5,0,0,1,,4,S,0,S,14,0.016017,0.754514,0.012085,,0
14,32,5,1,0,0,1,,4,S,0,S,15,0.791082,0,0,,0
14,33,6,7,0,0,0,,1,S,0,S,17,0.783659,0.004029,0.003157,,0
14,34,6,3,0,0,1,,3,S,0,S,15,0.755835,0.019729,0.014912,,0
14,35,2,8,0,0,1,,6,S,0,S,13,0.000384,0.771144,0.000296,,0
14,36,8,5,0,0,1,,3,S,0,S,22,0.789087,0.004045,0.003192,,0
14,37,8,6,0,0,1,,2,S,0,S,22,0.761174,0.029682,0.022593,,0
14,38,2,9,0,0,1,,7,L,0,S,14,0,0.794679,0,,0
14,39,1,3,0,0,1,,2,S,0,S,15,0.00281,0.775907,0.00218,,0
14,40,8,2,0,0,1,,6,S,0,S,14,0.75401,0.019058,0.01437,,0
14,41,5,8,0,0,1,,3,S,0,S,14,0.012295,0.763196,0.009383,,0
14,42,2,3,0,0,1,,1,S,0,S,17,0.024261,0.755714,0.018334,,0
14,43,1,9,0,0,1,,8,L,0,S,13,0,0.786029,0,,0
14,44,2,6,0,0,1,,4,S,0,S,16,0.007156,0.778738,0.005573,,0
14,45,5,6,0,0,1,,1,S,0,S,24,0.027506,0.764636,0.021032,,0
14,46,7,3,0,0,1,,4,S,0,S,15,0.773472,0.005492,0.004248,,0
14,47,3,7,0,0,1,,4,S,0,S,15,0.005474,0.776349,0.00425,,0
14,48,8,1,0,0,1,,7,L,0,S,14,0.761669,0.013612,0.010368,,0
14,49,8,7,0,0,1,,1,S,0,S,32,0.750898,0.037451,0.028122,,0
14,50,7,4,0,0,1,,3,S,0,S,15,0.783852,0,0,,0
14,51,4,9,0,0,1,,5,S,0,S,15,0.001998,0.782654,0.001564,,0
14,52,4,5,0,0,1,,1,S,0,S,22,0.017364,0.773596,0.013433,,0
14,53,6,5,0,0,1,,1,S,0,S,16,0.764383,0.016118,0.01232,,0
14,54,4,8,0,0,1,,4,S,0,S,14,0.003908,0.775002,0.003029,,0
14,55,3,6,0,0,1,,3,S,0,S,15,0.015665,0.765411,0.01199,,0
14,56,9,6,0,0,1,,3,S,0,S,18,0.765014,0.023239,0.017779,,0
14,57,3,1,0,0,1,,2,S,0,S,19,0.755963,0.02924,0.022104,,0
14,58,6,8,0,0,1,,2,S,0,S,17,0.004481,0.782966,0.003509,,0
14,59,7,2,0,0,1,,5,S,0,S,13,0.765412,0.00427,0.003269,,0
14,60,3,9,0,0,1,,6,S,0,S,13,0.009648,0.760407,0.007337,,0
14,61,7,8,0,0,1,,1,S,0,S,18,0,0.790454,0,,0
14,62,1,4,0,0,1,,3,S,0,S,15,0.010057,0.76705,0.007715,,0
14,63,2,4,0,0,1,,2,S,0,S,18,0.006544,0.780574,0.005108,,0
14,64,3,8,0,0,1,,5,S,0,S,13,0,0.785672,0,,0
14,65,3,2,0,0,1,,1,S,0,S,20,0.762922,0.024079,0.018371,,0
14,66,9,1,0,0,1,,8,L,0,S,14,0.787959,0,0,,0
14,67,4,1,0,0,1,,3,S,0,S,15,0.78047,0.003346,0.002611,,0
14,68,4,6,0,0,1,,2,S,0,S,21,0.01834,0.775584,0.014225,,0
14,69,1,2,0,0,1,,1,S,0,S,21,0,0.79209,0,,S
14,70,8,3,0,0,1,,5,S,0,S,18,0.754034,0.028602,0.021567,,0
14,71,9,2,0,0,1,,7,L,0,S,14,0.781603,0,0,,0
14,72,1,6,0,0,1,,5,S,0,S,14,0.011024,0.764378,0.008427,,0
15,1,7,9,0,0,1,,2,S,0,S,21,0.033012,0.754407,0.024905,,0
15,2,8,4,0,0,1,,4,S,0,S,19,0.763412,0.02278,0.01739,,0
15,3,3,2,0,0,1,,1,S,0,S,23,0.757742,0.027305,0.02069,,0
15,4,2,4,0,0,1,,2,S,0,S,17,0.00177,0.784037,0.001388,,0
15,5,2,7,0,0,1,,5,S,0,S,13,0.014697,0.752043,0.011052,,0
15,6,6,5,0,0,1,,1,S,0,S,16,0.792907,0,0,,0
15,7,2,5,0,0,1,,3,S,0,S,18,0.0074,0.780828,0.005778,,0
15,8,1,3,0,0,1,,2,S,0,S,18,0.015493,0.776206,0.012026,,0
15,9,6,7,0,0,1,,1,S,0,S,17,0.014021,0.772732,0.010835,,0
15,10,7,8,0,0,1,,1,S,0,S,19,0.029731,0.754453,0.022431,,0
15,11,9,4,0,0,1,,5,S,0,S,14,0.756751,0.015522,0.011746,,0
15,12,1,5,0,0,1,,4,S,0,S,17,0.017878,0.768951,0.013748,,0
15,13,7,6,0,0,1,,1,S,0,S,17,0.789794,0.002086,0.001647,,0
15,14,4,8,0,0,1,,4,S,0,S,14,0.014844,0.758011,0.011252,,0
15,15,1,4,0,0,1,,3,S,0,S,16,0.018536,0.763405,0.014151,,0
15,16,3,4,0,0,1,,1,S,0,S,19,0.007765,0.780478,0.00606,,0
15,17,6,3,0,0,1,,3,S,0,S,15,0.770584,0.01271,0.009794,,0
15,18,6,2,0,0,1,,4,S,0,S,15,0.775312,0.005094,0.003949,,0
15,19,9,1,0,0,1,,8,L,0,S,13,0.79915,0,0,,0
15,20,9,5,0,0,1,,4,S,0,S,14,0.779652,0,0,,0
15,21,8,9,0,0,1,,1,S,0,S,16,0.019642,0.763047,0.014988,,L
15,22,3,1,0,0,1,,2,S,0,S,16,0.788129,0,0,,0
15,23,1,9,0,0,1,,8,L,0,S,14,0,0.7979,0,,0
15,24,7,4,0,0,1,,3,S,0,S,16,0.786351,0,0,,0
15,25,6,1,0,0,1,,5,S,0,S,13,0.755676,0.012434,0.009396,,0
15,26,1,8,0,0,1,,7,L,0,S,13,0.014518,0.75376,0.010943,,0
15,27,4,6,0,0,1,,2,S,0,S,17,0.026485,0.758349,0.020085,,0
15,28,7,2,0,0,1,,5,S,0,S,15,0.79695,0,0,,0
15,29,5,7,0,0,1,,2,S,0,S,15,0.001868,0.781494,0.00146,,0
15,30,9,7,0,0,1,,2,S,0,S,22,0.785495,0.007245,0.005691,,0
15,31,4,7,0,0,1,,3,S,0,S,14,0.006061,0.770884,0.004673,,0
15,32,4,2,0,0,1,,2,S,0,S,21,0.780152,0.009068,0.007074,,0
15,33,5,2,0,0,1,,3,S,0,S,17,0.760713,0.020891,0.015892,,0
15,34,7,1,0,0,1,,6,S,0,S,13,0.768619,0.002378,0.001828,,0
15,35,8,5,0,0,1,,3,S,0,S,17,0.752393,0.030293,0.022793,,0
15,36,2,9,0,0,1,,7,L,0,S,14,0,0.785285,0,,0
15,37,3,9,0,0,1,,6,S,0,S,14,0.016925,0.756455,0.012803,,0
15,38,4,9,0,0,1,,5,S,0,S,15,0,0.796237,0,,0
15,39,8,7,0,0,0,,1,S,0,S,15,0.022668,0.755195,0.017119,,0
15,40,2,8,0,0,1,,6,S,0,S,14,0,0.793307,0,,0
15,41,8,2,0,0,1,,6,S,0,S,16,0.759227,0.020257,0.01538,,0
15,42,3,7,0,0,1,,4,S,0,S,14,0,0.779165,0,,0
15,43,3,8,0,0,1,,5,S,0,S,14,0.007454,0.767049,0.005717,,0
15,44,5,9,0,0,1,,4,S,0,S,16,0,0.796636,0,,0
15,45,2,1,0,0,1,,1,S,0,S,17,0.771042,0.011862,0.009146,,S
15,46,5,8,0,0,1,,3,S,0,S,15,0.013513,0.765077,0.010338,,0
15,47,1,6,0,0,1,,5,S,0,S,15,0.015345,0.767807,0.011782,,0
15,48,9,2,0,0,1,,7,L,0,S,14,0.795514,0,0,,0
15,49,2,3,0,0,1,,1,S,0,S,19,0.013611,0.776762,0.010573,,0
15,50,8,3,0,0,1,,5,S,0,S,17,0.794643,0,0,,0
15,51,3,5,0,0,1,,2,S,0,S,22,0.001627,0.792551,0.00129,,0
15,52,8,6,0,0,1,,2,S,0,S,26,0.784756,0.012225,0.009594,,0
15,53,7,5,0,0,1,,2,S,0,S,15,0.772235,0.009501,0.007337,,0
15,54,9,6,0,0,1,,3,S,0,S,15,0.783543,0.001352,0.00106,,0
15,55,6,8,0,0,1,,2,S,0,S,18,0.003507,0.786291,0.002758,,0
15,56,4,1,0,0,1,,3,S,0,S,15,0.756826,0.019243,0.014564,,0
15,57,9,8,0,0,1,,1,S,0,S,20,0.772002,0.015648,0.01208,,L
15,58,9,3,0,0,1,,6,S,0,S,14,0.795398,0,0,,0
15,59,1,7,0,0,1,,6,S,0,S,13,0.008052,0.763664,0.006149,,0
15,60,8,1,0,0,1,,7,L,0,S,14,0.774016,0.00308,0.002384,,0
15,61,5,3,0,0,1,,2,S,0,S,18,0.787472,0.005457,0.004297,,0
15,62,5,1,0,0,1,,4,S,0,S,14,0.753857,0.018301,0.013796,,0
15,63,3,6,0,0,1,,3,S,0,S,17,0.00593,0.78358,0.004647,,0
15,64,6,4,0,0,1,,2,S,0,S,16,0.751308,0.027481,0.020647,,0
15,65,6,9,0,0,1,,3,S,0,S,19,0.005876,0.786675,0.004622,,0
15,66,5,4,0,0,1,,1,S,0,S,23,0.787893,0.005147,0.004055,,0
15,67,4,5,0,0,1,,1,S,0,S,25,0.025517,0.764745,0.019514,,0
15,68,7,3,0,0,1,,4,S,0,S,15,0.794252,0,0,,0
15,69,1,2,0,0,1,,1,S,0,S,19,0.023311,0.762446,0.017774,,S
15,70,2,6,0,0,1,,4,S,0,S,16,0,0.796078,0,,0
15,71,4,3,0,0,1,,1,S,0,S,23,0.766042,0.025891,0.019833,,0
15,72,5,6,0,0,1,,1,S,0,S,21,0.032091,0.757787,0.024318,,0
16,1,7,6,0,0,1,,1,S,0,S,23,0.762918,0.022503,0.017168,,0
16,2,4,3,0,0,1,,1,S,0,S,18,0.77167,0.016944,0.013075,,0
16,3,4,1,0,0,1,,3,S,0,S,14,0.762082,0.013268,0.010111,,0
16,4,1,2,0,0,1,,1,S,0,S,15,0.005075,0.772113,0.003919,,S
16,5,3,6,0,0,1,,3,S,0,S,17,0,0.788282,0,,0
16,6,3,9,0,0,1,,6,S,0,S,15,0.010253,0.765676,0.007851,,0
16,7,5,7,0,0,1,,2,S,0,S,16,0.006647,0.778507,0.005175,,0
16,8,6,7,0,0,1,,1,S,0,S,18,0.022864,0.758916,0.017352,,0
16,9,8,2,0,0,1,,6,S,0,S,15,0.789142,0,0,,0
16,10,9,1,0,0,1,,8,L,0,S,14,0.791907,0,0,,0
16,11,6,1,0,0,1,,5,S,0,S,14,0.757912,0.013097,0.009926,,0
16,12,6,8,0,0,1,,2,S,0,S,20,0.007973,0.778642,0.006208,,0
16,13,2,8,0,0,1,,6,S,0,S,14,0,0.778461,0,,0
16,14,8,3,0,0,1,,5,S,0,S,16,0.792991,0,0,,0
16,15,3,4,0,0,1,,1,S,0,S,23,0.03239,0.750782,0.024318,,0
16,16,8,6,0,0,1,,2,S,0,S,18,0.779311,0.008305,0.006472,,0
16,17,5,8,0,0,1,,3,S,0,S,17,0,0.793118,0,,0
16,18,1,9,0,0,1,,8,L,0,S,13,0,0.782952,0,,0
16,19,7,1,0,0,1,,6,S,0,S,14,0.76868,0.005015,0.003855,,0
16,20,6,2,0,0,1,,4,S,0,S,16,0.763889,0.012699,0.009701,,0
16,21,9,3,0,0,1,,6,S,0,S,16,0.766969,0.015479,0.011872,,0
16,22,6,9,0,0,1,,3,S,0,S,18,0.02006,0.760294,0.015251,,0
16,23,5,6,0,0,1,,1,S,0,S,18,0.020171,0.765021,0.015431,,0
16,24,3,5,0,0,1,,2,S,0,S,17,0.0004,0.785938,0.000315,,0
16,25,6,3,0,0,1,,3,S,0,S,18,0.773258,0.011815,0.009136,,0
16,26,5,3,0,0,1,,2,S,0,S,26,0.77532,0.017359,0.013459,,0
16,27,7,2,0,0,1,,5,S,0,S,16,0.78234,0,0,,0
16,28,5,1,0,0,1,,4,S,0,S,15,0.764602,0.014187,0.010847,,0
16,29,1,6,0,0,1,,5,S,0,S,13,0.011275,0.755514,0.008518,,0
16,30,6,5,0,0,1,,1,S,0,S,30,0.792155,0.000302,0.000239,,0
16,31,4,7,0,0,1,,3,S,0,S,18,0.006582,0.784245,0.005162,,0
16,32,3,1,0,0,1,,2,S,0,S,16,0.761973,0.016785,0.012789,,0
16,33,3,7,0,0,1,,4,S,0,S,15,0.01066,0.767136,0.008178,,0
16,34,7,3,0,0,1,,4,S,0,S,17,0.759237,0.021532,0.016348,,0
16,35,5,4,0,0,1,,1,S,0,S,21,0.77,0.018695,0.014395,,0
16,36,2,9,0,0,1,,7,L,0,S,14,0,0.791496,0,,0
16,37,6,4,0,0,1,,2,S,0,S,17,0.763094,0.01698,0.012957,,0
16,38,9,4,0,0,1,,5,S,0,S,16,0.787757,0,0,,0
16,39,8,7,0,0,1,,1,S,0,S,26,0.787205,0.006847,0.00539,,0
16,40,1,3,0,0,1,,2,S,0,S,14,0.005046,0.77114,0.003891,,0
16,41,2,3,0,0,1,,1,S,0,S,16,0,0.792029,0,,0
16,42,2,6,0,0,1,,4,S,0,S,14,0.019499,0.752265,0.014668,,0
16,43,9,7,0,0,0,,2,S,0,S,23,0.018382,0.772088,0.014192,,0
16,44,4,8,0,0,1,,4,S,0,S,19,0.01985,0.767699,0.015239,,0
16,45,8,9,0,0,0,,1,S,0,S,28,0.786302,0.005944,0.004673,,L
16,46,1,8,0,0,1,,7,L,0,S,13,0,0.773623,0,,0
16,47,2,5,0,0,1,,3,S,0,S,14,0.020635,0.751574,0.015509,,0
16,48,4,9,0,0,1,,5,S,0,S,18,0.004156,0.785195,0.003263,,0
16,49,2,4,0,0,1,,2,S,0,S,16,0.01634,0.76444,0.012491,,0
16,50,7,4,0,0,1,,3,S,0,S,17,0.788262,0,0,,0
16,51,3,2,0,0,1,,1,S,0,S,22,0.76808,0.016365,0.012569,,0
16,52,1,5,0,0,1,,4,S,0,S,13,0.011961,0.75535,0.009035,,0
16,53,8,1,0,0,1,,7,L,0,S,13,0.751953,0.014921,0.01122,,0
16,54,5,2,0,0,1,,3,S,0,S,18,0.759986,0.022183,0.016859,,0
16,55,9,8,0,0,1,,1,S,0,S,26,0.781945,0.0098,0.007663,,L
16,56,4,2,0,0,1,,2,S,0,S,16,0.766865,0.014053,0.010777,,0
16,57,4,6,0,0,1,,2,S,0,S,26,0.020682,0.77093,0.015945,,0
16,58,8,5,0,0,1,,3,S,0,S,18,0.787513,0.002429,0.001913,,0
16,59,7,9,0,0,1,,2,S,0,S,19,0.018603,0.763785,0.014209,,0
16,60,9,5,0,0,1,,4,S,0,S,19,0.777915,0.011173,0.008691,,0
16,61,1,4,0,0,1,,3,S,0,S,14,0.01666,0.754456,0.012569,,0
16,62,2,1,0,0,1,,1,S,0,S,23,0.774418,0.016004,0.012394,,S
16,63,7,5,0,0,1,,2,S,0,S,23,0.792197,0,0,,0
16,64,3,8,0,0,1,,5,S,0,S,16,0,0.790608,0,,0
16,65,9,6,0,0,1,,3,S,0,S,19,0.766585,0.019524,0.014967,,0
16,66,8,4,0,0,1,,4,S,0,S,15,0.76234,0.015121,0.011527,,0
16,67,2,7,0,0,1,,5,S,0,S,14,0,0.793303,0,,0
16,68,4,5,0,0,1,,1,S,0,S,28,0.026879,0.764436,0.020547,,0
16,69,7,8,0,0,1,,1,S,0,S,22,0,0.791909,0,,0
16,70,9,2,0,0,1,,7,L,0,S,15,0.771088,0.006688,0.005157,,0
16,71,1,7,0,0,1,,6,S,0,S,13,0,0.784803,0,,0
16,72,5,9,0,0,1,,4,S,0,S,16,0.005819,0.777552,0.004525,,0
17,1,5,8,0,0,1,,3,S,0,S,18,0.01876,0.770403,0.014453,,0
17,2,8,5,0,0,1,,3,S,0,S,19,0.773566,0.017315,0.013394,,0
17,3,9,1,0,0,1,,8,L,0,S,15,0.791154,0,0,,0
17,4,4,2,0,0,1,,2,S,0,S,29,0.761331,0.030316,0.023081,,0
17,5,9,6,0,0,1,,3,S,0,S,21,0.77641,0.016199,0.012577,,0
17,6,7,8,0,0,0,,1,S,0,S,52,0.782895,0.012487,0.009776,,0
17,7,1,5,0,0,1,,4,S,0,S,15,0.002254,0.782562,0.001764,,0
17,8,7,3,0,0,1,,4,S,0,S,15,0.765805,0.013962,0.010692,,0
17,9,8,3,0,0,1,,5,S,0,S,16,0.784803,0.001259,0.000988,,0
17,10,3,9,0,0,1,,6,S,0,S,16,0.020275,0.761498,0.01544,,0
17,11,1,8,0,0,1,,7,L,0,S,14,0,0.781858,0,,0
17,12,2,5,0,0,1,,3,S,0,S,17,0.02102,0.765835,0.016098,,0
17,13,3,2,0,0,1,,1,S,0,S,21,0.770378,0.020276,0.01562,,0
17,14,6,3,0,0,1,,3,S,0,S,16,0.776329,0.009547,0.007411,,0
17,15,3,7,0,0,1,,4,S,0,S,18,0.0187,0.767847,0.014359,,0
17,16,9,2,0,0,1,,7,L,0,S,16,0.786916,0.001645,0.001294,,0
17,17,5,2,0,0,1,,3,S,0,S,18,0.792462,0.001832,0.001452,,0
17,18,5,1,0,0,1,,4,S,0,S,16,0.786711,0.000713,0.000561,,0
17,19,2,1,0,0,1,,1,S,0,S,20,0.782439,0.008573,0.006708,,S
17,20,7,6,0,0,1,,1,S,0,S,21,0.790925,0.004524,0.003578,,0
17,21,9,4,0,0,1,,5,S,0,S,19,0.771716,0.016759,0.012933,,0
17,22,3,8,0,0,1,,5,S,0,S,16,0.026987,0.752583,0.02031,,0
17,23,5,3,0,0,1,,2,S,0,S,17,0.790489,0.000217,0.000171,,0
17,24,1,3,0,0,1,,2,S,0,S,17,0.014343,0.770576,0.011052,,0
17,25,9,8,0,0,0,,1,S,0,S,29,0.017505,0.776392,0.013591,,L
17,26,9,3,0,0,1,,6,S,0,S,15,0.763125,0.015986,0.012199,,0
17,27,3,6,0,0,1,,3,S,0,S,17,0.029338,0.752997,0.022091,,0
17,28,4,1,0,0,1,,3,S,0,S,18,0.767277,0.018556,0.014238,,0
17,29,4,8,0,0,1,,4,S,0,S,16,0.002374,0.784859,0.001863,,0
17,30,7,2,0,0,1,,5,S,0,S,16,0.790053,0,0,,0
17,31,6,1,0,0,1,,5,S,0,S,15,0.763485,0.016337,0.012473,,0
17,32,9,7,0,0,1,,2,S,0,S,20,0.793794,0.000962,0.000763,,0
17,33,5,9,0,0,1,,4,S,0,S,18,0.007534,0.784783,0.005912,,0
17,34,2,4,0,0,1,,2,S,0,S,17,0,0.796064,0,,0
17,35,4,5,0,0,1,,1,S,0,S,18,0.029997,0.756518,0.022693,,0
17,36,6,9,0,0,1,,3,S,0,S,19,0.023982,0.765999,0.01837,,0
17,37,4,7,0,0,1,,3,S,0,S,17,0.014881,0.771684,0.011483,,0
17,38,8,6,0,0,1,,2,S,0,S,30,0.776244,0.01765,0.013701,,0
17,39,6,4,0,0,1,,2,S,0,S,23,0.753181,0.035373,0.026642,,0
17,40,7,5,0,0,1,,2,S,0,S,17,0.751544,0.032506,0.024429,,0
17,41,7,4,0,0,1,,3,S,0,S,19,0.780021,0.010177,0.007939,,0
17,42,5,4,0,0,0,,1,S,0,S,24,0.018865,0.773841,0.014598,,0
17,43,2,3,0,0,0,,1,S,0,S,27,0.772556,0.019337,0.014939,,0
17,44,1,7,0,0,1,,6,S,0,S,14,0.019907,0.753424,0.014998,,0
17,45,3,5,0,0,1,,2,S,0,S,20,0.026142,0.763038,0.019947,,0
17,46,9,5,0,0,1,,4,S,0,S,18,0.792522,0.001391,0.001102,,0
17,47,1,6,0,0,1,,5,S,0,S,14,0.011897,0.764402,0.009094,,0
17,48,7,1,0,0,1,,6,S,0,S,15,0.793317,0,0,,0
17,49,4,9,0,0,1,,5,S,0,S,16,0,0.79203,0,,0
17,50,1,2,0,0,1,,1,S,0,S,16,0.015437,0.768601,0.011865,,S
17,51,6,8,0,0,1,,2,S,0,S,20,0.006249,0.788795,0.004929,,0
17,52,1,9,0,0,1,,8,L,0,S,14,0,0.785834,0,,0
17,53,1,4,0,0,1,,3,S,0,S,15,0,0.795118,0,,0
17,54,8,2,0,0,1,,6,S,0,S,16,0.754237,0.026944,0.020322,,0
17,55,3,4,0,0,1,,1,S,0,S,19,0.001011,0.790049,0.000798,,0
17,56,5,7,0,0,1,,2,S,0,S,22,0.021948,0.770615,0.016913,,0
17,57,2,8,0,0,1,,6,S,0,S,15,0.016811,0.763054,0.012828,,0
17,58,8,7,0,0,1,,1,S,0,S,23,0.78457,0.009398,0.007374,,0
17,59,5,6,0,0,1,,1,S,0,S,20,0.023926,0.767293,0.018358,,0
17,60,4,3,0,0,1,,1,S,0,S,21,0.788348,0.004864,0.003835,,0
17,61,8,1,0,0,1,,7,L,0,S,15,0.769685,0.009945,0.007655,,0
17,62,8,4,0,0,1,,4,S,0,S,21,0.751454,0.033991,0.025543,,0
17,63,2,7,0,0,1,,5,S,0,S,16,0.019913,0.762721,0.015188,,0
17,64,2,9,0,0,1,,7,L,0,S,15,0.012221,0.769272,0.009402,,0
17,65,2,6,0,0,1,,4,S,0,S,16,0.005441,0.781673,0.004253,,0
17,66,6,2,0,0,1,,4,S,0,S,17,0.789838,0.002521,0.001991,,0
17,67,6,7,0,0,0,,1,S,0,S,27,0.794019,0.004258,0.003381,,0
17,68,3,1,0,0,1,,2,S,0,S,17,0.766201,0.017004,0.013029,,0
17,69,7,9,0,0,1,,2,S,0,S,26,0.024944,0.767343,0.019141,,0
17,70,6,5,0,0,1,,1,S,0,S,20,0.784557,0.011118,0.008722,,0
17,71,4,6,0,0,1,,2,S,0,S,17,0,0.795247,0,,0
17,72,8,9,0,0,1,,1,S,0,S,20,0.026207,0.762175,0.019974,,L
18,1,3,4,0,0,1,,1,S,0,S,24,0.032529,0.757095,0.024628,,0
18,2,2,9,0,0,1,,7,L,0,S,14,0,0.784936,0,,0
18,3,8,2,0,0,1,,6,S,0,S,16,0.796984,0,0,,0
18,4,4,1,0,0,1,,3,S,0,S,16,0.792516,0,0,,0
18,5,6,7,0,0,1,,1,S,0,S,19,0.012103,0.774576,0.009375,,0
18,6,2,7,0,0,1,,5,S,0,S,15,0.003874,0.774256,0.002999,,0
18,7,1,6,0,0,1,,5,S,0,S,15,0.006076,0.775247,0.00471,,0
18,8,8,1,0,0,1,,7,L,0,S,15,0.793826,0,0,,0
18,9,1,7,0,0,1,,6,S,0,S,15,0,0.781849,0,,0
18,10,2,3,0,0,1,,1,S,0,S,17,0.000226,0.786769,0.000178,,0
18,11,7,5,0,0,1,,2,S,0,S,19,0.780579,0.0109,0.008508,,0
18,12,5,6,0,0,1,,1,S,0,S,25,0.003721,0.792572,0.002949,,0
18,13,6,3,0,0,1,,3,S,0,S,21,0.76985,0.019226,0.014802,,0
18,14,2,1,0,0,1,,1,S,0,S,23,0.792763,0,0,,S
18,15,3,2,0,0,1,,1,S,0,S,19,0.788816,0.003279,0.002586,,0
18,16,2,5,0,0,1,,3,S,0,S,16,0.00494,0.781729,0.003862,,0
18,17,7,9,0,0,1,,2,S,0,S,17,0.024887,0.75711,0.018842,,0
18,18,1,9,0,0,1,,8,L,0,S,14,0,0.790399,0,,0
18,19,3,8,0,0,1,,5,S,0,S,16,0.014256,0.771561,0.010999,,0
18,20,9,6,0,0,1,,3,S,0,S,19,0.767003,0.021621,0.016583,,0
18,21,9,1,0,0,1,,8,L,0,S,14,0.766396,0.00856,0.00656,,0
18,22,2,4,0,0,1,,2,S,0,S,17,0,0.792742,0,,0
18,23,9,8,0,0,1,,1,S,0,S,31,0.771627,0.023405,0.01806,,L
18,24,9,7,0,0,1,,2,S,0,S,21,0.785733,0.005401,0.004244,,0
18,25,8,5,0,0,1,,3,S,0,S,18,0.761239,0.024039,0.018299,,0
18,26,6,4,0,0,1,,2,S,0,S,21,0.768325,0.022049,0.016941,,0
18,27,6,1,0,0,1,,5,S,0,S,16,0.795562,0,0,,0
18,28,7,1,0,0,1,,6,S,0,S,15,0.788341,0,0,,0
18,29,5,9,0,0,1,,4,S,0,S,16,0.029771,0.750246,0.022336,,0
18,30,5,8,0,0,1,,3,S,0,S,18,0.035132,0.750595,0.02637,,0
18,31,5,1,0,0,1,,4,S,0,S,15,0.774701,0.005566,0.004312,,0
18,32,5,3,0,0,1,,2,S,0,S,19,0.788571,0.003287,0.002592,,0
18,33,4,9,0,0,1,,5,S,0,S,16,0.001366,0.785095,0.001072,,0
18,34,6,9,0,0,1,,3,S,0,S,16,0.002691,0.783916,0.002109,,0
18,35,3,5,0,0,1,,2,S,0,S,20,0.017736,0.77491,0.013744,,0
18,36,3,7,0,0,1,,4,S,0,S,17,0.018635,0.763258,0.014223,,0
18,37,1,8,0,0,1,,7,L,0,S,14,0.013225,0.76338,0.010096,,0
18,38,9,3,0,0,1,,6,S,0,S,16,0.75629,0.024218,0.018316,,0
18,39,2,8,0,0,1,,6,S,0,S,14,0.017734,0.756759,0.01342,,0
18,40,1,2,0,0,1,,1,S,0,S,19,0.022596,0.763572,0.017253,,S
18,41,4,7,0,0,1,,3,S,0,S,19,0.008252,0.778857,0.006427,,0
18,42,8,9,0,0,1,,1,S,0,S,18,0.008527,0.778365,0.006637,,L
18,43,1,3,0,0,1,,2,S,0,S,16,0.026049,0.752206,0.019594,,0
18,44,4,3,0,0,1,,1,S,0,S,21,0.756349,0.029583,0.022375,,0
18,45,6,2,0,0,1,,4,S,0,S,17,0.77273,0.013188,0.010191,,0
18,46,7,4,0,0,1,,3,S,0,S,18,0.791266,0,0,,0
18,47,6,5,0,0,1,,1,S,0,S,33,0.785647,0.011436,0.008984,,0
18,48,1,5,0,0,1,,4,S,0,S,16,0,0.791703,0,,0
18,49,8,6,0,0,1,,2,S,0,S,22,0.787544,0.004044,0.003185,,0
18,50,8,7,0,0,1,,1,S,0,S,26,0.786862,0.002673,0.002104,,0
18,51,5,4,0,0,1,,1,S,0,S,19,0.789929,0.003716,0.002935,,0
18,52,4,2,0,0,1,,2,S,0,S,17,0.768132,0.016415,0.012609,,0
18,53,5,7,0,0,1,,2,S,0,S,21,0.032129,0.75218,0.024167,,0
18,54,2,6,0,0,1,,4,S,0,S,15,0.011805,0.767101,0.009056,,0
18,55,6,8,0,0,1,,2,S,0,S,17,0.022204,0.763985,0.016963,,0
18,56,7,2,0,0,1,,5,S,0,S,16,0.78855,0,0,,0
18,57,9,4,0,0,1,,5,S,0,S,16,0.758485,0.023955,0.01817,,0
18,58,9,5,0,0,1,,4,S,0,S,17,0.770722,0.017802,0.01372,,0
18,59,3,1,0,0,1,,2,S,0,S,16,0.754855,0.023449,0.0177,,0
18,60,3,6,0,0,1,,3,S,0,S,18,0.00312,0.787969,0.002458,,0
18,61,5,2,0,0,1,,3,S,0,S,16,0.767169,0.016057,0.012318,,0
18,62,8,4,0,0,1,,4,S,0,S,17,0.762661,0.019943,0.015209,,0
18,63,9,2,0,0,1,,7,L,0,S,15,0.777177,0.005566,0.004326,,0
18,64,7,8,0,0,1,,1,S,0,S,20,0.030106,0.757486,0.022805,,0
18,65,3,9,0,0,1,,6,S,0,S,15,0.009503,0.77204,0.007337,,0
18,66,8,3,0,0,1,,5,S,0,S,17,0.760499,0.020144,0.01532,,0
18,67,4,8,0,0,1,,4,S,0,S,17,0.019817,0.76647,0.015189,,0
18,68,1,4,0,0,1,,3,S,0,S,16,0.022994,0.75798,0.017429,,0
18,69,7,3,0,0,1,,4,S,0,S,18,0.789222,0,0,,0
18,70,4,5,0,0,1,,1,S,0,S,32,0.012549,0.783696,0.009834,,0
18,71,4,6,0,0,1,,2,S,0,S,20,0.009211,0.78206,0.007203,,0
18,72,7,6,0,0,1,,1,S,0,S,24,0.784216,0.008499,0.006665,,0
19,1,3,7,0,0,1,,4,S,0,S,14,0.007254,0.768693,0.005576,,0
19,2,8,7,0,0,0,,1,S,0,S,19,0.022838,0.762198,0.017407,,0
19,3,4,8,0,0,1,,4,S,0,S,15,0.022449,0.755341,0.016957,,0
19,4,7,3,0,0,1,,4,S,0,S,15,0.766461,0.014331,0.010984,,0
19,5,2,1,0,0,1,,1,S,0,S,16,0.77182,0.011844,0.009141,,S
19,6,8,4,0,0,1,,4,S,0,S,17,0.761792,0.022884,0.017433,,0
19,7,8,5,0,0,1,,3,S,0,S,17,0.790224,0,0,,0
19,8,1,2,0,0,0,,1,S,0,S,19,0.759554,0.025712,0.01953,,S
19,9,1,8,0,0,1,,7,L,0,S,14,0.009238,0.76571,0.007074,,0
19,10,4,7,0,0,1,,3,S,0,S,15,0,0.786747,0,,0
19,11,6,4,0,0,0,,2,S,0,S,29,0.01511,0.779443,0.011777,,0
19,12,8,6,0,0,1,,2,S,0,S,19,0.751785,0.029583,0.02224,,0
19,13,7,9,0,0,1,,2,S,0,S,33,0.022725,0.771547,0.017533,,0
19,14,1,6,0,0,1,,5,S,0,S,15,0.008279,0.768805,0.006365,,0
19,15,5,4,0,0,1,,1,S,0,S,21,0.771679,0.01998,0.015419,,0
19,16,6,9,0,0,1,,3,S,0,S,17,0.01054,0.77809,0.008201,,0
19,17,2,7,0,0,1,,5,S,0,S,14,0.01168,0.762739,0.008909,,0
19,18,4,6,0,0,1,,2,S,0,S,17,0.009255,0.775491,0.007177,,0
19,19,1,3,0,0,1,,2,S,0,S,18,0.016705,0.770359,0.012869,,0
19,20,2,3,0,0,1,,1,S,0,S,22,0.003615,0.792027,0.002863,,0
19,21,9,3,0,0,1,,6,S,0,S,14,0.771136,0.005123,0.003951,,0
19,22,8,2,0,0,1,,6,S,0,S,14,0.789026,0,0,,0
19,23,7,8,0,0,1,,1,S,0,S,27,0.021055,0.770472,0.016222,,0
19,24,3,2,0,0,1,,1,S,0,S,17,0.756373,0.026693,0.02019,,0
19,25,9,4,0,0,1,,5,S,0,S,15,0.767275,0.012146,0.009319,,0
19,26,6,5,0,0,1,,1,S,0,S,22,0.755057,0.031023,0.023424,,0
19,27,7,1,0,0,1,,6,S,0,S,13,0.757693,0.011473,0.008693,,0
19,28,5,7,0,0,1,,2,S,0,S,17,0,0.790846,0,,0
19,29,4,3,0,0,1,,1,S,0,S,23,0.775018,0.018337,0.014212,,0
19,30,1,9,0,0,1,,8,L,0,S,14,0.009718,0.767402,0.007458,,0
19,31,9,8,0,0,1,,1,S,0,S,18,0.781877,0.005395,0.004219,,L
19,32,3,8,0,0,1,,5,S,0,S,15,0,0.794087,0,,0
19,33,3,1,0,0,1,,2,S,0,S,16,0.761313,0.02027,0.015432,,0
19,34,5,9,0,0,1,,4,S,0,S,18,0.020299,0.768348,0.015597,,0
19,35,8,3,0,0,1,,5,S,0,S,15,0.760368,0.018507,0.014072,,0
19,36,3,6,0,0,1,,3,S,0,S,16,0,0.786922,0,,0
19,37,3,5,0,0,1,,2,S,0,S,17,0.024052,0.75847,0.018243,,0
19,38,7,5,0,0,1,,2,S,0,S,16,0.751751,0.027016,0.020309,,0
19,39,1,7,0,0,1,,6,S,0,S,14,0,0.78633,0,,0
19,40,2,5,0,0,1,,3,S,0,S,18,0.002299,0.787596,0.001811,,0
19,41,5,3,0,0,1,,2,S,0,S,17,0.789871,0.00059,0.000466,,0
19,42,2,9,0,0,1,,7,L,0,S,15,0,0.788608,0,,0
19,43,8,1,0,0,1,,7,L,0,S,13,0.754132,0.013653,0.010296,,0
19,44,9,2,0,0,1,,7,L,0,S,13,0.774558,0,0,,0
19,45,1,4,0,0,1,,3,S,0,S,16,0,0.791254,0,,0
19,46,3,9,0,0,1,,6,S,0,S,15,0,0.795624,0,,0
19,47,7,4,0,0,1,,3,S,0,S,17,0.77223,0.015224,0.011756,,0
19,48,3,4,0,0,1,,1,S,0,S,16,0.029309,0.751804,0.022034,,0
19,49,8,9,0,0,1,,1,S,0,S,26,0.030621,0.760402,0.023284,,L
19,50,9,7,0,0,1,,2,S,0,S,20,0.758694,0.024883,0.018878,,0
19,51,9,1,0,0,1,,8,L,0,S,13,0.787429,0,0,,0
19,52,6,2,0,0,1,,4,S,0,S,15,0.782093,0.000963,0.000753,,0
19,53,2,8,0,0,1,,6,S,0,S,15,0,0.787163,0,,0
19,54,5,1,0,0,1,,4,S,0,S,14,0.776382,0.001859,0.001443,,0
19,55,1,5,0,0,1,,4,S,0,S,16,0.01917,0.760367,0.014577,,0
19,56,6,7,0,0,1,,1,S,0,S,16,0.004196,0.779896,0.003273,,0
19,57,7,2,0,0,1,,5,S,0,S,14,0.792879,0,0,,0
19,58,4,9,0,0,1,,5,S,0,S,15,0.02373,0.756154,0.017944,,0
19,59,5,6,0,0,1,,1,S,0,S,25,0.000368,0.792318,0.000292,,0
19,60,9,5,0,0,1,,4,S,0,S,15,0.780262,8E-06,6E-06,,0
19,61,4,2,0,0,1,,2,S,0,S,16,0.778071,0.007762,0.006039,,0
19,62,4,1,0,0,1,,3,S,0,S,15,0.764383,0.015363,0.011743,,0
19,63,9,6,0,0,1,,3,S,0,S,16,0.767781,0.01074,0.008246,,0
19,64,2,6,0,0,1,,4,S,0,S,16,0.005479,0.777104,0.004258,,0
19,65,4,5,0,0,1,,1,S,0,S,20,0.01517,0.774717,0.011752,,0
19,66,5,2,0,0,1,,3,S,0,S,14,0.75484,0.018772,0.01417,,0
19,67,7,6,0,0,1,,1,S,0,S,19,0.769501,0.01617,0.012443,,0
19,68,2,4,0,0,1,,2,S,0,S,17,0.004234,0.786003,0.003328,,0
19,69,5,8,0,0,1,,3,S,0,S,18,0.015771,0.771434,0.012166,,0
19,70,6,1,0,0,1,,5,S,0,S,14,0.756877,0.016542,0.01252,,0
19,71,6,3,0,0,1,,3,S,0,S,18,0.783727,0.006669,0.005227,,0
19,72,6,8,0,0,1,,2,S,0,S,17,0.008,0.778773,0.00623,,0
20,1,4,5,0,0,1,,1,S,0,S,23,0.021551,0.768854,0.01657,,0
20,2,6,7,0,0,1,,1,S,0,S,22,0.016922,0.775485,0.013123,,0
20,3,9,8,0,0,1,,1,S,0,S,16,0.796188,0,0,,L
20,4,2,7,0,0,1,,5,S,0,S,17,0,0.79243,0,,0
20,5,4,7,0,0,1,,3,S,0,S,19,0.023231,0.766527,0.017807,,0
20,6,7,1,0,0,1,,6,S,0,S,15,0.753172,0.023312,0.017558,,0
20,7,8,5,0,0,1,,3,S,0,S,17,0.766113,0.017807,0.013643,,0
20,8,8,2,0,0,1,,6,S,0,S,15,0.759852,0.01808,0.013738,,0
20,9,3,4,0,0,1,,1,S,0,S,24,0.010897,0.781572,0.008517,,0
20,10,2,9,0,0,1,,7,L,0,S,15,0.016239,0.758832,0.012322,,0
20,11,5,9,0,0,1,,4,S,0,S,18,0.00029,0.785851,0.000228,,0
20,12,9,4,0,0,1,,5,S,0,S,14,0.767805,0.009262,0.007111,,0
20,13,7,2,0,0,1,,5,S,0,S,16,0.765757,0.016344,0.012515,,0
20,14,5,6,0,0,1,,1,S,0,S,22,0,0.79227,0,,0
20,15,5,4,0,0,1,,1,S,0,S,21,0.768481,0.018901,0.014525,,0
20,16,4,1,0,0,1,,3,S,0,S,17,0.768069,0.017206,0.013216,,0
20,17,2,5,0,0,1,,3,S,0,S,18,0.004494,0.781083,0.00351,,0
20,18,8,1,0,0,1,,7,L,0,S,15,0.787466,0,0,,0
20,19,6,9,0,0,1,,3,S,0,S,18,0,0.794116,0,,0
20,20,1,7,0,0,1,,6,S,0,S,16,0,0.790578,0,,0
20,21,5,7,0,0,1,,2,S,0,S,22,0.01867,0.768888,0.014355,,0
20,22,8,6,0,0,1,,2,S,0,S,19,0.788141,0.00456,0.003594,,0
20,23,6,8,0,0,1,,2,S,0,S,19,0.009483,0.780401,0.0074,,0
20,24,8,9,0,0,1,,1,S,0,S,37,0.008094,0.78645,0.006366,,L
20,25,3,7,0,0,1,,4,S,0,S,18,0.026099,0.757286,0.019764,,0
20,26,2,6,0,0,1,,4,S,0,S,17,0,0.796155,0,,0
20,27,1,5,0,0,1,,4,S,0,S,17,0,0.794071,0,,0
20,28,2,4,0,0,1,,2,S,0,S,19,0.000245,0.790978,0.000194,,0
20,29,1,9,0,0,1,,8,L,0,S,15,0,0.790946,0,,0
20,30,6,5,0,0,1,,1,S,0,S,25,0.790454,0.003266,0.002582,,0
20,31,3,2,0,0,1,,1,S,0,S,20,0.771372,0.014977,0.011553,,0
20,32,9,1,0,0,1,,8,L,0,S,13,0.757434,0.010438,0.007906,,0
20,33,9,3,0,0,1,,6,S,0,S,14,0.787759,0,0,,0
20,34,5,8,0,0,1,,3,S,0,S,19,0.012784,0.77199,0.009869,,0
20,35,2,8,0,0,1,,6,S,0,S,16,0.001233,0.781927,0.000964,,0
20,36,3,6,0,0,1,,3,S,0,S,18,0.019402,0.764959,0.014842,,0
20,37,9,5,0,0,1,,4,S,0,S,15,0.798901,0,0,,0
20,38,9,6,0,0,1,,3,S,0,S,15,0.776307,0.005442,0.004225,,0
20,39,1,4,0,0,1,,3,S,0,S,17,0.015943,0.771849,0.012306,,0
20,40,6,2,0,0,1,,4,S,0,S,17,0.751528,0.029113,0.021879,,0
20,41,4,8,0,0,1,,4,S,0,S,17,0.031387,0.750798,0.023566,,0
20,42,7,6,0,0,1,,1,S,0,S,23,0.769889,0.021778,0.016766,,0
20,43,1,6,0,0,1,,5,S,0,S,16,0,0.793298,0,,0
20,44,6,4,0,0,1,,2,S,0,S,21,0.786306,0.008051,0.006331,,0
20,45,1,8,0,0,1,,7,L,0,S,15,0.010284,0.770652,0.007925,,0
20,46,8,7,0,0,1,,1,S,0,S,18,0.755004,0.030457,0.022995,,0
20,47,7,3,0,0,1,,4,S,0,S,17,0.796988,0,0,,0
20,48,9,2,0,0,1,,7,L,0,S,14,0.79301,0,0,,0
20,49,8,3,0,0,1,,5,S,0,S,16,0.796892,0,0,,0
20,50,7,5,0,0,1,,2,S,0,S,19,0.768969,0.018379,0.014133,,0
20,51,1,3,0,0,1,,2,S,0,S,19,0.015181,0.77481,0.011763,,0
20,52,5,1,0,0,1,,4,S,0,S,17,0.791701,0,0,,0
20,53,6,1,0,0,1,,5,S,0,S,16,0.755442,0.023857,0.018022,,0
20,54,4,6,0,0,1,,2,S,0,S,19,0.014014,0.777249,0.010892,,0
20,55,4,9,0,0,1,,5,S,0,S,17,0,0.793133,0,,0
20,56,4,2,0,0,1,,2,S,0,S,19,0.790597,0.001964,0.001553,,0
20,57,6,3,0,0,1,,3,S,0,S,18,0.772698,0.015011,0.011599,,0
20,58,1,2,0,0,1,,1,S,0,S,20,0.021521,0.766666,0.016499,,S
20,59,3,8,0,0,1,,5,S,0,S,17,0.012316,0.77097,0.009496,,0
20,60,2,1,0,0,1,,1,S,0,S,21,0.753567,0.029265,0.022053,,S
20,61,7,8,0,0,1,,1,S,0,S,23,0.032582,0.755391,0.024612,,0
20,62,3,9,0,0,1,,6,S,0,S,16,0.018594,0.759912,0.01413,,0
20,63,5,3,0,0,1,,2,S,0,S,18,0.76,0.021705,0.016496,,0
20,64,3,5,0,0,1,,2,S,0,S,21,0.007785,0.780718,0.006078,,0
20,65,2,3,0,0,1,,1,S,0,S,22,0.028721,0.756323,0.021723,,0
20,66,3,1,0,0,1,,2,S,0,S,18,0.773362,0.011397,0.008814,,0
20,67,7,9,0,0,1,,2,S,0,S,20,0.008673,0.782734,0.006789,,0
20,68,5,2,0,0,1,,3,S,0,S,18,0.785655,0.000307,0.000241,,0
20,69,8,4,0,0,1,,4,S,0,S,16,0.754957,0.026942,0.02034,,0
20,70,4,3,0,0,1,,1,S,0,S,19,0.750749,0.034927,0.026222,,0
20,71,9,7,0,0,1,,2,S,0,S,15,0.780997,0.002323,0.001814,,0
20,72,7,4,0,0,1,,3,S,0,S,18,0.780834,0.010295,0.008039,,0
21,1,2,3,0,0,1,,1,S,0,S,28,0.006543,0.789121,0.005163,,0
21,2,8,7,0,0,1,,1,S,0,S,26,0.753426,0.035903,0.027051,,0
21,3,2,8,0,0,1,,6,S,0,S,16,0.005183,0.779246,0.004039,,0
21,4,8,3,0,0,1,,5,S,0,S,16,0.77372,0.009712,0.007515,,0
21,5,4,5,0,0,1,,1,S,0,S,24,0.022356,0.762891,0.017055,,0
21,6,1,6,0,0,1,,5,S,0,S,15,0,0.794669,0,,0
21,7,2,9,0,0,1,,7,L,0,S,15,0,0.794131,0,,0
21,8,3,4,0,0,1,,1,S,0,S,23,0.033211,0.752138,0.024979,,0
21,9,4,3,0,0,1,,1,S,0,S,19,0.785882,0.003094,0.002432,,0
21,10,9,1,0,0,1,,8,L,0,S,15,0.773026,0.008693,0.00672,,0
21,11,2,1,0,0,1,,1,S,0,S,20,0.77644,0.013535,0.010509,,S
21,12,8,9,0,0,1,,1,S,0,S,18,0.011303,0.774329,0.008752,,L
21,13,2,6,0,0,1,,4,S,0,S,17,0.00032,0.791186,0.000254,,0
21,14,5,8,0,0,1,,3,S,0,S,21,0.000779,0.791069,0.000616,,0
21,15,5,6,0,0,1,,1,S,0,S,40,0.012339,0.782685,0.009657,,0
21,16,1,9,0,0,1,,8,L,0,S,14,0,0.800558,0,,0
21,17,1,2,0,0,1,,1,S,0,S,19,0.022479,0.763844,0.01717,,S
21,18,5,4,0,0,1,,1,S,0,S,19,0.756462,0.028312,0.021417,,0
21,19,4,8,0,0,1,,4,S,0,S,18,0.013224,0.769968,0.010182,,0
21,20,7,1,0,0,1,,6,S,0,S,16,0.786851,0,0,,0
21,21,3,9,0,0,1,,6,S,0,S,15,0.01844,0.756296,0.013946,,0
21,22,1,8,0,0,1,,7,L,0,S,14,0.011143,0.76176,0.008489,,0
21,23,6,4,0,0,1,,2,S,0,S,18,0.768078,0.01686,0.01295,,0
21,24,9,5,0,0,1,,4,S,0,S,18,0.75419,0.029437,0.022201,,0
21,25,9,4,0,0,1,,5,S,0,S,17,0.753636,0.029647,0.022343,,0
21,26,1,5,0,0,1,,4,S,0,S,15,0.010684,0.766806,0.008192,,0
21,27,7,6,0,0,1,,1,S,0,S,41,0.773007,0.021287,0.016455,,0
21,28,3,6,0,0,1,,3,S,0,S,18,0.029627,0.753903,0.022336,,0
21,29,4,6,0,0,1,,2,S,0,S,20,0.012989,0.77625,0.010083,,0
21,30,7,8,0,0,1,,1,S,0,S,21,0,0.793822,0,,0
21,31,4,2,0,0,1,,2,S,0,S,16,0.751936,0.025564,0.019222,,0
21,32,4,9,0,0,1,,5,S,0,S,16,0.000864,0.781197,0.000675,,0
21,33,5,3,0,0,1,,2,S,0,S,17,0.778617,0.008116,0.006319,,0
21,34,6,9,0,0,1,,3,S,0,S,18,0,0.790596,0,,0
21,35,5,2,0,0,1,,3,S,0,S,15,0.7528,0.023815,0.017928,,0
21,36,9,7,0,0,1,,2,S,0,S,25,0.762662,0.030686,0.023403,,0
21,37,9,8,0,0,1,,1,S,0,S,34,0.752216,0.036075,0.027136,,L
21,38,6,7,0,0,1,,1,S,0,S,28,0.010721,0.783808,0.008403,,0
21,39,7,2,0,0,1,,5,S,0,S,15,0.755365,0.022743,0.01718,,0
21,40,8,5,0,0,1,,3,S,0,S,19,0.787982,0.00145,0.001142,,0
21,41,2,5,0,0,1,,3,S,0,S,18,0.005857,0.782648,0.004584,,0
21,42,3,8,0,0,1,,5,S,0,S,17,0.015818,0.765905,0.012115,,0
21,43,9,6,0,0,1,,3,S,0,S,20,0.765814,0.025337,0.019404,,0
21,44,7,3,0,0,1,,4,S,0,S,17,0.781677,0.006642,0.005192,,0
21,45,4,7,0,0,1,,3,S,0,S,18,0.020325,0.765233,0.015553,,0
21,46,8,1,0,0,1,,7,L,0,S,15,0.766364,0.011891,0.009113,,0
21,47,1,4,0,0,1,,3,S,0,S,15,0.023076,0.752516,0.017365,,0
21,48,7,5,0,0,1,,2,S,0,S,21,0.763523,0.023812,0.018181,,0
21,49,2,4,0,0,1,,2,S,0,S,19,0.004598,0.787409,0.00362,,0
21,50,9,3,0,0,1,,6,S,0,S,16,0.781328,0.005765,0.004504,,0
21,51,6,2,0,0,1,,4,S,0,S,15,0.771008,0.00873,0.006731,,0
21,52,2,7,0,0,1,,5,S,0,S,16,0.007829,0.779823,0.006105,,0
21,53,3,5,0,0,1,,2,S,0,S,21,0.001607,0.788589,0.001267,,0
21,54,8,6,0,0,1,,2,S,0,S,21,0.794185,0.000838,0.000666,,0
21,55,5,1,0,0,1,,4,S,0,S,16,0.784149,0.000868,0.000681,,0
21,56,8,4,0,0,1,,4,S,0,S,18,0.790072,9.4E-05,7.4E-05,,0
21,57,7,9,0,0,1,,2,S,0,S,17,0.000945,0.78698,0.000744,,0
21,58,8,2,0,0,1,,6,S,0,S,15,0.780667,0.001895,0.001479,,0
21,59,5,7,0,0,1,,2,S,0,S,21,0.022131,0.76889,0.017016,,0
21,60,3,2,0,0,1,,1,S,0,S,17,0.770639,0.013845,0.01067,,0
21,61,4,1,0,0,1,,3,S,0,S,17,0.776305,0.007251,0.005629,,0
21,62,7,4,0,0,1,,3,S,0,S,19,0.760514,0.026114,0.01986,,0
21,63,6,3,0,0,1,,3,S,0,S,16,0.760066,0.01969,0.014966,,0
21,64,3,7,0,0,1,,4,S,0,S,17,0.020688,0.763876,0.015803,,0
21,65,6,8,0,0,1,,2,S,0,S,25,0.002306,0.789354,0.00182,,0
21,66,5,9,0,0,1,,4,S,0,S,17,0.001933,0.784537,0.001517,,0
21,67,6,1,0,0,1,,5,S,0,S,15,0.755838,0.019342,0.014619,,0
21,68,1,7,0,0,1,,6,S,0,S,14,0.012072,0.764304,0.009227,,0
21,69,1,3,0,0,1,,2,S,0,S,17,0,0.788281,0,,0
21,70,9,2,0,0,1,,7,L,0,S,15,0.787002,0,0,,0
21,71,6,5,0,0,1,,1,S,0,S,19,0.758417,0.024235,0.01838,,0
21,72,3,1,0,0,1,,2,S,0,S,18,0.788898,0,0,,0
22,1,7,2,0,0,1,,5,S,0,S,15,0.761733,0.015595,0.011879,,0
22,2,7,3,0,0,1,,4,S,0,S,18,0.795589,0,0,,0
22,3,3,4,0,0,1,,1,S,0,S,21,0.011495,0.779648,0.008962,,0
22,4,5,4,0,0,1,,1,S,0,S,21,0.78116,0.008808,0.00688,,0
22,5,1,9,0,0,1,,8,L,0,S,13,0.008571,0.759275,0.006507,,0
22,6,4,7,0,0,1,,3,S,0,S,15,0.006699,0.773862,0.005184,,0
22,7,8,6,0,0,1,,2,S,0,S,16,0.760579,0.019338,0.014708,,0
22,8,4,1,0,0,1,,3,S,0,S,17,0.756645,0.024983,0.018903,,0
22,9,3,9,0,0,1,,6,S,0,S,14,0.002175,0.773578,0.001683,,0
22,10,5,8,0,0,1,,3,S,0,S,15,0.018622,0.754865,0.014057,,0
22,11,5,7,0,0,1,,2,S,0,S,17,0.000496,0.784183,0.000389,,0
22,12,5,2,0,0,1,,3,S,0,S,16,0.76416,0.015683,0.011984,,0
22,13,4,5,0,0,1,,1,S,0,S,18,0,0.793719,0,,0
22,14,1,5,0,0,1,,4,S,0,S,16,0.001511,0.784621,0.001186,,0
22,15,1,8,0,0,1,,7,L,0,S,14,0,0.796945,0,,0
22,16,9,3,0,0,1,,6,S,0,S,15,0.761446,0.018919,0.014406,,0
22,17,9,8,0,0,0,,1,S,0,S,19,0.028365,0.756119,0.021447,,L
22,18,7,5,0,0,1,,2,S,0,S,20,0.763997,0.022774,0.0174,,0
22,19,5,6,0,0,0,,1,S,0,S,24,0.767578,0.020064,0.015401,,0
22,20,1,4,0,0,1,,3,S,0,S,17,0.002857,0.785471,0.002244,,0
22,21,3,8,0,0,1,,5,S,0,S,14,0.015752,0.755546,0.011901,,0
22,22,8,5,0,0,1,,3,S,0,S,17,0.785237,0.002607,0.002047,,0
22,23,1,7,0,0,1,,6,S,0,S,14,0.008686,0.765207,0.006646,,0
22,24,6,8,0,0,1,,2,S,0,S,18,0.030659,0.751802,0.02305,,0
22,25,6,2,0,0,1,,4,S,0,S,14,0.765241,0.011335,0.008674,,0
22,26,7,8,0,0,1,,1,S,0,S,16,0.017551,0.760747,0.013352,,0
22,27,5,9,0,0,1,,4,S,0,S,15,0.000148,0.77906,0.000115,,0
22,28,9,1,0,0,1,,8,L,0,S,14,0.788879,0,0,,0
22,29,7,6,0,0,1,,1,S,0,S,19,0.777357,0.010505,0.008166,,0
22,30,3,5,0,0,1,,2,S,0,S,18,0.019277,0.76652,0.014776,,0
22,31,3,1,0,0,1,,2,S,0,S,17,0.770749,0.012401,0.009558,,0
22,32,7,1,0,0,1,,6,S,0,S,15,0.784321,0,0,,0
22,33,5,1,0,0,1,,4,S,0,S,16,0.794208,0,0,,0
22,34,2,7,0,0,1,,5,S,0,S,14,0.017944,0.753253,0.013516,,0
22,35,6,9,0,0,1,,3,S,0,S,17,0.019742,0.763922,0.015081,,0
22,36,2,6,0,0,1,,4,S,0,S,17,0.003399,0.784073,0.002665,,0
22,37,2,3,0,0,1,,1,S,0,S,18,0.002064,0.789267,0.001629,,0
22,38,9,7,0,0,1,,2,S,0,S,24,0.773395,0.017449,0.013495,,0
22,39,2,8,0,0,1,,6,S,0,S,14,0,0.787768,0,,0
22,40,3,7,0,0,1,,4,S,0,S,15,0.015389,0.760943,0.01171,,0
22,41,9,5,0,0,1,,4,S,0,S,16,0.759639,0.02263,0.01719,,0
22,42,4,2,0,0,1,,2,S,0,S,19,0.782414,0.008816,0.006898,,0
22,43,4,8,0,0,1,,4,S,0,S,14,0.009214,0.765758,0.007055,,0
22,44,8,2,0,0,1,,6,S,0,S,14,0.762606,0.011575,0.008827,,0
22,45,9,6,0,0,1,,3,S,0,S,16,0.779696,0.006165,0.004807,,0
22,46,9,4,0,0,1,,5,S,0,S,15,0.752728,0.025133,0.018918,,0
22,47,2,5,0,0,1,,3,S,0,S,16,0.018493,0.763193,0.014114,,0
22,48,2,9,0,0,1,,7,L,0,S,13,0.015157,0.750667,0.011378,,0
22,49,7,9,0,0,1,,2,S,0,S,16,0,0.791964,0,,0
22,50,2,4,0,0,1,,2,S,0,S,17,0.026967,0.755172,0.020365,,0
22,51,4,6,0,0,1,,2,S,0,S,18,0.031624,0.751953,0.02378,,0
22,52,7,4,0,0,1,,3,S,0,S,18,0.779414,0.008439,0.006577,,0
22,53,9,2,0,0,1,,7,L,0,S,14,0.774006,0.004486,0.003472,,0
22,54,2,1,0,0,1,,1,S,0,S,20,0.784161,0.005485,0.004301,,S
22,55,8,1,0,0,1,,7,L,0,S,14,0.778523,0,0,,0
22,56,8,4,0,0,1,,4,S,0,S,16,0.784283,0.001376,0.001079,,0
22,57,1,3,0,0,1,,2,S,0,S,17,0.011022,0.775966,0.008552,,0
22,58,3,2,0,0,1,,1,S,0,S,18,0.760217,0.023843,0.018126,,0
22,59,4,9,0,0,1,,5,S,0,S,14,0,0.782793,0,,0
22,60,6,1,0,0,1,,5,S,0,S,14,0.781272,0,0,,0
22,61,3,6,0,0,1,,3,S,0,S,19,0.023201,0.76219,0.017684,,0
22,62,8,3,0,0,1,,5,S,0,S,16,0.793469,0,0,,0
22,63,4,3,0,0,0,,1,S,0,S,20,0.029239,0.759453,0.022205,,0
22,64,1,6,0,0,1,,5,S,0,S,16,0.018574,0.762097,0.014155,,0
22,65,5,3,0,0,1,,2,S,0,S,20,0.771596,0.016508,0.012738,,0
22,66,6,4,0,0,1,,2,S,0,S,16,0.786643,0.001419,0.001117,,0
22,67,8,9,0,0,1,,1,S,0,S,17,0.025975,0.753412,0.01957,,L
22,68,6,7,0,0,1,,1,S,0,S,30,0.011901,0.781184,0.009297,,0
22,69,8,7,0,0,1,,1,S,0,S,37,0.750922,0.03414,0.025636,,0
22,70,1,2,0,0,1,,1,S,0,S,25,0.036184,0.750275,0.027148,,S
22,71,6,5,0,0,1,,1,S,0,S,17,0.787091,0.003105,0.002444,,0
22,72,6,3,0,0,1,,3,S,0,S,16,0.795887,0,0,,0
23,1,2,9,0,0,1,,7,L,0,S,14,0.002863,0.773173,0.002214,,0
23,2,4,9,0,0,1,,5,S,0,S,16,0.02737,0.752034,0.020583,,0
23,3,4,8,0,0,1,,4,S,0,S,16,0.028305,0.752562,0.021301,,0
23,4,5,4,0,0,1,,1,S,0,S,21,0.768626,0.021016,0.016153,,0
23,5,7,2,0,0,1,,5,S,0,S,15,0.758784,0.021659,0.016435,,0
23,6,1,7,0,0,1,,6,S,0,S,15,0,0.78807,0,,0
23,7,5,7,0,0,1,,2,S,0,S,24,0.00799,0.785351,0.006275,,0
23,8,6,5,0,0,1,,1,S,0,S,18,0.791524,0,0,,0
23,9,6,9,0,0,1,,3,S,0,S,19,0.012432,0.77464,0.00963,,0
23,10,8,6,0,0,1,,2,S,0,S,27,0.775732,0.017044,0.013222,,0
23,11,6,3,0,0,1,,3,S,0,S,19,0.78297,0.005102,0.003995,,0
23,12,1,5,0,0,1,,4,S,0,S,18,0,0.793576,0,,0
23,13,6,2,0,0,1,,4,S,0,S,17,0.790385,0,0,,0
23,14,3,5,0,0,1,,2,S,0,S,23,0.014909,0.774135,0.011541,,0
23,15,3,1,0,0,1,,2,S,0,S,16,0.75873,0.018825,0.014283,,0
23,16,1,8,0,0,1,,7,L,0,S,14,0.022794,0.751308,0.017125,,0
23,17,8,5,0,0,1,,3,S,0,S,16,0.773462,0.010473,0.008101,,0
23,18,4,1,0,0,1,,3,S,0,S,15,0.759584,0.01825,0.013862,,0
23,19,7,5,0,0,1,,2,S,0,S,16,0.777803,0.008047,0.006259,,0
23,20,9,2,0,0,1,,7,L,0,S,14,0.750732,0.024148,0.018129,,0
23,21,5,1,0,0,1,,4,S,0,S,14,0.765805,0.008431,0.006457,,0
23,22,2,3,0,0,1,,1,S,0,S,16,0.001309,0.782253,0.001024,,0
23,23,5,6,0,0,1,,1,S,0,S,22,0.01129,0.780671,0.008814,,0
23,24,6,4,0,0,1,,2,S,0,S,26,0.753926,0.033894,0.025554,,0
23,25,1,9,0,0,1,,8,L,0,S,15,0,0.799745,0,,0
23,26,9,1,0,0,1,,8,L,0,S,13,0.759611,0.009912,0.007529,,0
23,27,2,6,0,0,1,,4,S,0,S,14,0.006606,0.769667,0.005084,,0
23,28,7,8,0,0,1,,1,S,0,S,31,0.035881,0.754363,0.027067,,0
23,29,5,9,0,0,1,,4,S,0,S,21,0.003536,0.788097,0.002787,,0
23,30,4,5,0,0,0,,1,S,0,S,22,0.783197,0.010456,0.008189,,0
23,31,3,2,0,0,1,,1,S,0,S,26,0.787069,0.006805,0.005356,,0
23,32,7,9,0,0,1,,2,S,0,S,28,0.024214,0.766752,0.018566,,0
23,33,8,2,0,0,1,,6,S,0,S,15,0.754891,0.023714,0.017901,,0
23,34,9,8,0,0,1,,1,S,0,S,19,0.772729,0.017678,0.01366,,L
23,35,7,3,0,0,1,,4,S,0,S,17,0.792819,0,0,,0
23,36,8,7,0,0,1,,1,S,0,S,23,0.759741,0.02903,0.022055,,0
23,37,4,6,0,0,1,,2,S,0,S,17,0.001918,0.788408,0.001512,,0
23,38,3,6,0,0,1,,3,S,0,S,16,0.001906,0.782271,0.001491,,0
23,39,1,2,0,0,1,,1,S,0,S,19,0.006984,0.787489,0.0055,,S
23,40,2,4,0,0,1,,2,S,0,S,15,0,0.786455,0,,0
23,41,4,3,0,0,1,,1,S,0,S,49,0.753133,0.034554,0.026024,,0
23,42,5,8,0,0,1,,3,S,0,S,21,0.00951,0.782495,0.007441,,0
23,43,8,9,0,0,1,,1,S,0,S,27,0.0215,0.768571,0.016524,,L
23,44,7,4,0,0,1,,3,S,0,S,19,0.793408,0.001212,0.000961,,0
23,45,2,5,0,0,1,,3,S,0,S,16,0.019684,0.760654,0.014972,,0
23,46,9,5,0,0,1,,4,S,0,S,15,0.778661,0.004749,0.003698,,0
23,47,5,3,0,0,1,,2,S,0,S,18,0.787049,0.001187,0.000934,,0
23,48,9,3,0,0,1,,6,S,0,S,15,0.755565,0.021389,0.01616,,0
23,49,4,7,0,0,1,,3,S,0,S,17,0.013572,0.77362,0.010499,,0
23,50,8,3,0,0,1,,5,S,0,S,17,0.787952,0,0,,0
23,51,3,4,0,0,1,,1,S,0,S,17,0.018349,0.764588,0.01403,,0
23,52,1,6,0,0,1,,5,S,0,S,15,0,0.795315,0,,0
23,53,2,1,0,0,1,,1,S,0,S,22,0.760178,0.025737,0.019565,,S
23,54,3,9,0,0,1,,6,S,0,S,16,0,0.78946,0,,0
23,55,3,8,0,0,1,,5,S,0,S,16,0,0.790709,0,,0
23,56,5,2,0,0,1,,3,S,0,S,16,0.772511,0.012199,0.009424,,0
23,57,9,7,0,0,1,,2,S,0,S,18,0.771292,0.017314,0.013354,,0
23,58,6,1,0,0,1,,5,S,0,S,14,0.75085,0.019501,0.014642,,0
23,59,9,6,0,0,1,,3,S,0,S,19,0.794193,0.000233,0.000185,,0
23,60,7,6,0,0,1,,1,S,0,S,26,0.77542,0.018327,0.014211,,0
23,61,7,1,0,0,1,,6,S,0,S,14,0.785939,0,0,,0
23,62,1,4,0,0,1,,3,S,0,S,15,0.024741,0.754177,0.018659,,0
23,63,2,7,0,0,1,,5,S,0,S,14,0.011215,0.763533,0.008563,,0
23,64,3,7,0,0,1,,4,S,0,S,16,0.010185,0.771586,0.007859,,0
23,65,6,7,0,0,1,,1,S,0,S,20,0.030176,0.754926,0.02278,,0
23,66,2,8,0,0,1,,6,S,0,S,14,0.002873,0.774702,0.002226,,0
23,67,4,2,0,0,1,,2,S,0,S,19,0.767041,0.023064,0.017691,,0
23,68,8,4,0,0,1,,4,S,0,S,19,0.786223,0.005944,0.004674,,0
23,69,6,8,0,0,1,,2,S,0,S,19,0.015358,0.772758,0.011868,,0
23,70,8,1,0,0,1,,7,L,0,S,14,0.783036,0,0,,0
23,71,9,4,0,0,1,,5,S,0,S,16,0.750367,0.030618,0.022975,,0
23,72,1,3,0,0,1,,2,S,0,S,17,0.006334,0.781024,0.004947,,0
24,1,4,8,0,0,1,,4,S,0,S,19,0.002159,0.79237,0.001711,,0
24,2,5,3,0,0,1,,2,S,0,S,22,0.789423,0.003388,0.002675,,0
24,3,8,2,0,0,1,,6,S,0,S,15,0.767761,0.014281,0.010965,,0
24,4,5,7,0,0,1,,2,S,0,S,18,0.004952,0.781943,0.003873,,0
24,5,4,5,0,0,0,,1,S,0,S,18,0.765054,0.022216,0.016997,,0
24,6,1,6,0,0,1,,5,S,0,S,14,0.012791,0.763995,0.009773,,0
24,7,1,7,0,0,1,,6,S,0,S,14,0.014716,0.758309,0.011159,,0
24,8,6,1,0,0,1,,5,S,0,S,14,0.788579,0,0,,0
24,9,3,4,0,0,1,,1,S,0,S,17,0.02918,0.75149,0.021928,,0
24,10,4,2,0,0,1,,2,S,0,S,16,0.766496,0.017863,0.013692,,0
24,11,3,9,0,0,1,,6,S,0,S,14,0,0.792147,0,,0
24,12,9,4,0,0,1,,5,S,0,S,16,0.781209,0.006742,0.005267,,0
24,13,5,8,0,0,1,,3,S,0,S,18,0.001565,0.790533,0.001237,,0
24,14,7,4,0,0,1,,3,S,0,S,19,0.755507,0.030025,0.022684,,0
24,15,6,4,0,0,1,,2,S,0,S,17,0.762417,0.022772,0.017362,,0
24,16,5,6,0,0,1,,1,S,0,S,18,0.001453,0.789791,0.001147,,0
24,17,7,5,0,0,1,,2,S,0,S,18,0.78454,0.005782,0.004536,,0
24,18,3,5,0,0,1,,2,S,0,S,19,0.010013,0.779294,0.007803,,0
24,19,7,6,0,0,0,,1,S,0,S,19,0.026999,0.759379,0.020502,,0
24,20,4,3,0,0,1,,1,S,0,S,19,0.751448,0.032765,0.024621,,0
24,21,9,2,0,0,1,,7,L,0,S,14,0.757748,0.019114,0.014484,,0
24,22,8,9,0,0,1,,1,S,0,S,16,0.012107,0.77135,0.009339,,L
24,23,3,1,0,0,1,,2,S,0,S,17,0.787788,0,0,,0
24,24,3,6,0,0,1,,3,S,0,S,15,0.01064,0.768934,0.008181,,0
24,25,1,2,0,0,1,,1,S,0,S,19,0.008317,0.785027,0.006529,,S
24,26,9,6,0,0,1,,3,S,0,S,20,0.783319,0.01093,0.008562,,0
24,27,5,2,0,0,1,,3,S,0,S,17,0.783275,0.005798,0.004541,,0
24,28,7,1,0,0,1,,6,S,0,S,14,0.763222,0.010776,0.008225,,0
24,29,1,5,0,0,1,,4,S,0,S,16,0.029878,0.750787,0.022432,,0
24,30,2,5,0,0,1,,3,S,0,S,29,0.00629,0.791319,0.004977,,0
24,31,2,3,0,0,1,,1,S,0,S,22,0.010669,0.782469,0.008348,,0
24,32,4,1,0,0,1,,3,S,0,S,14,0.758505,0.015163,0.011501,,0
24,33,8,7,0,0,0,,1,S,0,S,25,0.002321,0.791472,0.001837,,0
24,34,3,7,0,0,1,,4,S,0,S,15,0.013025,0.762554,0.009932,,0
24,35,6,9,0,0,1,,3,S,0,S,16,0.015684,0.76671,0.012025,,0
24,36,1,3,0,0,1,,2,S,0,S,16,0.011854,0.771931,0.00915,,0
24,37,9,7,0,0,1,,2,S,0,S,20,0.772266,0.016932,0.013076,,0
24,38,1,8,0,0,1,,7,L,0,S,14,0.012633,0.76501,0.009664,,0
24,39,6,8,0,0,1,,2,S,0,S,26,0.030634,0.761305,0.023322,,0
24,40,3,8,0,0,1,,5,S,0,S,15,0.010471,0.76999,0.008063,,0
24,41,3,2,0,0,1,,1,S,0,S,33,0.787212,0.007586,0.005972,,0
24,42,2,9,0,0,1,,7,L,0,S,14,0.007802,0.769029,0.006,,0
24,43,9,5,0,0,1,,4,S,0,S,15,0.762498,0.018727,0.014279,,0
24,44,7,2,0,0,1,,5,S,0,S,16,0.776509,0.009133,0.007092,,0
24,45,5,9,0,0,1,,4,S,0,S,15,0,0.78329,0,,0
24,46,1,9,0,0,1,,8,L,0,S,13,0.002029,0.769967,0.001562,,0
24,47,7,9,0,0,1,,2,S,0,S,15,0.018827,0.757771,0.014267,,0
24,48,8,1,0,0,1,,7,L,0,S,14,0.786771,0,0,,0
24,49,8,6,0,0,0,,2,S,0,S,24,0.033582,0.756285,0.025398,,0
24,50,4,6,0,0,1,,2,S,0,S,19,0.001761,0.791971,0.001394,,0
24,51,4,7,0,0,1,,3,S,0,S,19,0.005568,0.783725,0.004364,,0
24,52,1,4,0,0,1,,3,S,0,S,16,0.002068,0.785914,0.001625,,0
24,53,6,3,0,0,1,,3,S,0,S,17,0.774467,0.011905,0.00922,,0
24,54,2,4,0,0,1,,2,S,0,S,20,0.035841,0.751389,0.026931,,0
24,55,8,5,0,0,1,,3,S,0,S,16,0.754066,0.027346,0.02062,,0
24,56,7,8,0,0,1,,1,S,0,S,19,0.027717,0.759413,0.021048,,0
24,57,2,8,0,0,1,,6,S,0,S,16,0.013568,0.772742,0.010485,,0
24,58,9,3,0,0,1,,6,S,0,S,16,0.788189,0,0,,0
24,59,6,5,0,0,1,,1,S,0,S,16,0.758889,0.023482,0.01782,,0
24,60,7,3,0,0,1,,4,S,0,S,19,0.779773,0.009279,0.007236,,0
24,61,5,1,0,0,1,,4,S,0,S,15,0.792096,0,0,,0
24,62,9,1,0,0,1,,8,L,0,S,13,0.760914,0.009548,0.007265,,0
24,63,6,2,0,0,1,,4,S,0,S,15,0.770883,0.011768,0.009072,,0
24,64,4,9,0,0,1,,5,S,0,S,15,0.010965,0.768918,0.008431,,0
24,65,2,7,0,0,1,,5,S,0,S,16,0.016348,0.764961,0.012505,,0
24,66,8,3,0,0,1,,5,S,0,S,17,0.768677,0.016569,0.012737,,0
24,67,9,8,0,0,1,,1,S,0,S,20,0.788524,0.007453,0.005877,,L
24,68,2,6,0,0,1,,4,S,0,S,16,0.013634,0.771798,0.010523,,0
24,69,5,4,0,0,1,,1,S,0,S,23,0.764776,0.025075,0.019177,,0
24,70,6,7,0,0,1,,1,S,0,S,26,0.021027,0.768453,0.016159,,0
24,71,8,4,0,0,1,,4,S,0,S,17,0.755873,0.028024,0.021183,,0
24,72,2,1,0,0,1,,1,S,0,S,15,0.757572,0.020192,0.015297,,S
25,1,8,3,0,0,1,,5,S,0,S,16,0.755221,0.0248,0.018729,,0
25,2,4,9,0,0,1,,5,S,0,S,16,0.011515,0.772438,0.008894,,0
25,3,4,3,0,0,1,,1,S,0,S,19,0.780295,0.006658,0.005195,,0
25,4,3,5,0,0,1,,2,S,0,S,20,0.010812,0.780895,0.008443,,0
25,5,8,7,0,0,0,,1,S,0,S,17,0.027166,0.756788,0.020559,,0
25,6,6,7,0,0,1,,1,S,0,S,18,0.019469,0.766151,0.014916,,0
25,7,3,9,0,0,1,,6,S,0,S,16,0.002278,0.785851,0.00179,,0
25,8,8,1,0,0,1,,7,L,0,S,15,0.756777,0.02168,0.016407,,0
25,9,2,7,0,0,1,,5,S,0,S,15,0,0.791943,0,,0
25,10,9,4,0,0,1,,5,S,0,S,15,0.759751,0.016013,0.012166,,0
25,11,9,2,0,0,1,,7,L,0,S,14,0.764975,0.008821,0.006748,,0
25,12,9,1,0,0,1,,8,L,0,S,14,0.795645,0,0,,0
25,13,2,1,0,0,1,,1,S,0,S,21,0.779211,0.009781,0.007621,,S
25,14,2,3,0,0,1,,1,S,0,S,25,0.001439,0.789673,0.001136,,0
25,15,3,6,0,0,1,,3,S,0,S,19,0.025031,0.760267,0.01903,,0
25,16,4,1,0,0,1,,3,S,0,S,17,0.776505,0.008111,0.006298,,0
25,17,6,3,0,0,1,,3,S,0,S,16,0.769548,0.011745,0.009039,,0
25,18,1,3,0,0,1,,2,S,0,S,17,0.019868,0.762967,0.015159,,0
25,19,4,6,0,0,1,,2,S,0,S,20,0.016795,0.769808,0.012929,,0
25,20,3,4,0,0,1,,1,S,0,S,21,0.005249,0.784916,0.00412,,0
25,21,3,1,0,0,1,,2,S,0,S,17,0.766934,0.0171,0.013115,,0
25,22,8,2,0,0,1,,6,S,0,S,17,0.790142,0,0,,0
25,23,1,7,0,0,1,,6,S,0,S,14,0,0.794915,0,,0
25,24,7,1,0,0,1,,6,S,0,S,14,0.76529,0.010058,0.007697,,0
25,25,8,6,0,0,1,,2,S,0,S,23,0.791121,0.004354,0.003444,,0
25,26,7,6,0,0,1,,1,S,0,S,17,0.776931,0.009256,0.007191,,0
25,27,5,3,0,0,1,,2,S,0,S,17,0.771068,0.014751,0.011374,,0
25,28,7,9,0,0,0,,2,S,0,S,25,0.787799,0.008624,0.006794,,0
25,29,7,5,0,0,1,,2,S,0,S,17,0.792895,0,0,,0
25,30,3,8,0,0,1,,5,S,0,S,15,0,0.786747,0,,0
25,31,8,9,0,0,1,,1,S,0,S,18,0.007113,0.786392,0.005594,,L
25,32,7,2,0,0,1,,5,S,0,S,15,0.776174,0.004187,0.00325,,0
25,33,9,5,0,0,1,,4,S,0,S,15,0.760064,0.018399,0.013985,,0
25,34,6,4,0,0,1,,2,S,0,S,19,0.755636,0.026911,0.020335,,0
25,35,3,2,0,0,1,,1,S,0,S,20,0.775125,0.012988,0.010067,,0
25,36,1,8,0,0,1,,7,L,0,S,13,0.005003,0.76531,0.003828,,0
25,37,5,2,0,0,1,,3,S,0,S,17,0.755692,0.026779,0.020237,,0
25,38,6,9,0,0,1,,3,S,0,S,19,0.004137,0.789208,0.003265,,0
25,39,6,8,0,0,1,,2,S,0,S,16,0.022783,0.755746,0.017218,,0
25,40,1,9,0,0,1,,8,L,0,S,14,0,0.792737,0,,0
25,41,1,6,0,0,1,,5,S,0,S,15,0.002374,0.780186,0.001852,,0
25,42,2,9,0,0,1,,7,L,0,S,15,0,0.787908,0,,0
25,43,9,6,0,0,1,,3,S,0,S,16,0.796832,0,0,,0
25,44,5,9,0,0,1,,4,S,0,S,17,0.009909,0.781263,0.007742,,0
25,45,2,6,0,0,1,,4,S,0,S,17,0,0.786864,0,,0
25,46,6,1,0,0,1,,5,S,0,S,15,0.766525,0.01234,0.009459,,0
25,47,8,5,0,0,1,,3,S,0,S,21,0.767205,0.024249,0.018604,,0
25,48,2,4,0,0,1,,2,S,0,S,17,0.0199,0.759197,0.015108,,0
25,49,5,7,0,0,1,,2,S,0,S,17,0,0.793283,0,,0
25,50,4,5,0,0,1,,1,S,0,S,21,0.008512,0.782683,0.006662,,0
25,51,3,7,0,0,1,,4,S,0,S,16,0,0.793005,0,,0
25,52,1,2,0,0,1,,1,S,0,S,17,0.008988,0.776565,0.00698,,S
25,53,6,2,0,0,1,,4,S,0,S,16,0.758701,0.020113,0.01526,,0
25,54,5,6,0,0,1,,1,S,0,S,27,0.02592,0.765859,0.019851,,0
25,55,9,3,0,0,1,,6,S,0,S,14,0.770512,0.004686,0.003611,,0
25,56,4,2,0,0,1,,2,S,0,S,19,0.754892,0.026724,0.020174,,0
25,57,8,4,0,0,1,,4,S,0,S,21,0.792865,0.000558,0.000442,,0
25,58,9,8,0,0,1,,1,S,0,S,29,0.760735,0.026958,0.020508,,L
25,59,2,5,0,0,1,,3,S,0,S,17,0.007404,0.778587,0.005765,,0
25,60,7,8,0,0,1,,1,S,0,S,19,0.012377,0.775579,0.009599,,0
25,61,1,4,0,0,1,,3,S,0,S,15,0.013802,0.763778,0.010541,,0
25,62,4,7,0,0,1,,3,S,0,S,16,0.003401,0.780436,0.002655,,0
25,63,5,1,0,0,1,,4,S,0,S,16,0.783378,0.003902,0.003057,,0
25,64,6,5,0,0,1,,1,S,0,S,20,0.786435,0.006102,0.004799,,0
25,65,5,4,0,0,1,,1,S,0,S,24,0.75708,0.030858,0.023362,,0
25,66,5,8,0,0,1,,3,S,0,S,15,0.023017,0.754482,0.017366,,0
25,67,2,8,0,0,1,,6,S,0,S,14,0.001799,0.773022,0.00139,,0
25,68,1,5,0,0,1,,4,S,0,S,15,0.006511,0.776454,0.005055,,0
25,69,4,8,0,0,1,,4,S,0,S,15,0.002527,0.776812,0.001963,,0
25,70,7,3,0,0,1,,4,S,0,S,15,0.783245,0,0,,0
25,71,7,4,0,0,1,,3,S,0,S,17,0.79466,0,0,,0
25,72,9,7,0,0,1,,2,S,0,S,19,0.779365,0.010006,0.007798,,0
26,1,4,7,0,0,1,,3,S,0,S,15,0,0.791437,0,,0
26,2,2,3,0,0,1,,1,S,0,S,24,0.002434,0.794106,0.001933,,0
26,3,9,6,0,0,1,,3,S,0,S,14,0.768629,0.00662,0.005089,,0
26,4,4,9,0,0,1,,5,S,0,S,15,0,0.79266,0,,0
26,5,7,6,0,0,1,,1,S,0,S,20,0.756127,0.026942,0.020372,,0
26,6,7,4,0,0,1,,3,S,0,S,17,0.776986,0.007521,0.005844,,0
26,7,8,9,0,0,1,,1,S,0,S,31,0.008899,0.784289,0.006979,,L
26,8,6,7,0,0,1,,1,S,0,S,21,0.009203,0.782575,0.007202,,0
26,9,8,3,0,0,1,,5,S,0,S,14,0.774855,0.004178,0.003237,,0
26,10,6,9,0,0,1,,3,S,0,S,20,0.028002,0.756989,0.021197,,0
26,11,9,1,0,0,1,,8,L,0,S,12,0.769707,0,0,,0
26,12,7,3,0,0,1,,4,S,0,S,17,0.772501,0.012276,0.009483,,0
26,13,3,7,0,0,1,,4,S,0,S,14,0,0.800723,0,,0
26,14,8,2,0,0,1,,6,S,0,S,13,0.77255,0,0,,0
26,15,1,2,0,0,1,,1,S,0,S,20,0.02045,0.762991,0.015603,,S
26,16,8,7,0,0,1,,1,S,0,S,29,0.786738,0.007916,0.006228,,0
26,17,8,5,0,0,1,,3,S,0,S,14,0.750429,0.023505,0.017639,,0
26,18,3,2,0,0,1,,1,S,0,S,18,0.751319,0.032266,0.024242,,0
26,19,8,4,0,0,1,,4,S,0,S,14,0.775425,0.002683,0.002081,,0
26,20,2,1,0,0,1,,1,S,0,S,15,0.781863,0.000374,0.000292,,S
26,21,2,9,0,0,1,,7,L,0,S,14,0,0.778631,0,,0
26,22,1,5,0,0,1,,4,S,0,S,15,0.002877,0.778498,0.00224,,0
26,23,2,8,0,0,1,,6,S,0,S,15,0,0.794272,0,,0
26,24,6,5,0,0,1,,1,S,0,S,15,0.77374,0.008865,0.00686,,0
26,25,5,1,0,0,1,,4,S,0,S,14,0.754143,0.017538,0.013226,,0
26,26,7,5,0,0,1,,2,S,0,S,19,0.786875,0.004017,0.003161,,0
26,27,3,4,0,0,1,,1,S,0,S,19,0.030035,0.757171,0.022742,,0
26,28,2,4,0,0,1,,2,S,0,S,25,0.031712,0.756529,0.023991,,0
26,29,1,7,0,0,1,,6,S,0,S,13,0,0.783558,0,,0
26,30,1,6,0,0,1,,5,S,0,S,15,0,0.788204,0,,0
26,31,9,8,0,0,1,,1,S,0,S,16,0.751852,0.026844,0.020183,,L
