ANN,trial,N1,N2,P1,P2,Succ.,Cong,Ndist,Ndist,Pdist,Pdist,rt,a1,a2,x_acc
1,1,2,1,1,9,1,I,1,S,8,L,14,0.721302,0.644423,0.464823
1,2,2,1,9,1,1,C,1,S,8,L,7,0.758223,0.227872,0.172778
1,3,2,8,8,9,1,C,6,S,1,S,8,0.258676,0.800371,0.207037
1,4,9,1,2,8,1,I,8,L,6,S,9,0.753039,0.450973,0.3396
1,5,2,1,8,1,1,C,1,S,7,L,7,0.753334,0.232127,0.174869
1,6,2,9,8,1,1,I,7,L,7,L,10,0.537677,0.713874,0.383834
1,7,2,8,2,1,1,I,6,S,1,S,8,0.369503,0.700245,0.258742
1,8,8,2,2,9,1,I,6,S,7,L,10,0.733098,0.513348,0.376334
1,9,8,9,1,8,1,C,1,S,7,L,8,0.301216,0.746262,0.224786
1,10,9,8,2,1,1,C,1,S,1,S,10,0.7696,0.34657,0.26672
1,11,1,8,8,1,1,I,7,L,7,L,9,0.488675,0.717372,0.350562
1,12,2,9,2,1,1,I,7,L,1,S,9,0.38353,0.760225,0.291569
1,13,1,8,1,9,1,C,7,L,8,L,6,0.166573,0.760025,0.1266
1,14,9,2,8,2,1,C,7,L,6,S,6,0.708926,0.201986,0.143193
1,15,8,2,8,2,1,C,6,S,6,S,7,0.828179,0.18444,0.152749
1,16,8,9,9,1,0,I,1,S,8,L,9,0.746304,0.362096,0.270234
1,17,9,1,9,1,1,C,8,L,8,L,6,0.768711,0.161991,0.124525
1,18,8,1,2,8,1,I,7,L,6,S,9,0.733338,0.463176,0.339664
1,19,1,9,8,9,1,C,8,L,1,S,7,0.252466,0.739792,0.186772
1,20,9,2,1,9,1,I,7,L,8,L,10,0.735737,0.530323,0.390179
1,21,9,1,9,2,1,C,8,L,7,L,6,0.746684,0.176291,0.131634
1,22,8,9,9,8,1,I,1,S,1,S,16,0.547827,0.714021,0.39116
1,23,8,9,8,9,1,C,1,S,1,S,11,0.426298,0.700215,0.2985
1,24,9,8,2,8,0,I,1,S,6,S,9,0.39996,0.700994,0.28037
1,25,8,2,2,8,1,I,6,S,6,S,10,0.736665,0.508299,0.374447
1,26,9,1,9,8,1,C,8,L,1,S,7,0.752373,0.244708,0.184112
1,27,9,2,1,8,1,I,7,L,7,L,10,0.738074,0.526974,0.388946
1,28,1,8,9,1,1,I,7,L,8,L,9,0.493727,0.712889,0.351973
1,29,1,8,8,9,1,C,7,L,1,S,7,0.250584,0.74171,0.18586
1,30,8,2,8,9,1,I,6,S,1,S,8,0.753542,0.307331,0.231587
1,31,9,2,9,1,1,C,7,L,8,L,6,0.736824,0.182577,0.134527
1,32,2,9,1,2,1,C,7,L,1,S,7,0.228843,0.75748,0.173344
1,33,1,8,9,8,1,I,7,L,1,S,7,0.277075,0.712647,0.197457
1,34,1,9,8,1,1,I,8,L,7,L,9,0.490607,0.715432,0.350996
1,35,1,2,9,8,1,I,1,S,1,S,10,0.403293,0.717936,0.289539
1,36,2,8,2,9,1,C,6,S,7,L,7,0.178372,0.833812,0.148729
1,37,1,2,2,1,1,I,1,S,1,S,12,0.54236,0.704709,0.382206
1,38,9,1,8,2,1,C,8,L,6,S,6,0.740814,0.1814,0.134384
1,39,2,8,8,2,1,I,6,S,6,S,10,0.505787,0.737555,0.373046
1,40,2,1,1,8,1,I,1,S,7,L,14,0.723482,0.641469,0.464091
1,41,8,1,1,8,1,I,7,L,7,L,9,0.708575,0.4995,0.353933
1,42,8,2,9,2,1,C,6,S,7,L,7,0.834967,0.178712,0.149218
1,43,8,2,1,8,1,I,6,S,7,L,10,0.711404,0.544441,0.387318
1,44,8,9,8,1,0,I,1,S,7,L,9,0.741252,0.366578,0.271727
1,45,9,8,8,1,1,C,1,S,7,L,8,0.747918,0.298306,0.223108
1,46,1,2,2,8,1,C,1,S,6,S,8,0.249699,0.803271,0.200576
1,47,9,1,1,2,1,I,8,L,1,S,8,0.748212,0.352165,0.263494
1,48,8,2,1,9,1,I,6,S,8,L,10,0.709067,0.547791,0.38842
1,49,1,2,8,2,1,I,1,S,6,S,15,0.649059,0.717384,0.465625
1,50,9,1,1,8,1,I,8,L,7,L,9,0.728276,0.487297,0.354887
1,51,1,2,9,1,1,I,1,S,8,L,16,0.666873,0.72255,0.481849
1,52,9,2,2,1,1,C,7,L,1,S,7,0.767653,0.225493,0.173101
1,53,1,2,1,9,1,C,1,S,8,L,7,0.252094,0.728823,0.183732
1,54,2,9,8,2,1,I,7,L,6,S,10,0.508608,0.734537,0.373591
1,55,8,1,1,2,1,I,7,L,1,S,8,0.728811,0.363784,0.26513
1,56,2,8,9,2,1,I,6,S,7,L,10,0.513068,0.731254,0.375183
1,57,1,2,1,8,1,C,1,S,7,L,7,0.254168,0.725618,0.184429
1,58,9,8,1,2,0,I,1,S,1,S,12,0.503957,0.705072,0.355326
1,59,2,9,2,9,1,C,7,L,7,L,7,0.180999,0.83095,0.150401
1,60,2,8,9,8,1,I,6,S,1,S,8,0.298202,0.757797,0.225977
1,61,1,9,9,8,1,I,8,L,1,S,7,0.278957,0.710728,0.198263
1,62,8,1,9,1,1,C,7,L,8,L,6,0.751861,0.171379,0.128853
1,63,8,1,8,9,1,I,7,L,1,S,7,0.707352,0.284468,0.201219
1,64,1,8,9,2,1,I,7,L,7,L,9,0.466872,0.731339,0.341442
1,65,1,9,1,9,1,C,8,L,8,L,6,0.168334,0.758268,0.127643
1,66,8,9,8,2,0,I,1,S,6,S,9,0.712051,0.386834,0.275446
1,67,9,8,9,2,1,C,1,S,7,L,8,0.726649,0.311518,0.226364
1,68,2,8,8,1,1,I,6,S,7,L,10,0.534857,0.716893,0.383435
1,69,8,2,2,1,1,C,6,S,1,S,7,0.743445,0.239969,0.178404
1,70,8,2,1,2,1,I,6,S,1,S,9,0.746014,0.407957,0.304342
1,71,9,1,1,9,1,I,8,L,8,L,9,0.725971,0.490679,0.356219
1,72,1,2,9,2,1,I,1,S,7,L,15,0.654421,0.712255,0.466115
1,73,9,8,9,1,1,C,1,S,8,L,8,0.752987,0.293873,0.221283
1,74,1,2,2,9,1,C,1,S,7,L,8,0.246397,0.808176,0.199132
1,75,2,8,1,9,1,C,6,S,8,L,6,0.190516,0.721236,0.137407
1,76,2,1,1,2,1,I,1,S,1,S,11,0.70978,0.518209,0.367814
1,77,2,9,9,1,1,I,7,L,8,L,10,0.542583,0.709438,0.384929
1,78,8,9,9,2,0,I,1,S,7,L,9,0.719449,0.380546,0.273783
1,79,1,9,2,9,1,C,8,L,7,L,6,0.186649,0.729622,0.136184
1,80,1,9,8,2,1,I,8,L,6,S,9,0.461406,0.735688,0.339451
1,81,2,1,8,9,1,I,1,S,1,S,9,0.705509,0.380969,0.268777
1,82,1,8,2,9,1,C,7,L,7,L,6,0.184888,0.731379,0.135223
1,83,9,2,9,2,1,C,7,L,7,L,6,0.714797,0.196877,0.140727
1,84,2,9,9,2,1,I,7,L,7,L,10,0.515888,0.728235,0.375688
1,85,9,2,8,9,1,I,7,L,1,S,8,0.779465,0.291353,0.227099
1,86,8,1,8,1,1,C,7,L,7,L,6,0.747429,0.175298,0.131023
1,87,2,1,8,2,1,C,1,S,6,S,7,0.7266,0.249885,0.181567
1,88,1,8,8,2,1,I,7,L,6,S,9,0.459474,0.737628,0.338921
1,89,2,8,9,1,1,I,6,S,8,L,10,0.539762,0.712457,0.384558
1,90,8,2,9,1,1,C,6,S,8,L,6,0.715605,0.194978,0.139527
1,91,9,1,2,1,1,C,8,L,1,S,7,0.802901,0.202366,0.16248
1,92,9,8,9,8,1,C,1,S,1,S,11,0.707657,0.418277,0.295997
1,93,8,9,2,1,0,I,1,S,1,S,12,0.701891,0.490671,0.344398
1,94,2,9,1,9,1,C,7,L,8,L,6,0.192884,0.718756,0.138637
1,95,2,9,9,8,1,I,7,L,1,S,8,0.30098,0.754745,0.227163
1,96,2,8,1,8,1,C,6,S,7,L,6,0.192366,0.718321,0.138181
1,97,9,1,8,1,1,C,8,L,7,L,6,0.764279,0.165911,0.126802
1,98,2,1,2,9,1,I,1,S,7,L,13,0.714312,0.617254,0.440912
1,99,8,9,1,2,1,C,1,S,1,S,9,0.365526,0.704463,0.257499
1,100,8,9,1,9,1,C,1,S,8,L,8,0.298995,0.749608,0.224129
1,101,9,1,2,9,1,I,8,L,7,L,9,0.749556,0.456025,0.341817
1,102,9,8,1,9,0,I,1,S,8,L,9,0.372893,0.7407,0.276202
1,103,2,8,1,2,1,C,6,S,1,S,7,0.226216,0.760343,0.172001
1,104,1,8,1,2,1,C,7,L,1,S,7,0.198746,0.804115,0.159815
1,105,2,8,2,8,1,C,6,S,6,S,7,0.181382,0.829264,0.150413
1,106,1,9,2,8,1,C,8,L,6,S,6,0.189245,0.72569,0.137334
1,107,1,9,9,2,1,I,8,L,7,L,9,0.468804,0.729399,0.341945
1,108,9,8,8,2,1,C,1,S,6,S,8,0.719381,0.317629,0.228496
1,109,1,9,1,8,1,C,8,L,7,L,6,0.170185,0.755353,0.12855
1,110,1,8,1,8,1,C,7,L,7,L,6,0.168424,0.75711,0.127515
1,111,2,9,1,8,1,C,7,L,7,L,6,0.194735,0.715841,0.139399
1,112,1,8,2,8,1,C,7,L,6,S,6,0.187484,0.727448,0.136385
1,113,1,2,1,2,1,C,1,S,1,S,8,0.301558,0.723965,0.218317
1,114,2,1,2,8,1,I,1,S,6,S,13,0.717754,0.612662,0.439741
1,115,2,1,2,1,1,C,1,S,1,S,8,0.74808,0.282704,0.211485
1,116,1,9,1,2,1,C,8,L,1,S,7,0.200628,0.802196,0.160943
1,117,9,2,2,8,1,I,7,L,6,S,9,0.715684,0.476735,0.341192
1,118,9,2,8,1,1,C,7,L,7,L,6,0.732392,0.186496,0.136588
1,119,8,2,9,8,1,C,6,S,1,S,8,0.793068,0.264757,0.20997
1,120,9,8,2,9,0,I,1,S,7,L,9,0.396478,0.706046,0.279932
1,121,2,9,2,8,1,C,7,L,6,S,7,0.184009,0.826402,0.152065
1,122,9,8,8,9,1,I,1,S,1,S,15,0.71232,0.549048,0.391098
1,123,8,1,9,8,1,C,7,L,1,S,7,0.733844,0.255404,0.187427
1,124,8,1,9,2,1,C,7,L,7,L,6,0.729834,0.185679,0.135515
1,125,8,2,8,1,1,C,6,S,7,L,6,0.711173,0.198897,0.14145
1,126,8,1,2,9,1,I,7,L,7,L,9,0.729856,0.468228,0.341739
1,127,8,1,2,1,1,C,7,L,1,S,7,0.784372,0.213062,0.16712
1,128,8,9,2,8,1,C,1,S,6,S,8,0.324858,0.710678,0.23087
1,129,2,9,8,9,1,C,7,L,1,S,8,0.261454,0.797319,0.208462
1,130,1,9,2,1,1,I,8,L,1,S,8,0.341495,0.744777,0.254337
1,131,8,9,2,9,1,C,1,S,7,L,8,0.321556,0.715584,0.2301
1,132,9,2,9,8,1,C,7,L,1,S,7,0.717126,0.267835,0.192072
1,133,1,8,2,1,1,I,7,L,1,S,8,0.339561,0.746746,0.253565
1,134,9,2,1,2,1,I,7,L,1,S,8,0.711301,0.376977,0.268144
1,135,2,1,9,8,1,C,1,S,1,S,9,0.762392,0.320364,0.244243
1,136,1,2,8,1,1,I,1,S,7,L,16,0.663553,0.725894,0.481669
1,137,9,8,1,8,0,I,1,S,7,L,9,0.375197,0.737318,0.27664
1,138,9,1,8,9,1,I,8,L,1,S,7,0.725881,0.273772,0.198726
1,139,8,1,8,2,1,C,7,L,6,S,6,0.723964,0.190788,0.138123
1,140,1,9,9,1,1,I,8,L,8,L,9,0.495659,0.710949,0.352389
1,141,9,2,2,9,1,I,7,L,7,L,9,0.712202,0.481787,0.34313
1,142,1,2,8,9,1,C,1,S,1,S,9,0.352795,0.718705,0.253556
1,143,8,1,1,9,1,I,7,L,8,L,9,0.706271,0.502882,0.355171
1,144,2,1,9,2,1,C,1,S,7,L,7,0.733388,0.244157,0.179062
2,1,8,2,2,1,1,C,6,S,1,S,7,0.730133,0.247054,0.180382
2,2,8,9,9,1,0,I,1,S,8,L,10,0.723891,0.45397,0.328625
2,3,2,8,2,9,1,C,6,S,7,L,6,0.19966,0.706056,0.140971
2,4,1,9,8,9,1,C,8,L,1,S,7,0.23393,0.760797,0.177973
2,5,8,9,9,2,0,I,1,S,7,L,11,0.7093,0.506194,0.359044
2,6,9,8,9,8,1,C,1,S,1,S,13,0.745591,0.428093,0.319182
2,7,1,2,8,2,1,I,1,S,6,S,15,0.653058,0.703551,0.45946
2,8,9,1,2,8,1,I,8,L,6,S,9,0.739002,0.459169,0.339327
2,9,2,8,2,8,1,C,6,S,6,S,7,0.173852,0.839543,0.145956
2,10,9,1,9,8,1,C,8,L,1,S,7,0.738444,0.255078,0.188361
2,11,8,1,2,8,1,I,7,L,6,S,9,0.719254,0.471046,0.338802
2,12,8,1,8,9,1,I,7,L,1,S,8,0.766129,0.306057,0.234479
2,13,9,8,1,9,0,I,1,S,8,L,8,0.346666,0.702315,0.243469
2,14,9,8,1,2,0,I,1,S,1,S,11,0.444317,0.717503,0.318799
2,15,1,9,1,9,1,C,8,L,8,L,6,0.163562,0.763541,0.124886
2,16,8,2,2,9,1,I,6,S,7,L,10,0.719815,0.524515,0.377553
2,17,8,9,8,9,1,C,1,S,1,S,10,0.33939,0.774694,0.262924
2,18,9,2,8,9,1,I,7,L,1,S,8,0.752178,0.317814,0.239053
2,19,1,2,1,8,1,C,1,S,7,L,7,0.259797,0.712811,0.185186
2,20,8,1,1,8,1,I,7,L,7,L,10,0.746206,0.514859,0.384191
2,21,2,1,9,2,1,C,1,S,7,L,7,0.700005,0.265554,0.185889
2,22,9,8,8,2,1,C,1,S,6,S,9,0.772102,0.323348,0.249658
2,23,8,1,1,2,1,I,7,L,1,S,8,0.716763,0.36798,0.263755
2,24,2,9,1,9,1,C,7,L,8,L,6,0.181152,0.735188,0.133181
2,25,1,9,1,8,1,C,8,L,7,L,6,0.167502,0.756803,0.126766
2,26,1,8,2,9,1,C,7,L,7,L,6,0.181162,0.735658,0.133273
2,27,9,8,2,8,0,I,1,S,6,S,9,0.375014,0.723861,0.271458
2,28,2,8,9,2,1,I,6,S,7,L,10,0.502044,0.744605,0.373825
2,29,2,8,8,1,1,I,6,S,7,L,10,0.528567,0.726325,0.383911
2,30,8,9,2,1,1,I,1,S,1,S,15,0.593462,0.723198,0.429191
2,31,1,9,2,1,1,I,8,L,1,S,8,0.327037,0.756955,0.247552
2,32,9,1,2,1,1,C,8,L,1,S,7,0.78503,0.212158,0.166551
2,33,2,1,2,1,1,C,1,S,1,S,8,0.702179,0.311241,0.218547
2,34,9,2,1,9,1,I,7,L,8,L,10,0.727366,0.534639,0.388878
2,35,2,9,9,2,1,I,7,L,7,L,9,0.481575,0.705449,0.339727
2,36,1,8,8,1,1,I,7,L,7,L,9,0.489918,0.71528,0.350429
2,37,8,9,8,1,0,I,1,S,7,L,10,0.715976,0.458932,0.328585
2,38,1,9,2,8,1,C,8,L,6,S,6,0.182734,0.732625,0.133876
2,39,2,9,9,1,1,I,7,L,8,L,10,0.530539,0.729631,0.387098
2,40,1,8,9,1,1,I,7,L,8,L,9,0.497841,0.710463,0.353698
2,41,2,8,8,2,1,I,6,S,6,S,9,0.476048,0.704227,0.335246
2,42,2,8,2,1,1,I,6,S,1,S,8,0.354284,0.7154,0.253455
2,43,1,8,8,9,1,C,7,L,1,S,7,0.237931,0.754805,0.179592
2,44,2,9,8,1,1,I,7,L,7,L,10,0.522625,0.734593,0.383917
2,45,1,9,8,1,1,I,8,L,7,L,9,0.485491,0.721604,0.350332
2,46,2,1,8,1,1,C,1,S,7,L,7,0.724307,0.250029,0.181098
2,47,8,2,1,2,1,I,6,S,1,S,9,0.73825,0.409948,0.302644
2,48,9,1,1,2,1,I,8,L,1,S,8,0.736123,0.356751,0.262613
2,49,8,1,2,1,1,C,7,L,1,S,7,0.766657,0.222402,0.170506
2,50,8,9,2,9,1,C,1,S,7,L,8,0.27393,0.770531,0.211071
2,51,2,1,2,9,1,I,1,S,7,L,15,0.719121,0.647099,0.465343
2,52,1,2,9,8,1,I,1,S,1,S,10,0.399663,0.714942,0.285736
2,53,1,8,1,2,1,C,7,L,1,S,7,0.199088,0.800947,0.159459
2,54,8,1,2,9,1,I,7,L,7,L,9,0.712266,0.481772,0.34315
2,55,8,9,1,9,1,C,1,S,8,L,8,0.256724,0.796925,0.20459
2,56,1,2,2,1,1,I,1,S,1,S,13,0.543095,0.729105,0.395973
2,57,2,8,1,9,1,C,6,S,8,L,6,0.18564,0.728503,0.135239
2,58,9,2,8,1,1,C,7,L,7,L,6,0.7259,0.189521,0.137574
2,59,9,2,9,8,1,C,7,L,1,S,7,0.706741,0.27651,0.195421
2,60,9,2,1,2,1,I,7,L,1,S,8,0.702812,0.379737,0.266884
2,61,8,1,9,1,1,C,7,L,8,L,6,0.744434,0.175745,0.130831
2,62,2,8,8,9,1,C,6,S,1,S,7,0.25907,0.721503,0.18692
2,63,9,1,9,2,1,C,8,L,7,L,6,0.733048,0.183916,0.134819
2,64,8,2,8,2,1,C,6,S,6,S,7,0.814303,0.190691,0.15528
2,65,8,2,1,8,1,I,6,S,7,L,10,0.706663,0.543317,0.383942
2,66,2,9,1,8,1,C,7,L,7,L,6,0.185092,0.72845,0.134831
2,67,8,9,8,2,0,I,1,S,6,S,12,0.708731,0.544824,0.386133
2,68,2,1,1,2,1,I,1,S,1,S,13,0.730025,0.559903,0.408743
2,69,2,1,1,9,1,I,1,S,8,L,15,0.702464,0.669754,0.470478
2,70,1,8,9,8,1,I,7,L,1,S,7,0.27507,0.715758,0.196883
2,71,8,2,2,8,1,I,6,S,6,S,10,0.727005,0.513779,0.37352
2,72,9,8,9,2,1,C,1,S,7,L,8,0.706093,0.330699,0.233504
2,73,2,8,1,2,1,C,6,S,1,S,7,0.220227,0.767644,0.169056
2,74,2,1,9,1,1,C,1,S,8,L,7,0.731662,0.24588,0.179901
2,75,9,2,2,9,1,I,7,L,7,L,10,0.745692,0.507967,0.378787
2,76,9,1,9,1,1,C,8,L,8,L,6,0.760995,0.166859,0.126979
2,77,1,2,9,2,1,I,1,S,7,L,16,0.654184,0.723521,0.473316
2,78,9,1,1,8,1,I,8,L,7,L,9,0.719098,0.488825,0.351513
2,79,2,1,1,8,1,I,1,S,7,L,15,0.707275,0.662899,0.468852
2,80,9,2,2,1,1,C,7,L,1,S,7,0.753328,0.233589,0.175969
2,81,8,2,8,1,1,C,6,S,7,L,6,0.705703,0.200948,0.14181
2,82,1,9,2,9,1,C,8,L,7,L,6,0.177583,0.741094,0.131605
2,83,2,1,2,8,1,I,1,S,6,S,15,0.725752,0.637958,0.462999
2,84,9,1,8,9,1,I,8,L,1,S,7,0.701305,0.294126,0.206272
2,85,1,2,1,2,1,C,1,S,1,S,8,0.306228,0.711394,0.217849
2,86,2,8,9,8,1,I,6,S,1,S,8,0.287116,0.77415,0.222271
2,87,8,9,9,8,1,I,1,S,1,S,11,0.430515,0.713586,0.307209
2,88,8,2,9,2,1,C,6,S,7,L,7,0.824281,0.184828,0.15235
2,89,2,1,8,2,1,C,1,S,6,S,8,0.803126,0.243959,0.19593
2,90,9,1,1,9,1,I,8,L,8,L,9,0.714035,0.496734,0.354686
2,91,2,9,1,2,1,C,7,L,1,S,7,0.215096,0.775263,0.166756
2,92,9,2,9,2,1,C,7,L,7,L,6,0.704556,0.20299,0.143018
2,93,8,1,8,2,1,C,7,L,6,S,6,0.707988,0.197699,0.139968
2,94,2,1,9,8,1,C,1,S,1,S,9,0.711488,0.356854,0.253897
2,95,1,8,2,8,1,C,7,L,6,S,6,0.186314,0.727189,0.135485
2,96,2,9,9,8,1,I,7,L,1,S,8,0.281544,0.782279,0.220246
2,97,8,2,9,1,1,C,6,S,8,L,6,0.712307,0.19736,0.140581
2,98,8,1,8,1,1,C,7,L,7,L,6,0.737831,0.179334,0.132318
2,99,8,2,1,9,1,I,6,S,8,L,10,0.701489,0.551186,0.386651
2,100,9,1,8,1,1,C,8,L,7,L,6,0.754392,0.170448,0.128584
2,101,1,2,9,1,0,I,1,S,8,L,12,0.704635,0.578059,0.40732
2,102,2,9,8,9,1,C,7,L,1,S,7,0.253939,0.729121,0.185152
2,103,2,1,8,9,1,I,1,S,1,S,11,0.733654,0.450981,0.330864
2,104,2,9,2,9,1,C,7,L,7,L,6,0.195173,0.712741,0.139108
2,105,1,9,9,2,1,I,8,L,7,L,9,0.458899,0.739462,0.339338
2,106,9,1,8,2,1,C,8,L,6,S,6,0.724549,0.188813,0.136804
2,107,2,9,2,8,1,C,7,L,6,S,6,0.200324,0.704272,0.141083
2,108,1,9,9,8,1,I,8,L,1,S,7,0.271069,0.72175,0.195644
2,109,1,2,2,8,1,C,1,S,6,S,8,0.252689,0.793899,0.200609
2,110,8,2,9,8,1,C,6,S,1,S,8,0.780907,0.275043,0.214783
2,111,1,9,1,2,1,C,8,L,1,S,7,0.195088,0.806938,0.157424
2,112,9,2,1,8,1,I,7,L,7,L,10,0.732541,0.52677,0.38588
2,113,1,9,9,1,1,I,8,L,8,L,9,0.493414,0.716787,0.353673
2,114,9,2,8,2,1,C,7,L,6,S,7,0.837497,0.177227,0.148427
2,115,8,9,1,2,1,C,1,S,1,S,9,0.309054,0.769138,0.237705
2,116,9,8,8,1,1,C,1,S,7,L,8,0.732047,0.313729,0.229664
2,117,9,8,2,1,1,C,1,S,1,S,10,0.725039,0.382905,0.277621
2,118,1,2,1,9,1,C,1,S,8,L,7,0.255328,0.720244,0.183899
2,119,1,8,9,2,1,I,7,L,7,L,9,0.463326,0.733139,0.339682
2,120,9,2,2,8,1,I,7,L,6,S,9,0.705254,0.483017,0.34065
2,121,8,1,9,8,1,C,7,L,1,S,7,0.720071,0.265323,0.191051
2,122,9,2,9,1,1,C,7,L,8,L,6,0.732503,0.185933,0.136197
2,123,1,2,8,9,1,C,1,S,1,S,9,0.333735,0.736128,0.245672
2,124,8,9,2,8,1,C,1,S,6,S,8,0.280529,0.760107,0.213232
2,125,2,9,2,1,1,I,7,L,1,S,8,0.348712,0.723529,0.252303
2,126,9,8,9,1,1,C,1,S,8,L,8,0.739811,0.309175,0.228731
2,127,9,8,8,9,1,I,1,S,1,S,20,0.700961,0.659881,0.462551
2,128,2,8,9,1,1,I,6,S,8,L,10,0.536481,0.721362,0.386997
2,129,8,1,1,9,1,I,7,L,8,L,10,0.741032,0.522728,0.387358
2,130,8,9,1,8,1,C,1,S,7,L,8,0.261561,0.789133,0.206406
2,131,8,1,9,2,1,C,7,L,7,L,6,0.716487,0.192802,0.13814
2,132,1,8,1,8,1,C,7,L,7,L,6,0.171082,0.751367,0.128545
2,133,1,2,2,9,1,C,1,S,7,L,8,0.246089,0.804323,0.197935
2,134,1,8,8,2,1,I,7,L,6,S,9,0.451967,0.740229,0.334559
2,135,2,9,8,2,1,I,7,L,6,S,9,0.470216,0.71254,0.335048
2,136,9,1,2,9,1,I,8,L,7,L,9,0.732014,0.469895,0.34397
2,137,9,8,2,9,0,I,1,S,7,L,9,0.368026,0.734587,0.270347
2,138,1,8,1,9,1,C,7,L,8,L,6,0.167142,0.758105,0.126711
2,139,1,9,8,2,1,I,8,L,6,S,9,0.44754,0.746553,0.334112
2,140,1,8,2,1,1,I,7,L,1,S,8,0.331313,0.750695,0.248715
2,141,1,2,8,1,1,I,1,S,7,L,16,0.675545,0.707587,0.478006
2,142,8,2,8,9,1,I,6,S,1,S,8,0.727208,0.332787,0.242006
2,143,9,8,1,8,0,I,1,S,7,L,9,0.35511,0.753516,0.267581
2,144,2,8,1,8,1,C,6,S,7,L,6,0.18958,0.721765,0.136832
3,1,2,9,8,1,1,I,7,L,7,L,10,0.528979,0.730453,0.386394
3,2,1,2,2,9,1,C,1,S,7,L,7,0.262364,0.700348,0.183746
3,3,8,1,9,1,1,C,7,L,8,L,6,0.749022,0.172531,0.12923
3,4,2,1,8,1,1,C,1,S,7,L,7,0.744607,0.236462,0.176071
3,5,2,8,2,8,1,C,6,S,6,S,7,0.185078,0.822956,0.152311
3,6,2,1,1,2,1,I,1,S,1,S,11,0.702642,0.507532,0.356613
3,7,2,9,9,8,1,I,7,L,1,S,8,0.284044,0.780929,0.221818
3,8,2,9,2,8,1,C,7,L,6,S,6,0.201348,0.703414,0.141631
3,9,9,8,8,1,1,C,1,S,7,L,8,0.733942,0.314919,0.231132
3,10,9,1,8,9,1,I,8,L,1,S,7,0.706905,0.284548,0.201148
3,11,9,8,9,2,1,C,1,S,7,L,8,0.725757,0.320686,0.23274
3,12,1,9,8,2,1,I,8,L,6,S,9,0.464693,0.740888,0.344285
3,13,9,1,9,2,1,C,8,L,7,L,6,0.745654,0.176513,0.131618
3,14,9,8,1,9,0,I,1,S,8,L,8,0.339299,0.712714,0.241823
3,15,1,9,2,9,1,C,8,L,7,L,6,0.174035,0.744724,0.129608
3,16,2,9,2,9,1,C,7,L,7,L,6,0.199712,0.70607,0.14101
3,17,9,2,9,1,1,C,7,L,8,L,6,0.731502,0.186074,0.136114
3,18,1,2,8,2,1,I,1,S,6,S,15,0.654204,0.710001,0.464486
3,19,1,8,9,1,1,I,7,L,8,L,9,0.502272,0.706897,0.355054
3,20,9,2,8,9,1,I,7,L,1,S,8,0.762835,0.301005,0.229617
3,21,2,1,8,9,1,I,1,S,1,S,10,0.743199,0.390883,0.290504
3,22,1,8,8,9,1,C,7,L,1,S,7,0.24921,0.740876,0.184633
3,23,1,8,8,1,1,I,7,L,7,L,9,0.494228,0.711731,0.351757
3,24,8,1,8,1,1,C,7,L,7,L,6,0.742233,0.176155,0.130748
3,25,1,9,9,8,1,I,8,L,1,S,7,0.264296,0.73203,0.193472
3,26,8,2,1,9,1,I,6,S,8,L,11,0.740166,0.562278,0.416179
3,27,1,2,1,9,1,C,1,S,8,L,7,0.238685,0.737942,0.176136
3,28,9,1,1,8,1,I,8,L,7,L,9,0.704103,0.50538,0.355839
3,29,9,2,8,1,1,C,7,L,7,L,6,0.724713,0.189699,0.137477
3,30,1,2,1,2,1,C,1,S,1,S,8,0.301579,0.711194,0.214481
3,31,9,8,1,8,0,I,1,S,7,L,8,0.34064,0.710554,0.242043
3,32,2,1,9,2,1,C,1,S,7,L,7,0.736813,0.24185,0.178198
3,33,8,2,8,1,1,C,6,S,7,L,6,0.712463,0.195286,0.139134
3,34,9,1,2,9,1,I,8,L,7,L,9,0.729567,0.467144,0.340813
3,35,2,1,9,1,1,C,1,S,8,L,7,0.752116,0.232285,0.174705
3,36,2,8,9,2,1,I,6,S,7,L,10,0.538828,0.71083,0.383015
3,37,1,8,2,1,1,I,7,L,1,S,8,0.347839,0.737427,0.256506
3,38,8,1,1,2,1,I,7,L,1,S,8,0.72776,0.350913,0.25538
3,39,2,1,1,8,1,I,1,S,7,L,15,0.724848,0.654354,0.474307
3,40,2,1,2,1,1,C,1,S,1,S,8,0.739318,0.284841,0.210588
3,41,9,8,2,8,0,I,1,S,6,S,9,0.369744,0.729778,0.269831
3,42,9,8,2,9,0,I,1,S,7,L,9,0.367509,0.733187,0.269453
3,43,9,8,8,9,1,I,1,S,1,S,20,0.710945,0.635617,0.451889
3,44,8,1,1,9,1,I,7,L,8,L,10,0.736654,0.528231,0.389123
3,45,1,8,9,2,1,I,7,L,7,L,9,0.485944,0.717701,0.348763
3,46,8,9,8,2,0,I,1,S,6,S,12,0.707195,0.563027,0.39817
3,47,8,9,9,1,0,I,1,S,8,L,10,0.70833,0.478633,0.33903
3,48,1,8,2,9,1,C,7,L,7,L,6,0.183374,0.729759,0.133818
3,49,9,1,1,9,1,I,8,L,8,L,9,0.702703,0.507566,0.356668
3,50,9,1,2,8,1,I,8,L,6,S,9,0.731801,0.463735,0.339362
3,51,1,2,2,8,1,C,1,S,6,S,8,0.236857,0.810033,0.191862
3,52,8,1,2,8,1,I,7,L,6,S,9,0.719077,0.470312,0.33819
3,53,8,2,1,2,1,I,6,S,1,S,9,0.75396,0.387168,0.291909
3,54,9,2,8,2,1,C,7,L,6,S,6,0.709943,0.19877,0.141116
3,55,9,8,2,1,1,C,1,S,1,S,10,0.741335,0.373817,0.277123
3,56,1,9,1,8,1,C,8,L,7,L,6,0.154327,0.776465,0.119829
3,57,1,9,8,1,1,I,8,L,7,L,9,0.482577,0.729056,0.351826
3,58,9,1,1,2,1,I,8,L,1,S,8,0.740126,0.344853,0.255235
3,59,1,9,8,9,1,C,8,L,1,S,7,0.238746,0.7573,0.180802
3,60,8,9,2,8,1,C,1,S,6,S,8,0.266677,0.777113,0.207238
3,61,2,1,9,8,1,C,1,S,1,S,9,0.736461,0.3403,0.250618
3,62,1,9,1,9,1,C,8,L,8,L,6,0.15322,0.778361,0.11926
3,63,9,1,9,8,1,C,8,L,1,S,7,0.732454,0.259278,0.189909
3,64,1,8,2,8,1,C,7,L,6,S,6,0.18501,0.727102,0.134521
3,65,9,8,9,1,1,C,1,S,8,L,8,0.741838,0.310345,0.230226
3,66,1,2,9,2,1,I,1,S,7,L,15,0.662627,0.704257,0.46666
3,67,8,9,9,8,1,I,1,S,1,S,11,0.410685,0.743229,0.305233
3,68,8,1,1,8,1,I,7,L,7,L,10,0.738082,0.526059,0.388274
3,69,2,9,9,1,1,I,7,L,8,L,10,0.537012,0.725474,0.389588
3,70,8,1,9,2,1,C,7,L,7,L,6,0.735231,0.180962,0.133049
3,71,9,8,9,8,1,C,1,S,1,S,13,0.733198,0.440097,0.322679
3,72,2,8,1,2,1,C,6,S,1,S,7,0.240475,0.738221,0.177524
3,73,8,1,2,9,1,I,7,L,7,L,9,0.716842,0.473721,0.339583
3,74,1,2,2,1,1,I,1,S,1,S,12,0.542703,0.701636,0.38078
3,75,2,8,9,8,1,I,6,S,1,S,8,0.30076,0.755945,0.227358
3,76,1,2,8,9,1,C,1,S,1,S,9,0.339021,0.727665,0.246693
3,77,8,9,1,2,1,C,1,S,1,S,9,0.304527,0.772559,0.235265
3,78,2,9,1,8,1,C,7,L,7,L,6,0.180004,0.73781,0.132809
3,79,9,2,9,8,1,C,7,L,1,S,7,0.701123,0.279708,0.196109
3,80,9,1,9,1,1,C,8,L,8,L,6,0.759445,0.168083,0.127649
3,81,2,1,8,2,1,C,1,S,6,S,7,0.728031,0.246836,0.179704
3,82,2,9,1,9,1,C,7,L,8,L,6,0.178897,0.739707,0.132331
3,83,1,9,2,8,1,C,8,L,6,S,6,0.175671,0.742068,0.13036
3,84,2,1,1,9,1,I,1,S,8,L,15,0.723519,0.656258,0.474815
3,85,8,2,9,8,1,C,6,S,1,S,8,0.784958,0.271121,0.212818
3,86,8,2,9,2,1,C,6,S,7,L,6,0.70546,0.200092,0.141157
3,87,1,8,9,8,1,I,7,L,1,S,7,0.274759,0.715606,0.19662
3,88,8,1,9,8,1,C,7,L,1,S,7,0.720812,0.26463,0.190749
3,89,1,8,1,9,1,C,7,L,8,L,6,0.162558,0.763396,0.124096
3,90,2,8,8,1,1,I,6,S,7,L,10,0.547015,0.704796,0.385534
3,91,9,2,9,2,1,C,7,L,7,L,6,0.717711,0.194505,0.139598
3,92,9,2,2,1,1,C,7,L,1,S,7,0.760205,0.226465,0.17216
3,93,8,2,2,8,1,I,6,S,6,S,10,0.729627,0.510205,0.37226
3,94,1,8,1,2,1,C,7,L,1,S,7,0.206862,0.787942,0.162995
3,95,2,9,8,9,1,C,7,L,1,S,7,0.267568,0.714386,0.191147
3,96,2,9,1,2,1,C,7,L,1,S,7,0.22522,0.761452,0.171494
3,97,9,2,1,2,1,I,7,L,1,S,8,0.707013,0.366943,0.259434
3,98,1,9,9,2,1,I,8,L,7,L,9,0.474294,0.735027,0.348619
3,99,8,2,8,2,1,C,6,S,6,S,7,0.839602,0.173413,0.145598
3,100,8,2,2,9,1,I,6,S,7,L,10,0.727325,0.513622,0.37357
3,101,2,1,2,9,1,I,1,S,7,L,14,0.721667,0.627671,0.452969
3,102,9,1,8,2,1,C,8,L,6,S,6,0.737886,0.180778,0.133394
3,103,9,2,2,8,1,I,7,L,6,S,10,0.745745,0.501155,0.373734
3,104,2,9,2,1,1,I,7,L,1,S,8,0.367522,0.709524,0.260765
3,105,8,1,2,1,1,C,7,L,1,S,7,0.779895,0.211388,0.16486
3,106,1,2,9,1,1,I,1,S,8,L,16,0.66754,0.720198,0.480761
3,107,1,9,9,1,1,I,8,L,8,L,9,0.490622,0.724222,0.355319
3,108,8,9,8,1,0,I,1,S,7,L,10,0.700298,0.483612,0.338672
3,109,8,9,1,8,1,C,1,S,7,L,7,0.263792,0.71183,0.187775
3,110,8,9,9,2,0,I,1,S,7,L,11,0.708695,0.522804,0.370509
3,111,1,2,1,8,1,C,1,S,7,L,7,0.239931,0.73587,0.176558
3,112,2,8,2,1,1,I,6,S,1,S,9,0.397217,0.746428,0.296494
3,113,2,8,9,1,1,I,6,S,8,L,11,0.563569,0.740245,0.417179
3,114,9,2,1,9,1,I,7,L,8,L,10,0.716023,0.544783,0.390077
3,115,1,9,2,1,1,I,8,L,1,S,8,0.336623,0.754564,0.254004
3,116,9,1,2,1,1,C,8,L,1,S,7,0.791537,0.206035,0.163085
3,117,8,1,8,2,1,C,7,L,6,S,6,0.727463,0.185227,0.134746
3,118,2,9,8,2,1,I,7,L,6,S,10,0.511178,0.742544,0.379572
3,119,1,8,8,2,1,I,7,L,6,S,9,0.476343,0.723562,0.344664
3,120,2,1,2,8,1,I,1,S,6,S,14,0.723859,0.624647,0.452157
3,121,2,8,1,8,1,C,6,S,7,L,6,0.193188,0.71764,0.138639
3,122,8,9,8,9,1,C,1,S,1,S,10,0.348386,0.764847,0.266462
3,123,8,2,9,1,1,C,6,S,8,L,6,0.719251,0.191661,0.137853
3,124,8,9,2,9,1,C,1,S,7,L,8,0.264569,0.780418,0.206475
3,125,8,2,1,8,1,I,6,S,7,L,10,0.701332,0.551662,0.386898
3,126,1,9,1,2,1,C,8,L,1,S,7,0.196398,0.804365,0.157976
3,127,2,8,8,9,1,C,6,S,1,S,8,0.263336,0.793669,0.209002
3,128,1,2,9,8,1,I,1,S,1,S,10,0.382325,0.736301,0.281506
3,129,9,8,1,2,0,I,1,S,1,S,11,0.448592,0.706199,0.316795
3,130,2,8,8,2,1,I,6,S,6,S,10,0.529213,0.716887,0.379386
3,131,8,9,2,1,1,I,1,S,1,S,14,0.592182,0.711735,0.421477
3,132,9,2,1,8,1,I,7,L,7,L,10,0.71745,0.542611,0.389297
3,133,2,8,1,9,1,C,6,S,8,L,6,0.192081,0.719537,0.138209
3,134,8,9,1,9,1,C,1,S,8,L,7,0.262546,0.713902,0.187432
3,135,2,8,2,9,1,C,6,S,7,L,7,0.183169,0.826021,0.151301
3,136,2,9,9,2,1,I,7,L,7,L,10,0.520792,0.736487,0.383557
3,137,1,2,8,1,1,I,1,S,7,L,16,0.660595,0.724833,0.478821
3,138,8,1,8,9,1,I,7,L,1,S,8,0.783582,0.284974,0.223301
3,139,8,2,2,1,1,C,6,S,1,S,7,0.746082,0.23331,0.174068
3,140,8,2,8,9,1,I,6,S,1,S,8,0.747535,0.308845,0.230872
3,141,1,8,1,8,1,C,7,L,7,L,6,0.163666,0.761499,0.124631
3,142,9,1,8,1,1,C,8,L,7,L,6,0.752656,0.171707,0.129236
3,143,9,8,8,2,1,C,1,S,6,S,8,0.716399,0.326199,0.233689
3,144,9,2,2,9,1,I,7,L,7,L,10,0.743443,0.504571,0.37512
4,1,9,2,1,2,1,I,7,L,1,S,8,0.714034,0.371312,0.265129
4,2,8,1,2,1,1,C,7,L,1,S,7,0.791901,0.204134,0.161654
4,3,8,9,2,9,1,C,1,S,7,L,8,0.31776,0.717812,0.228092
4,4,9,8,8,2,1,C,1,S,6,S,8,0.782937,0.264553,0.207128
4,5,1,2,1,9,1,C,1,S,8,L,7,0.227163,0.760337,0.172721
4,6,1,9,8,2,1,I,8,L,6,S,9,0.461298,0.734562,0.338852
4,7,8,2,9,2,1,C,6,S,7,L,6,0.700467,0.204092,0.14296
4,8,8,9,8,9,1,C,1,S,1,S,11,0.392973,0.737032,0.289633
4,9,9,1,8,2,1,C,8,L,6,S,6,0.740642,0.179232,0.132747
4,10,9,2,2,1,1,C,7,L,1,S,7,0.7816,0.214307,0.167502
4,11,8,1,2,8,1,I,7,L,6,S,9,0.723786,0.467446,0.338331
4,12,8,2,2,1,1,C,6,S,1,S,7,0.750623,0.232036,0.174171
4,13,1,2,1,8,1,C,1,S,7,L,7,0.231832,0.752943,0.174556
4,14,9,2,9,1,1,C,7,L,8,L,6,0.74866,0.175229,0.131187
4,15,2,9,9,1,1,I,7,L,8,L,10,0.550439,0.709817,0.390711
4,16,9,1,1,8,1,I,8,L,7,L,9,0.723779,0.490368,0.354918
4,17,9,2,9,2,1,C,7,L,7,L,6,0.727444,0.189092,0.137554
4,18,8,2,2,8,1,I,6,S,6,S,10,0.726284,0.514021,0.373325
4,19,2,8,8,1,1,I,6,S,7,L,10,0.542452,0.707985,0.384048
4,20,1,9,1,9,1,C,8,L,8,L,6,0.161797,0.765819,0.123907
4,21,8,1,8,2,1,C,7,L,6,S,6,0.718976,0.190564,0.137011
4,22,8,9,2,8,1,C,1,S,6,S,8,0.32525,0.706472,0.22978
4,23,1,8,2,9,1,C,7,L,7,L,6,0.184098,0.729335,0.134269
4,24,1,9,2,9,1,C,8,L,7,L,6,0.179802,0.737066,0.132526
4,25,9,2,1,8,1,I,7,L,7,L,10,0.734622,0.530075,0.389405
4,26,1,8,9,2,1,I,7,L,7,L,9,0.489158,0.710752,0.34767
4,27,2,1,9,1,1,C,1,S,8,L,7,0.737764,0.243234,0.179449
4,28,9,2,8,1,1,C,7,L,7,L,6,0.734671,0.183466,0.134787
4,29,8,2,1,9,1,I,6,S,8,L,11,0.735212,0.568068,0.41765
4,30,8,9,9,8,1,I,1,S,1,S,21,0.647715,0.723673,0.468734
4,31,9,1,1,9,1,I,8,L,8,L,9,0.718579,0.498158,0.357965
4,32,1,8,9,1,1,I,7,L,8,L,10,0.52784,0.740203,0.390709
4,33,1,9,9,1,1,I,8,L,8,L,9,0.508178,0.702773,0.357134
4,34,8,9,8,1,0,I,1,S,7,L,9,0.747393,0.356749,0.266632
4,35,2,8,8,9,1,C,6,S,1,S,7,0.266901,0.706932,0.188681
4,36,1,2,9,2,1,I,1,S,7,L,14,0.641893,0.715609,0.459344
4,37,8,9,2,1,0,I,1,S,1,S,11,0.707803,0.450398,0.318793
4,38,1,2,2,1,1,I,1,S,1,S,12,0.534032,0.730904,0.390326
4,39,9,8,8,1,1,C,1,S,7,L,7,0.705627,0.268282,0.189307
4,40,9,2,2,9,1,I,7,L,7,L,9,0.705312,0.489656,0.34536
4,41,1,9,9,8,1,I,8,L,1,S,8,0.30576,0.772076,0.23607
4,42,2,8,2,9,1,C,6,S,7,L,7,0.176932,0.835711,0.147864
4,43,2,9,8,9,1,C,7,L,1,S,7,0.260214,0.71811,0.186863
4,44,9,2,8,9,1,I,7,L,1,S,8,0.758352,0.312042,0.236637
4,45,1,8,2,1,1,I,7,L,1,S,8,0.363958,0.723005,0.263143
4,46,9,1,1,2,1,I,8,L,1,S,8,0.749916,0.346442,0.259803
4,47,2,9,1,8,1,C,7,L,7,L,6,0.188016,0.725969,0.136494
4,48,1,9,1,2,1,C,8,L,1,S,7,0.201254,0.799101,0.160822
4,49,9,1,8,1,1,C,8,L,7,L,6,0.765622,0.162692,0.12456
4,50,1,9,8,9,1,C,8,L,1,S,7,0.235271,0.75525,0.177689
4,51,2,9,2,9,1,C,7,L,7,L,6,0.201855,0.703968,0.1421
4,52,1,8,2,8,1,C,7,L,6,S,6,0.189988,0.720172,0.136824
4,53,1,2,2,8,1,C,1,S,6,S,7,0.254394,0.717777,0.182598
4,54,9,1,2,1,1,C,8,L,1,S,7,0.815863,0.191053,0.155873
4,55,9,8,9,2,1,C,1,S,7,L,8,0.804566,0.250709,0.201712
4,56,2,1,1,9,1,I,1,S,8,L,16,0.714541,0.67609,0.483094
4,57,2,1,2,9,1,I,1,S,7,L,15,0.708853,0.657031,0.465738
4,58,9,8,2,1,1,C,1,S,1,S,8,0.700371,0.318299,0.222927
4,59,9,8,1,8,0,I,1,S,7,L,10,0.48882,0.700247,0.342295
4,60,1,9,8,1,1,I,8,L,7,L,9,0.491905,0.713252,0.350853
4,61,9,2,2,8,1,I,7,L,6,S,9,0.713214,0.477992,0.34091
4,62,9,2,8,2,1,C,7,L,6,S,6,0.709691,0.200006,0.141942
4,63,1,9,2,8,1,C,8,L,6,S,6,0.185693,0.727904,0.135166
4,64,8,1,9,1,1,C,7,L,8,L,6,0.757945,0.165787,0.125657
4,65,9,8,8,9,1,I,1,S,1,S,12,0.726942,0.488405,0.355042
4,66,8,9,9,2,0,I,1,S,7,L,9,0.738975,0.36345,0.268581
4,67,2,1,2,8,1,I,1,S,6,S,15,0.716179,0.647291,0.463577
4,68,1,9,9,2,1,I,8,L,7,L,9,0.483488,0.719953,0.348088
4,69,8,1,1,2,1,I,7,L,1,S,8,0.724705,0.360798,0.261472
4,70,2,1,2,1,1,C,1,S,1,S,8,0.723298,0.298435,0.215857
4,71,2,8,9,8,1,I,6,S,1,S,8,0.340072,0.720762,0.245111
4,72,2,8,9,2,1,I,6,S,7,L,10,0.534198,0.714687,0.381784
4,73,8,9,1,8,1,C,1,S,7,L,8,0.300723,0.743812,0.223681
4,74,2,9,9,2,1,I,7,L,7,L,10,0.526012,0.72721,0.382521
4,75,2,8,1,8,1,C,6,S,7,L,6,0.193698,0.716289,0.138744
4,76,2,8,2,1,1,I,6,S,1,S,9,0.407898,0.741288,0.30237
4,77,9,2,9,8,1,C,7,L,1,S,7,0.741859,0.245794,0.182344
4,78,9,8,9,1,1,C,1,S,8,L,7,0.720989,0.258982,0.186723
4,79,8,9,1,2,1,C,1,S,1,S,10,0.352624,0.762064,0.268722
4,80,2,1,1,2,1,I,1,S,1,S,13,0.723805,0.564503,0.40859
4,81,2,1,8,2,1,C,1,S,6,S,8,0.805864,0.244689,0.197186
4,82,1,9,2,1,1,I,8,L,1,S,8,0.358579,0.732036,0.262492
4,83,9,1,8,9,1,I,8,L,1,S,7,0.709064,0.287814,0.204078
4,84,2,9,2,8,1,C,7,L,6,S,7,0.177071,0.836344,0.148092
4,85,9,8,1,2,1,I,1,S,1,S,14,0.717314,0.594901,0.426731
4,86,1,2,8,9,1,C,1,S,1,S,9,0.297529,0.785959,0.233846
4,87,2,1,8,9,1,I,1,S,1,S,11,0.723664,0.455524,0.329646
4,88,9,1,9,1,1,C,8,L,8,L,6,0.779611,0.154455,0.120415
4,89,1,2,9,8,1,I,1,S,1,S,10,0.440842,0.706484,0.311447
4,90,8,1,9,8,1,C,7,L,1,S,7,0.752161,0.235621,0.177225
4,91,8,2,9,1,1,C,6,S,8,L,6,0.721684,0.190229,0.137285
4,92,8,1,2,9,1,I,7,L,7,L,9,0.715884,0.47911,0.342988
4,93,1,8,8,2,1,I,7,L,6,S,9,0.466969,0.725361,0.338721
4,94,2,1,8,1,1,C,1,S,7,L,7,0.722401,0.252534,0.182431
4,95,9,8,1,9,0,I,1,S,8,L,10,0.483539,0.707968,0.34233
4,96,2,8,1,9,1,C,6,S,8,L,6,0.189532,0.723041,0.137039
4,97,1,8,8,1,1,I,7,L,7,L,9,0.497576,0.704051,0.350319
4,98,1,8,1,2,1,C,7,L,1,S,7,0.206181,0.790524,0.162991
4,99,1,8,1,9,1,C,7,L,8,L,6,0.166093,0.758088,0.125913
4,100,9,1,2,9,1,I,8,L,7,L,9,0.741592,0.463908,0.344031
4,101,8,1,8,9,1,I,7,L,1,S,8,0.769024,0.301528,0.231882
4,102,9,1,2,8,1,I,8,L,6,S,9,0.749494,0.452243,0.338954
4,103,8,1,1,9,1,I,7,L,8,L,10,0.739505,0.527448,0.390051
4,104,8,2,1,8,1,I,6,S,7,L,10,0.700024,0.551975,0.386396
4,105,1,8,9,8,1,I,7,L,1,S,8,0.311139,0.763045,0.237413
4,106,1,8,1,8,1,C,7,L,7,L,6,0.170259,0.751336,0.127922
4,107,9,8,9,8,1,C,1,S,1,S,9,0.734231,0.336375,0.246977
4,108,1,9,1,8,1,C,8,L,7,L,6,0.165964,0.759067,0.125977
4,109,2,9,9,8,1,I,7,L,1,S,8,0.332644,0.732832,0.243773
4,110,1,2,2,9,1,C,1,S,7,L,7,0.247568,0.728323,0.180309
4,111,2,8,2,8,1,C,6,S,6,S,7,0.183758,0.825165,0.15163
4,112,9,1,9,2,1,C,8,L,7,L,6,0.758394,0.168318,0.127651
4,113,1,2,8,2,1,I,1,S,6,S,14,0.622297,0.729817,0.454163
4,114,2,9,1,9,1,C,7,L,8,L,6,0.18385,0.73272,0.134711
4,115,2,1,9,8,1,C,1,S,1,S,9,0.762959,0.312782,0.238639
4,116,8,2,8,9,1,I,6,S,1,S,8,0.724999,0.3318,0.240554
4,117,8,1,1,8,1,I,7,L,7,L,10,0.744787,0.519728,0.387086
4,118,8,2,9,8,1,C,6,S,1,S,7,0.710883,0.263522,0.187333
4,119,8,9,8,2,0,I,1,S,6,S,9,0.716786,0.378059,0.270988
4,120,2,9,8,1,1,I,7,L,7,L,10,0.534266,0.720509,0.384943
4,121,1,8,8,9,1,C,7,L,1,S,7,0.240198,0.746674,0.17935
4,122,8,1,9,2,1,C,7,L,7,L,6,0.736729,0.17965,0.132353
4,123,2,9,2,1,1,I,7,L,1,S,9,0.399982,0.75376,0.301491
4,124,2,8,9,1,1,I,6,S,8,L,11,0.566905,0.737704,0.418209
4,125,9,8,2,8,1,I,1,S,6,S,16,0.710114,0.666536,0.473317
4,126,9,8,2,9,1,I,1,S,7,L,16,0.703083,0.675837,0.47517
4,127,2,9,8,2,1,I,7,L,6,S,10,0.503848,0.742202,0.373957
4,128,8,2,8,2,1,C,6,S,6,S,7,0.822352,0.185602,0.15263
4,129,2,8,8,2,1,I,6,S,6,S,10,0.512034,0.729679,0.373621
4,130,2,8,1,2,1,C,6,S,1,S,7,0.232884,0.750783,0.174845
4,131,8,9,9,1,0,I,1,S,8,L,8,0.705457,0.342162,0.241381
4,132,2,9,1,2,1,C,7,L,1,S,7,0.226197,0.761961,0.172353
4,133,1,2,8,1,1,I,1,S,7,L,14,0.64871,0.709709,0.460395
4,134,1,2,1,2,1,C,1,S,1,S,8,0.28025,0.750475,0.210321
4,135,9,2,1,9,1,I,7,L,8,L,10,0.729341,0.537795,0.392236
4,136,8,9,1,9,1,C,1,S,8,L,8,0.295718,0.751519,0.222238
4,137,2,1,9,2,1,C,1,S,7,L,7,0.714384,0.258737,0.184838
4,138,8,1,8,1,1,C,7,L,7,L,6,0.743957,0.174024,0.129466
4,139,9,1,9,8,1,C,8,L,1,S,7,0.776122,0.22254,0.172718
4,140,2,1,1,8,1,I,1,S,7,L,16,0.7192,0.669682,0.481635
4,141,1,2,9,1,1,I,1,S,8,L,15,0.656106,0.727215,0.47713
4,142,8,2,8,1,1,C,6,S,7,L,6,0.707695,0.198466,0.140453
4,143,8,2,1,2,1,I,6,S,1,S,9,0.741609,0.405472,0.300702
4,144,8,2,2,9,1,I,6,S,7,L,10,0.718183,0.525677,0.377532
5,1,8,2,9,8,1,C,6,S,1,S,8,0.800121,0.257992,0.206425
5,2,1,9,8,9,1,C,8,L,1,S,7,0.2579,0.735925,0.189795
5,3,8,2,2,1,1,C,6,S,1,S,7,0.734472,0.244374,0.179486
5,4,8,1,8,9,1,I,7,L,1,S,7,0.714752,0.273898,0.195769
5,5,8,1,9,8,1,C,7,L,1,S,7,0.735814,0.252226,0.185592
5,6,9,1,1,2,1,I,8,L,1,S,8,0.730709,0.359699,0.262835
5,7,9,1,2,1,1,C,8,L,1,S,7,0.777211,0.216399,0.168188
5,8,2,1,1,9,1,I,1,S,8,L,16,0.724711,0.665271,0.482129
5,9,9,8,9,2,1,C,1,S,7,L,8,0.729133,0.305612,0.222831
5,10,1,8,9,1,1,I,7,L,8,L,10,0.520481,0.745403,0.387968
5,11,9,8,8,2,1,C,1,S,6,S,8,0.726875,0.306253,0.222608
5,12,8,1,2,9,1,I,7,L,7,L,9,0.719348,0.480234,0.345455
5,13,9,1,2,9,1,I,8,L,7,L,9,0.724563,0.476842,0.345502
5,14,2,9,8,1,1,I,7,L,7,L,10,0.532815,0.724272,0.385903
5,15,8,1,1,9,1,I,7,L,8,L,9,0.702484,0.504993,0.354749
5,16,9,2,9,2,1,C,7,L,7,L,7,0.84156,0.174035,0.146461
5,17,1,2,2,9,1,C,1,S,7,L,7,0.261135,0.713776,0.186392
5,18,1,8,2,9,1,C,7,L,7,L,6,0.18506,0.730338,0.135156
5,19,8,2,1,9,1,I,6,S,8,L,10,0.708425,0.547832,0.388097
5,20,1,9,1,2,1,C,8,L,1,S,7,0.195531,0.808047,0.157998
5,21,1,2,2,8,1,C,1,S,6,S,7,0.266655,0.702643,0.187363
5,22,2,9,2,9,1,C,7,L,7,L,6,0.195493,0.712536,0.139296
5,23,1,2,8,1,1,I,1,S,7,L,15,0.670054,0.705843,0.472953
5,24,9,8,1,2,0,I,1,S,1,S,13,0.53851,0.701708,0.377877
5,25,1,9,1,9,1,C,8,L,8,L,6,0.163709,0.765767,0.125363
5,26,2,9,8,2,1,I,7,L,6,S,10,0.500417,0.746594,0.373608
5,27,9,2,9,8,1,C,7,L,1,S,7,0.704344,0.273184,0.192416
5,28,2,8,8,1,1,I,6,S,7,L,10,0.547752,0.701047,0.384
5,29,9,1,9,1,1,C,8,L,8,L,6,0.75809,0.16739,0.126896
5,30,1,2,2,1,1,I,1,S,1,S,12,0.512894,0.73129,0.375074
5,31,1,8,1,8,1,C,7,L,7,L,6,0.175316,0.743101,0.130277
5,32,2,8,2,1,1,I,6,S,1,S,9,0.369884,0.763681,0.282474
5,33,9,8,9,1,1,C,1,S,8,L,8,0.760584,0.284945,0.216725
5,34,9,1,2,8,1,I,8,L,6,S,9,0.731381,0.4644,0.339654
5,35,8,9,2,8,1,C,1,S,6,S,8,0.308977,0.724533,0.223864
5,36,8,9,8,1,0,I,1,S,7,L,9,0.733797,0.375005,0.275177
5,37,9,2,8,1,1,C,7,L,7,L,6,0.724162,0.188716,0.136661
5,38,2,9,1,9,1,C,7,L,8,L,6,0.182214,0.733372,0.133631
5,39,2,1,1,2,1,I,1,S,1,S,13,0.72684,0.562909,0.409145
5,40,1,9,8,1,1,I,8,L,7,L,9,0.49375,0.716582,0.353812
5,41,2,9,9,2,1,I,7,L,7,L,10,0.502889,0.745681,0.374995
5,42,1,8,2,8,1,C,7,L,6,S,6,0.189613,0.720621,0.136639
5,43,8,9,2,1,1,I,1,S,1,S,19,0.642748,0.72061,0.46317
5,44,1,2,1,9,1,C,1,S,8,L,7,0.246123,0.736963,0.181384
5,45,9,8,1,9,0,I,1,S,8,L,9,0.376606,0.733676,0.276307
5,46,8,9,1,9,1,C,1,S,8,L,8,0.286519,0.760928,0.21802
5,47,1,8,8,9,1,C,7,L,1,S,7,0.267172,0.719735,0.192293
5,48,9,1,1,9,1,I,8,L,8,L,9,0.707699,0.501601,0.354982
5,49,1,2,1,2,1,C,1,S,1,S,8,0.294408,0.731667,0.215408
5,50,2,8,1,9,1,C,6,S,8,L,6,0.192507,0.715426,0.137724
5,51,8,2,8,2,1,C,6,S,6,S,7,0.833129,0.178521,0.148731
5,52,1,2,8,9,1,C,1,S,1,S,9,0.36539,0.706636,0.258198
5,53,8,2,1,2,1,I,6,S,1,S,9,0.74609,0.404892,0.302086
5,54,8,1,1,2,1,I,7,L,1,S,8,0.725573,0.362942,0.263341
5,55,8,9,1,8,1,C,1,S,7,L,8,0.291241,0.751469,0.218859
5,56,2,1,8,9,1,I,1,S,1,S,10,0.745899,0.374875,0.279619
5,57,1,8,1,9,1,C,7,L,8,L,6,0.171781,0.751174,0.129038
5,58,2,1,8,2,1,C,1,S,6,S,7,0.700479,0.265212,0.185776
5,59,2,8,9,2,1,I,6,S,7,L,10,0.517825,0.722456,0.374106
5,60,9,2,2,9,1,I,7,L,7,L,10,0.732636,0.51846,0.379842
5,61,1,9,9,1,1,I,8,L,8,L,9,0.495672,0.715998,0.3549
5,62,8,2,9,1,1,C,6,S,8,L,6,0.720147,0.191967,0.138244
5,63,2,1,2,9,1,I,1,S,7,L,15,0.714031,0.653758,0.466803
5,64,8,9,8,2,0,I,1,S,6,S,9,0.701257,0.396856,0.278298
5,65,9,8,8,1,1,C,1,S,7,L,8,0.758746,0.285419,0.216561
5,66,1,8,1,2,1,C,7,L,1,S,7,0.204803,0.791856,0.162175
5,67,8,1,2,1,1,C,7,L,1,S,7,0.772318,0.219398,0.169445
5,68,1,9,8,2,1,I,8,L,6,S,9,0.461209,0.738433,0.340572
5,69,8,1,8,2,1,C,7,L,6,S,6,0.725522,0.186985,0.135662
5,70,2,9,9,1,1,I,7,L,8,L,10,0.534792,0.723597,0.386974
5,71,2,8,8,9,1,C,6,S,1,S,8,0.277236,0.775384,0.214965
5,72,9,2,8,9,1,I,7,L,1,S,8,0.775456,0.285233,0.221186
5,73,9,1,8,2,1,C,8,L,6,S,6,0.729945,0.18434,0.134558
5,74,9,2,2,1,1,C,7,L,1,S,7,0.740848,0.240357,0.178068
5,75,1,8,8,1,1,I,7,L,7,L,10,0.518504,0.746078,0.386845
5,76,1,2,9,8,1,I,1,S,1,S,10,0.407109,0.720375,0.293271
5,77,9,2,8,2,1,C,7,L,6,S,7,0.839506,0.174503,0.146497
5,78,2,9,1,2,1,C,7,L,1,S,7,0.216846,0.771781,0.167357
5,79,1,9,2,9,1,C,8,L,7,L,6,0.176988,0.744931,0.131844
5,80,8,9,9,8,1,I,1,S,1,S,15,0.540864,0.714186,0.386277
5,81,8,1,1,8,1,I,7,L,7,L,9,0.707579,0.495292,0.350458
5,82,2,9,8,9,1,C,7,L,1,S,8,0.263735,0.797734,0.21039
5,83,1,9,9,2,1,I,8,L,7,L,9,0.463601,0.737642,0.341971
5,84,8,1,9,2,1,C,7,L,7,L,6,0.727292,0.186706,0.13579
5,85,9,8,2,1,1,C,1,S,1,S,10,0.758786,0.347729,0.263852
5,86,8,1,8,1,1,C,7,L,7,L,6,0.752138,0.170239,0.128044
5,87,2,1,8,1,1,C,1,S,7,L,7,0.7305,0.246055,0.179743
5,88,2,8,2,8,1,C,6,S,6,S,7,0.18072,0.824803,0.149058
5,89,8,2,2,8,1,I,6,S,6,S,10,0.732744,0.510694,0.374208
5,90,2,8,1,8,1,C,6,S,7,L,6,0.196041,0.707353,0.13867
5,91,9,2,1,8,1,I,7,L,7,L,10,0.720831,0.533261,0.384391
5,92,8,2,8,1,1,C,6,S,7,L,6,0.718618,0.192171,0.138097
5,93,9,2,1,9,1,I,7,L,8,L,10,0.715488,0.543025,0.388528
5,94,9,1,8,1,1,C,8,L,7,L,6,0.756561,0.167594,0.126795
5,95,8,2,1,8,1,I,6,S,7,L,10,0.713768,0.538067,0.384055
5,96,8,2,2,9,1,I,6,S,7,L,10,0.725573,0.523266,0.379668
5,97,2,8,1,2,1,C,6,S,1,S,7,0.228979,0.751081,0.171982
5,98,1,9,1,8,1,C,8,L,7,L,6,0.167244,0.757694,0.12672
5,99,8,9,8,9,1,C,1,S,1,S,12,0.414477,0.739263,0.306407
5,100,1,8,9,8,1,I,7,L,1,S,8,0.282063,0.78741,0.222099
5,101,2,1,9,8,1,C,1,S,1,S,9,0.726254,0.342087,0.248442
5,102,9,2,2,8,1,I,7,L,6,S,10,0.739807,0.505888,0.37426
5,103,9,1,9,2,1,C,8,L,7,L,6,0.731715,0.184061,0.13468
5,104,8,1,2,8,1,I,7,L,6,S,9,0.726166,0.467792,0.339695
5,105,2,1,1,8,1,I,1,S,7,L,15,0.70405,0.66538,0.468461
5,106,2,9,1,8,1,C,7,L,7,L,6,0.185748,0.725299,0.134723
5,107,2,1,9,1,1,C,1,S,8,L,7,0.732212,0.245709,0.179911
5,108,2,1,2,8,1,I,1,S,6,S,15,0.721232,0.642331,0.46327
5,109,1,2,1,8,1,C,1,S,7,L,7,0.250328,0.728012,0.182242
5,110,1,8,8,2,1,I,7,L,6,S,9,0.471892,0.721064,0.340264
5,111,2,8,8,2,1,I,6,S,6,S,10,0.515353,0.723368,0.37279
5,112,1,2,9,1,1,I,1,S,8,L,15,0.672115,0.704927,0.473792
5,113,8,1,9,1,1,C,7,L,8,L,6,0.753667,0.170035,0.12815
5,114,2,8,2,9,1,C,6,S,7,L,7,0.1752,0.835936,0.146456
5,115,2,1,2,1,1,C,1,S,1,S,9,0.796354,0.285113,0.227051
5,116,8,2,8,9,1,I,6,S,1,S,8,0.768598,0.289654,0.222628
5,117,8,9,1,2,1,C,1,S,1,S,9,0.349624,0.717536,0.250868
5,118,8,9,2,9,1,C,1,S,7,L,8,0.302702,0.736536,0.222951
5,119,9,8,1,8,0,I,1,S,7,L,9,0.381701,0.723975,0.276342
5,120,1,2,8,2,1,I,1,S,6,S,15,0.6427,0.726095,0.466661
5,121,9,8,9,8,1,C,1,S,1,S,11,0.733506,0.393591,0.288701
5,122,9,2,1,2,1,I,7,L,1,S,9,0.75315,0.400215,0.301422
5,123,9,8,8,9,1,I,1,S,1,S,13,0.725338,0.459062,0.332975
5,124,2,1,9,2,1,C,1,S,7,L,7,0.702534,0.264744,0.185992
5,125,1,8,9,2,1,I,7,L,7,L,9,0.474283,0.720273,0.341613
5,126,9,8,2,9,0,I,1,S,7,L,9,0.39347,0.708917,0.278937
5,127,8,2,9,2,1,C,6,S,7,L,7,0.835184,0.178053,0.148707
5,128,9,1,8,9,1,I,8,L,1,S,7,0.719645,0.270899,0.194951
5,129,9,8,2,8,0,I,1,S,6,S,10,0.413486,0.736175,0.304398
5,130,1,9,9,8,1,I,8,L,1,S,7,0.278962,0.714254,0.19925
5,131,1,9,2,1,1,I,8,L,1,S,8,0.324141,0.760036,0.246359
5,132,8,9,9,1,0,I,1,S,8,L,9,0.735719,0.374421,0.275468
5,133,1,2,9,2,1,I,1,S,7,L,15,0.645226,0.724898,0.467723
5,134,2,9,9,8,1,I,7,L,1,S,8,0.295257,0.766072,0.226188
5,135,9,1,1,8,1,I,8,L,7,L,9,0.712794,0.4919,0.350624
5,136,2,9,2,8,1,C,7,L,6,S,6,0.200045,0.70282,0.140596
5,137,9,1,9,8,1,C,8,L,1,S,7,0.740707,0.249227,0.184604
5,138,9,2,9,1,1,C,7,L,8,L,6,0.725691,0.188512,0.136802
5,139,2,9,2,1,1,I,7,L,1,S,8,0.347466,0.72165,0.250749
5,140,8,9,9,2,0,I,1,S,7,L,9,0.703648,0.396065,0.27869
5,141,1,9,2,8,1,C,8,L,6,S,6,0.18154,0.735215,0.133471
5,142,2,8,9,8,1,I,6,S,1,S,8,0.308759,0.743723,0.229631
5,143,2,8,9,1,1,I,6,S,8,L,10,0.549729,0.700371,0.385014
5,144,1,8,2,1,1,I,7,L,1,S,8,0.334271,0.742988,0.24836
6,1,9,2,2,8,1,I,7,L,6,S,10,0.733599,0.504037,0.369761
6,2,8,9,8,2,0,I,1,S,6,S,10,0.715877,0.442714,0.316929
6,3,2,8,9,8,1,I,6,S,1,S,8,0.357016,0.707137,0.252459
6,4,1,8,2,8,1,C,7,L,6,S,6,0.194896,0.710589,0.138491
6,5,9,2,9,8,1,C,7,L,1,S,7,0.725501,0.252529,0.18321
6,6,9,2,8,2,1,C,7,L,6,S,7,0.821164,0.18673,0.153336
6,7,2,9,9,1,1,I,7,L,8,L,10,0.54871,0.713435,0.391469
6,8,1,2,9,1,1,I,1,S,8,L,15,0.668599,0.707807,0.473239
6,9,9,1,2,9,1,I,8,L,7,L,9,0.742189,0.456066,0.338487
6,10,2,1,8,2,1,C,1,S,6,S,7,0.72228,0.250952,0.181257
6,11,1,8,9,1,1,I,7,L,8,L,10,0.530642,0.735768,0.39043
6,12,8,9,2,8,1,C,1,S,6,S,8,0.305419,0.729913,0.222929
6,13,2,9,2,8,1,C,7,L,6,S,7,0.179368,0.832641,0.149349
6,14,8,9,1,8,1,C,1,S,7,L,8,0.282587,0.767126,0.21678
6,15,8,1,9,8,1,C,7,L,1,S,7,0.771711,0.222249,0.171512
6,16,9,1,8,2,1,C,8,L,6,S,6,0.731654,0.185216,0.135514
6,17,2,1,1,9,1,I,1,S,8,L,14,0.719199,0.643772,0.463
6,18,1,8,1,8,1,C,7,L,7,L,6,0.177155,0.741032,0.131278
6,19,2,8,9,1,1,I,6,S,8,L,11,0.567176,0.736486,0.417717
6,20,1,2,2,9,1,C,1,S,7,L,7,0.259497,0.705668,0.183118
6,21,9,1,9,1,1,C,8,L,8,L,6,0.773682,0.157891,0.122157
6,22,8,2,2,1,1,C,6,S,1,S,7,0.732221,0.240218,0.175892
6,23,1,9,1,9,1,C,8,L,8,L,6,0.169625,0.75621,0.128272
6,24,2,8,2,8,1,C,6,S,6,S,7,0.187236,0.817326,0.153033
6,25,8,9,2,9,1,C,1,S,7,L,8,0.301011,0.736782,0.221779
6,26,8,2,8,1,1,C,6,S,7,L,7,0.836232,0.174035,0.145534
6,27,8,1,9,1,1,C,7,L,8,L,6,0.764534,0.162195,0.124004
6,28,2,9,8,1,1,I,7,L,7,L,10,0.529999,0.725688,0.384614
6,29,1,8,9,2,1,I,7,L,7,L,9,0.491743,0.707003,0.347664
6,30,8,9,2,1,1,I,1,S,1,S,17,0.647783,0.703287,0.455577
6,31,9,1,8,9,1,I,8,L,1,S,7,0.71808,0.274951,0.197437
6,32,1,9,1,2,1,C,8,L,1,S,7,0.20611,0.79567,0.163995
6,33,8,2,9,2,1,C,6,S,7,L,7,0.830267,0.179821,0.149299
6,34,2,9,1,2,1,C,7,L,1,S,7,0.228581,0.762042,0.174188
6,35,2,1,1,8,1,I,1,S,7,L,14,0.722277,0.639455,0.461863
6,36,8,9,9,2,0,I,1,S,7,L,9,0.70573,0.407087,0.287293
6,37,9,2,2,1,1,C,7,L,1,S,7,0.746665,0.232475,0.173581
6,38,2,1,2,9,1,I,1,S,7,L,13,0.712162,0.614363,0.437526
6,39,2,8,1,2,1,C,6,S,1,S,7,0.236449,0.746727,0.176563
6,40,2,1,9,2,1,C,1,S,7,L,7,0.745827,0.2363,0.176239
6,41,9,8,9,8,1,C,1,S,1,S,10,0.71656,0.38897,0.27872
6,42,2,1,9,1,1,C,1,S,8,L,7,0.769489,0.219926,0.169231
6,43,9,8,9,2,1,C,1,S,7,L,8,0.728106,0.314885,0.22927
6,44,1,9,8,9,1,C,8,L,1,S,7,0.252312,0.737842,0.186166
6,45,1,9,2,1,1,I,8,L,1,S,8,0.351897,0.734721,0.258546
6,46,8,2,8,9,1,I,6,S,1,S,8,0.733477,0.314205,0.230462
6,47,9,1,1,2,1,I,8,L,1,S,8,0.746979,0.347089,0.259268
6,48,8,2,1,2,1,I,6,S,1,S,9,0.732023,0.408904,0.299327
6,49,8,1,1,9,1,I,7,L,8,L,9,0.708544,0.49811,0.352933
6,50,8,9,9,8,1,I,1,S,1,S,16,0.623618,0.704881,0.439576
6,51,8,9,8,9,1,C,1,S,1,S,11,0.382148,0.754272,0.288244
6,52,9,8,1,2,0,I,1,S,1,S,11,0.456603,0.703081,0.321029
6,53,1,8,2,1,1,I,7,L,1,S,8,0.358625,0.721647,0.2588
6,54,1,2,2,1,1,I,1,S,1,S,12,0.534825,0.716138,0.383008
6,55,2,9,2,1,1,I,7,L,1,S,9,0.38893,0.761357,0.296114
6,56,9,2,8,9,1,I,7,L,1,S,8,0.749304,0.305375,0.228819
6,57,2,8,2,1,1,I,6,S,1,S,9,0.398645,0.74411,0.296636
6,58,1,2,8,9,1,C,1,S,1,S,9,0.33594,0.734121,0.24662
6,59,9,1,9,8,1,C,8,L,1,S,7,0.781835,0.217195,0.16981
6,60,1,2,9,8,1,I,1,S,1,S,11,0.486674,0.711981,0.346503
6,61,2,8,9,2,1,I,6,S,7,L,10,0.534325,0.714145,0.381585
6,62,1,2,1,8,1,C,1,S,7,L,7,0.242785,0.734078,0.178223
6,63,9,8,9,1,1,C,1,S,8,L,8,0.752809,0.297451,0.223924
6,64,8,1,2,1,1,C,7,L,1,S,7,0.792875,0.202196,0.160316
6,65,1,9,2,9,1,C,8,L,7,L,6,0.186469,0.727054,0.135573
6,66,2,1,8,9,1,I,1,S,1,S,9,0.704523,0.376457,0.265223
6,67,9,1,1,9,1,I,8,L,8,L,9,0.719463,0.492095,0.354045
6,68,9,1,8,1,1,C,8,L,7,L,6,0.757608,0.167237,0.1267
6,69,2,9,9,8,1,I,7,L,1,S,8,0.348069,0.723737,0.25191
6,70,2,8,2,9,1,C,6,S,7,L,7,0.183263,0.823646,0.150943
6,71,1,8,1,2,1,C,7,L,1,S,7,0.212108,0.783338,0.166152
6,72,1,8,8,2,1,I,7,L,6,S,9,0.465767,0.724051,0.337239
6,73,9,8,1,8,0,I,1,S,7,L,9,0.357421,0.750495,0.268243
6,74,8,1,1,2,1,I,7,L,1,S,8,0.736303,0.352708,0.2597
6,75,9,1,9,2,1,C,8,L,7,L,6,0.752215,0.172609,0.129839
6,76,2,9,8,2,1,I,7,L,6,S,9,0.483774,0.701344,0.339292
6,77,8,2,8,2,1,C,6,S,6,S,7,0.80672,0.194472,0.156884
6,78,2,1,8,1,1,C,1,S,7,L,7,0.751792,0.230515,0.173299
6,79,9,8,2,1,1,C,1,S,1,S,10,0.754909,0.357753,0.270071
6,80,9,2,9,2,1,C,7,L,7,L,6,0.702248,0.203419,0.14285
6,81,9,1,2,1,1,C,8,L,1,S,7,0.803,0.197142,0.158305
6,82,9,8,1,9,0,I,1,S,8,L,9,0.354236,0.755365,0.267578
6,83,9,8,2,9,0,I,1,S,7,L,9,0.376962,0.719335,0.271162
6,84,8,1,8,2,1,C,7,L,6,S,6,0.722505,0.189521,0.13693
6,85,8,9,1,9,1,C,1,S,8,L,8,0.27954,0.771923,0.215784
6,86,9,1,1,8,1,I,8,L,7,L,9,0.722648,0.487226,0.352093
6,87,1,2,2,8,1,C,1,S,6,S,8,0.234794,0.814363,0.191208
6,88,1,2,1,2,1,C,1,S,1,S,8,0.291848,0.731905,0.213605
6,89,1,2,8,2,1,I,1,S,6,S,14,0.63177,0.712555,0.45017
6,90,2,9,2,9,1,C,7,L,7,L,7,0.175395,0.838961,0.147149
6,91,8,1,8,9,1,I,7,L,1,S,7,0.707955,0.280006,0.198231
6,92,2,8,1,9,1,C,6,S,8,L,6,0.195943,0.712992,0.139706
6,93,9,2,1,9,1,I,7,L,8,L,10,0.705353,0.547231,0.385991
6,94,1,2,8,1,1,I,1,S,7,L,15,0.652244,0.719232,0.469115
6,95,1,8,8,1,1,I,7,L,7,L,9,0.497854,0.701002,0.348997
6,96,2,1,1,2,1,I,1,S,1,S,11,0.715169,0.507513,0.362957
6,97,1,9,9,8,1,I,8,L,1,S,8,0.323828,0.759271,0.245873
6,98,8,1,1,8,1,I,7,L,7,L,9,0.711728,0.49324,0.351053
6,99,9,8,2,8,0,I,1,S,6,S,9,0.381654,0.712214,0.27182
6,100,2,8,8,2,1,I,6,S,6,S,10,0.508345,0.731667,0.371939
6,101,9,2,8,1,1,C,7,L,7,L,6,0.707641,0.198046,0.140146
6,102,8,2,9,1,1,C,6,S,8,L,6,0.711421,0.195052,0.138764
6,103,8,2,9,8,1,C,6,S,1,S,7,0.711057,0.260271,0.185067
6,104,8,9,9,1,0,I,1,S,8,L,9,0.730649,0.389097,0.284294
6,105,8,1,2,9,1,I,7,L,7,L,9,0.73127,0.462081,0.337906
6,106,9,8,8,1,1,C,1,S,7,L,8,0.734276,0.308905,0.226821
6,107,8,9,1,2,1,C,1,S,1,S,9,0.343906,0.729779,0.250975
6,108,1,2,9,2,1,I,1,S,7,L,15,0.648301,0.723744,0.469204
6,109,2,8,8,9,1,C,6,S,1,S,8,0.264595,0.789593,0.208922
6,110,8,1,8,1,1,C,7,L,7,L,6,0.74846,0.171541,0.128392
6,111,1,8,8,9,1,C,7,L,1,S,7,0.25831,0.72551,0.187406
6,112,2,8,1,8,1,C,6,S,7,L,6,0.198428,0.708866,0.140659
6,113,1,8,9,8,1,I,7,L,1,S,8,0.330556,0.746196,0.24666
6,114,9,2,1,2,1,I,7,L,1,S,9,0.748573,0.399298,0.298904
6,115,9,2,9,1,1,C,7,L,8,L,6,0.723714,0.1887,0.136565
6,116,8,2,1,9,1,I,6,S,8,L,11,0.729083,0.56614,0.412763
6,117,8,1,2,8,1,I,7,L,6,S,9,0.735962,0.454959,0.334832
6,118,9,2,1,8,1,I,7,L,7,L,10,0.708602,0.542391,0.384339
6,119,2,1,2,8,1,I,1,S,6,S,13,0.716918,0.607768,0.43572
6,120,2,9,8,9,1,C,7,L,1,S,7,0.274783,0.704214,0.193506
6,121,1,9,9,2,1,I,8,L,7,L,9,0.484495,0.720426,0.349043
6,122,8,2,2,9,1,I,6,S,7,L,10,0.711973,0.521292,0.371146
6,123,2,9,1,8,1,C,7,L,7,L,6,0.191946,0.722115,0.138607
6,124,1,9,1,8,1,C,8,L,7,L,6,0.17211,0.752084,0.129441
6,125,9,2,2,9,1,I,7,L,7,L,10,0.728755,0.511193,0.372535
6,126,8,2,1,8,1,I,6,S,7,L,11,0.73234,0.561394,0.411131
6,127,8,1,9,2,1,C,7,L,7,L,6,0.743067,0.176914,0.131459
6,128,1,9,9,1,1,I,8,L,8,L,9,0.509414,0.702437,0.357831
6,129,2,9,1,9,1,C,7,L,8,L,6,0.189462,0.726241,0.137595
6,130,1,8,1,9,1,C,7,L,8,L,6,0.174671,0.745158,0.130157
6,131,9,8,8,9,1,I,1,S,1,S,18,0.720464,0.586801,0.422769
6,132,9,1,2,8,1,I,8,L,6,S,9,0.746881,0.448944,0.335308
6,133,2,1,9,8,1,C,1,S,1,S,8,0.727959,0.297192,0.216343
6,134,8,2,2,8,1,I,6,S,6,S,10,0.716817,0.514136,0.368541
6,135,1,8,2,9,1,C,7,L,7,L,6,0.191515,0.716002,0.137125
6,136,1,9,8,1,1,I,8,L,7,L,9,0.490607,0.714425,0.350502
6,137,2,1,2,1,1,C,1,S,1,S,8,0.756028,0.272643,0.206125
6,138,1,2,1,9,1,C,1,S,8,L,7,0.239968,0.738647,0.177251
6,139,9,8,8,2,1,C,1,S,6,S,8,0.702842,0.331002,0.232642
6,140,2,8,8,1,1,I,6,S,7,L,10,0.540204,0.708253,0.382602
6,141,1,9,8,2,1,I,8,L,6,S,9,0.458519,0.737473,0.338146
6,142,2,9,9,2,1,I,7,L,7,L,10,0.524119,0.73158,0.383435
6,143,1,9,2,8,1,C,8,L,6,S,6,0.189851,0.721641,0.137004
6,144,8,9,8,1,0,I,1,S,7,L,9,0.711842,0.401086,0.28551
7,1,1,8,1,9,1,C,7,L,8,L,6,0.166486,0.762519,0.126949
7,2,1,2,2,8,1,C,1,S,6,S,7,0.23887,0.737177,0.17609
7,3,2,9,9,2,1,I,7,L,7,L,10,0.513971,0.740164,0.380423
7,4,2,9,8,1,1,I,7,L,7,L,10,0.52592,0.732286,0.385124
7,5,9,8,2,8,0,I,1,S,6,S,9,0.373893,0.730097,0.272978
7,6,2,1,8,2,1,C,1,S,6,S,7,0.705236,0.263165,0.185594
7,7,1,8,8,2,1,I,7,L,6,S,9,0.460621,0.738131,0.339999
7,8,2,8,8,9,1,C,6,S,1,S,8,0.274412,0.781936,0.214572
7,9,9,2,2,1,1,C,7,L,1,S,7,0.733201,0.246797,0.180952
7,10,9,2,8,9,1,I,7,L,1,S,8,0.755114,0.304221,0.229721
7,11,1,2,2,9,1,C,1,S,7,L,7,0.237679,0.740965,0.176112
7,12,8,2,9,1,1,C,6,S,8,L,6,0.723641,0.189358,0.137027
7,13,2,1,2,1,1,C,1,S,1,S,8,0.709988,0.30843,0.218982
7,14,2,8,9,1,1,I,6,S,8,L,11,0.570294,0.732039,0.417477
7,15,9,2,9,8,1,C,7,L,1,S,7,0.707933,0.26741,0.189308
7,16,8,2,8,1,1,C,6,S,7,L,6,0.712251,0.196732,0.140122
7,17,2,8,1,2,1,C,6,S,1,S,7,0.237844,0.744245,0.177014
7,18,9,1,1,8,1,I,8,L,7,L,9,0.703706,0.50337,0.354225
7,19,8,1,8,1,1,C,7,L,7,L,6,0.747676,0.175227,0.131013
7,20,9,2,9,1,1,C,7,L,8,L,6,0.721912,0.191039,0.137913
7,21,1,8,1,8,1,C,7,L,7,L,6,0.167128,0.759709,0.126968
7,22,9,1,2,1,1,C,8,L,1,S,7,0.773906,0.221533,0.171446
7,23,2,1,1,8,1,I,1,S,7,L,15,0.713522,0.661817,0.472221
7,24,9,8,8,2,1,C,1,S,6,S,8,0.707686,0.331503,0.2346
7,25,1,2,9,8,1,I,1,S,1,S,10,0.406286,0.739926,0.300621
7,26,2,9,2,9,1,C,7,L,7,L,6,0.197394,0.711985,0.140541
7,27,2,9,1,2,1,C,7,L,1,S,7,0.218333,0.772846,0.168738
7,28,2,8,1,8,1,C,6,S,7,L,6,0.199811,0.708004,0.141467
7,29,8,9,1,2,1,C,1,S,1,S,9,0.323031,0.754657,0.243778
7,30,1,9,2,1,1,I,8,L,1,S,8,0.316207,0.77595,0.245361
7,31,8,2,8,9,1,I,6,S,1,S,8,0.757241,0.302257,0.228881
7,32,9,2,1,2,1,I,7,L,1,S,9,0.744995,0.404972,0.301702
7,33,8,9,1,9,1,C,1,S,8,L,8,0.265609,0.789507,0.2097
7,34,8,9,9,8,1,I,1,S,1,S,14,0.543402,0.726919,0.395009
7,35,2,1,1,9,1,I,1,S,8,L,15,0.711784,0.665389,0.473613
7,36,8,2,9,2,1,C,6,S,7,L,6,0.702358,0.202544,0.142258
7,37,9,1,9,1,1,C,8,L,8,L,6,0.757799,0.169146,0.128178
7,38,1,9,9,1,1,I,8,L,8,L,9,0.489819,0.72872,0.356941
7,39,9,8,1,9,0,I,1,S,8,L,8,0.349383,0.703514,0.245796
7,40,9,1,9,8,1,C,8,L,1,S,7,0.748638,0.242146,0.18128
7,41,2,9,8,9,1,C,7,L,1,S,7,0.271897,0.710851,0.193278
7,42,9,8,2,9,0,I,1,S,7,L,9,0.372168,0.734421,0.273328
7,43,1,8,2,1,1,I,7,L,1,S,8,0.329903,0.756074,0.249431
7,44,9,8,9,1,1,C,1,S,8,L,8,0.750185,0.303388,0.227597
7,45,1,2,8,9,1,C,1,S,1,S,9,0.315814,0.769041,0.242874
7,46,2,9,2,1,1,I,7,L,1,S,8,0.349613,0.724228,0.253199
7,47,9,8,8,9,1,I,1,S,1,S,17,0.703228,0.588004,0.413501
7,48,9,2,2,9,1,I,7,L,7,L,10,0.724504,0.522636,0.378652
7,49,9,8,1,8,0,I,1,S,7,L,8,0.35049,0.700176,0.245405
7,50,9,2,8,1,1,C,7,L,7,L,6,0.710522,0.198413,0.140976
7,51,9,8,1,2,0,I,1,S,1,S,11,0.451084,0.713821,0.321993
7,52,1,2,1,2,1,C,1,S,1,S,8,0.265486,0.76842,0.204004
7,53,8,9,8,9,1,C,1,S,1,S,10,0.394528,0.709164,0.279785
7,54,8,2,1,9,1,I,6,S,8,L,10,0.706911,0.548706,0.387886
7,55,9,8,2,1,1,C,1,S,1,S,10,0.72888,0.3835,0.279526
7,56,2,8,8,1,1,I,6,S,7,L,10,0.54875,0.700756,0.38454
7,57,1,9,8,1,1,I,8,L,7,L,9,0.476578,0.737878,0.351657
7,58,8,2,1,2,1,I,6,S,1,S,9,0.747145,0.402969,0.301077
7,59,1,2,9,1,1,I,1,S,8,L,14,0.645209,0.719445,0.464192
7,60,8,1,9,2,1,C,7,L,7,L,6,0.737783,0.181039,0.133568
7,61,9,1,1,2,1,I,8,L,1,S,8,0.72759,0.362662,0.263869
7,62,2,8,9,8,1,I,6,S,1,S,8,0.335688,0.720943,0.242012
7,63,2,1,1,2,1,I,1,S,1,S,12,0.711,0.546775,0.388757
7,64,8,2,9,8,1,C,6,S,1,S,7,0.709928,0.265549,0.18852
7,65,2,9,8,2,1,I,7,L,6,S,9,0.481366,0.705643,0.339672
7,66,9,1,9,2,1,C,8,L,7,L,6,0.736516,0.182331,0.13429
7,67,8,9,8,1,0,I,1,S,7,L,10,0.731046,0.442987,0.323844
7,68,8,2,8,2,1,C,6,S,6,S,7,0.828449,0.182133,0.150888
7,69,1,2,1,8,1,C,1,S,7,L,7,0.221375,0.764222,0.16918
7,70,2,1,2,8,1,I,1,S,6,S,14,0.704,0.643563,0.453068
7,71,8,9,2,9,1,C,1,S,7,L,8,0.284174,0.761685,0.216451
7,72,8,9,9,1,0,I,1,S,8,L,9,0.711791,0.410518,0.292203
7,73,2,9,2,8,1,C,7,L,6,S,6,0.198246,0.708692,0.140495
7,74,1,8,1,2,1,C,7,L,1,S,7,0.20027,0.802961,0.160809
7,75,2,8,2,1,1,I,6,S,1,S,9,0.380704,0.757314,0.288313
7,76,9,1,8,2,1,C,8,L,6,S,6,0.722111,0.191891,0.138566
7,77,8,2,2,9,1,I,6,S,7,L,10,0.726603,0.520647,0.378303
7,78,2,8,2,9,1,C,6,S,7,L,7,0.184512,0.827442,0.152673
7,79,2,1,9,8,1,C,1,S,1,S,9,0.766521,0.310861,0.238282
7,80,8,1,8,2,1,C,7,L,6,S,6,0.723378,0.190599,0.137875
7,81,8,2,1,8,1,I,6,S,7,L,10,0.708336,0.545166,0.386161
7,82,9,1,2,8,1,I,8,L,6,S,9,0.723509,0.474239,0.343117
7,83,9,1,2,9,1,I,8,L,7,L,9,0.721784,0.478563,0.345419
7,84,1,2,8,2,1,I,1,S,6,S,13,0.609776,0.718693,0.438242
7,85,8,1,8,9,1,I,7,L,1,S,7,0.708926,0.282995,0.200622
7,86,2,1,8,1,1,C,1,S,7,L,7,0.732818,0.245493,0.179901
7,87,1,9,9,8,1,I,8,L,1,S,7,0.282044,0.717875,0.202472
7,88,9,1,8,1,1,C,8,L,7,L,6,0.746409,0.176519,0.131755
7,89,8,1,9,1,1,C,7,L,8,L,6,0.759066,0.167854,0.127412
7,90,1,2,8,1,1,I,1,S,7,L,14,0.633724,0.728042,0.461377
7,91,8,2,2,8,1,I,6,S,6,S,10,0.728514,0.516216,0.37607
7,92,1,8,9,2,1,I,7,L,7,L,9,0.478717,0.725553,0.347335
7,93,9,1,8,9,1,I,8,L,1,S,7,0.707537,0.284377,0.201207
7,94,1,8,8,1,1,I,7,L,7,L,9,0.490701,0.717871,0.35226
7,95,1,8,2,9,1,C,7,L,7,L,6,0.181656,0.738902,0.134226
7,96,2,1,9,2,1,C,1,S,7,L,7,0.721726,0.252175,0.182001
7,97,2,8,2,8,1,C,6,S,6,S,7,0.185702,0.823654,0.152955
7,98,8,1,2,9,1,I,7,L,7,L,9,0.723192,0.477143,0.345066
7,99,9,2,1,9,1,I,7,L,8,L,10,0.704813,0.550695,0.388137
7,100,2,1,8,9,1,I,1,S,1,S,10,0.740176,0.389264,0.288124
7,101,1,8,8,9,1,C,7,L,1,S,7,0.253834,0.740966,0.188082
7,102,2,8,8,2,1,I,6,S,6,S,10,0.518773,0.721474,0.374281
7,103,1,8,2,8,1,C,7,L,6,S,6,0.182508,0.735609,0.134254
7,104,1,8,9,1,1,I,7,L,8,L,9,0.503941,0.708713,0.35715
7,105,9,8,9,2,1,C,1,S,7,L,8,0.72534,0.31952,0.231761
7,106,2,1,9,1,1,C,1,S,8,L,7,0.74536,0.237238,0.176827
7,107,1,2,9,2,1,I,1,S,7,L,13,0.62613,0.706364,0.442276
7,108,9,2,1,8,1,I,7,L,7,L,10,0.706237,0.547156,0.386422
7,109,8,9,1,8,1,C,1,S,7,L,8,0.266715,0.78617,0.209684
7,110,8,1,1,8,1,I,7,L,7,L,9,0.705114,0.50195,0.353932
7,111,1,9,1,9,1,C,8,L,8,L,6,0.154854,0.780058,0.120796
7,112,8,1,1,9,1,I,7,L,8,L,9,0.70383,0.505416,0.355727
7,113,1,9,9,2,1,I,8,L,7,L,9,0.464594,0.745561,0.346383
7,114,8,1,2,1,1,C,7,L,1,S,7,0.775296,0.220151,0.170682
7,115,8,9,2,8,1,C,1,S,6,S,8,0.285659,0.757564,0.216405
7,116,1,9,2,9,1,C,8,L,7,L,6,0.170024,0.756441,0.128613
7,117,2,9,9,1,1,I,7,L,8,L,10,0.539021,0.723011,0.389718
7,118,9,2,8,2,1,C,7,L,6,S,7,0.826453,0.183994,0.152062
7,119,9,2,9,2,1,C,7,L,7,L,6,0.700629,0.204225,0.143086
7,120,2,9,1,8,1,C,7,L,7,L,6,0.182866,0.732792,0.134003
7,121,8,1,9,8,1,C,7,L,1,S,7,0.750028,0.240764,0.18058
7,122,1,2,2,1,1,I,1,S,1,S,11,0.470884,0.742831,0.349787
7,123,1,9,1,2,1,C,8,L,1,S,7,0.187379,0.822101,0.154044
7,124,2,9,1,9,1,C,7,L,8,L,6,0.182224,0.735602,0.134045
7,125,8,1,2,8,1,I,7,L,6,S,9,0.724918,0.472819,0.342755
7,126,8,1,1,2,1,I,7,L,1,S,8,0.729018,0.361241,0.263351
7,127,1,9,8,9,1,C,8,L,1,S,7,0.240942,0.760106,0.183142
7,128,8,9,9,2,0,I,1,S,7,L,10,0.719097,0.450865,0.324216
7,129,2,9,9,8,1,I,7,L,1,S,8,0.314393,0.751714,0.236333
7,130,1,8,9,8,1,I,7,L,1,S,8,0.294683,0.78356,0.230902
7,131,8,9,2,1,1,I,1,S,1,S,15,0.611479,0.703766,0.430338
7,132,9,1,1,9,1,I,8,L,8,L,9,0.702422,0.506836,0.356013
7,133,1,9,1,8,1,C,8,L,7,L,6,0.155496,0.777248,0.120859
7,134,2,8,1,9,1,C,6,S,8,L,6,0.199169,0.710814,0.141572
7,135,1,2,1,9,1,C,1,S,8,L,7,0.220484,0.767351,0.169189
7,136,1,9,8,2,1,I,8,L,6,S,8,0.426903,0.701619,0.299523
7,137,2,8,9,2,1,I,6,S,7,L,10,0.536802,0.708633,0.380396
7,138,1,9,2,8,1,C,8,L,6,S,6,0.170876,0.753148,0.128695
7,139,8,9,8,2,0,I,1,S,6,S,10,0.701069,0.463705,0.325089
7,140,2,1,2,9,1,I,1,S,7,L,14,0.70176,0.647975,0.454723
7,141,9,8,9,8,1,C,1,S,1,S,11,0.734601,0.402804,0.2959
7,142,9,8,8,1,1,C,1,S,7,L,8,0.737083,0.312223,0.230134
7,143,9,2,2,8,1,I,7,L,6,S,10,0.726415,0.518205,0.376432
7,144,8,2,2,1,1,C,6,S,1,S,7,0.735196,0.244936,0.180076
8,1,8,1,1,9,1,I,7,L,8,L,10,0.740671,0.524156,0.388228
8,2,9,8,2,1,1,C,1,S,1,S,9,0.723397,0.3421,0.247474
8,3,8,9,2,8,1,C,1,S,6,S,8,0.319208,0.715694,0.228455
8,4,2,1,1,2,1,I,1,S,1,S,13,0.707035,0.577986,0.408656
8,5,1,9,1,9,1,C,8,L,8,L,6,0.166377,0.760843,0.126587
8,6,1,9,9,2,1,I,8,L,7,L,9,0.470415,0.730475,0.343626
8,7,9,2,2,1,1,C,7,L,1,S,7,0.748176,0.233634,0.1748
8,8,1,8,1,9,1,C,7,L,8,L,6,0.173345,0.749379,0.129901
8,9,8,2,8,9,1,I,6,S,1,S,8,0.757837,0.299046,0.226628
8,10,8,2,2,9,1,I,6,S,7,L,10,0.722349,0.523082,0.377848
8,11,1,9,8,2,1,I,8,L,6,S,9,0.460131,0.737523,0.339357
8,12,2,9,8,1,1,I,7,L,7,L,10,0.539075,0.717036,0.386536
8,13,8,9,8,2,0,I,1,S,6,S,9,0.715703,0.380687,0.272459
8,14,9,1,9,8,1,C,8,L,1,S,7,0.73451,0.252972,0.18581
8,15,8,1,1,2,1,I,7,L,1,S,8,0.71856,0.366054,0.263032
8,16,8,1,2,8,1,I,7,L,6,S,9,0.713244,0.47948,0.341986
8,17,8,1,9,8,1,C,7,L,1,S,7,0.725709,0.258626,0.187687
8,18,8,2,1,2,1,I,6,S,1,S,9,0.744348,0.403034,0.299998
8,19,9,8,8,2,1,C,1,S,6,S,8,0.744927,0.293167,0.218388
8,20,8,9,9,8,1,I,1,S,1,S,18,0.589986,0.721638,0.425756
8,21,8,1,1,8,1,I,7,L,7,L,10,0.742415,0.52001,0.386063
8,22,1,2,1,8,1,C,1,S,7,L,7,0.241838,0.736973,0.178228
8,23,1,9,8,9,1,C,8,L,1,S,7,0.255686,0.737447,0.188555
8,24,1,9,2,8,1,C,8,L,6,S,6,0.18097,0.735696,0.133139
8,25,2,1,2,9,1,I,1,S,7,L,16,0.721811,0.660611,0.476836
8,26,1,8,9,8,1,I,7,L,1,S,8,0.281739,0.787458,0.221858
8,27,2,9,9,1,1,I,7,L,8,L,10,0.546083,0.712173,0.388906
8,28,1,9,2,9,1,C,8,L,7,L,6,0.179887,0.73951,0.133029
8,29,1,2,9,2,1,I,1,S,7,L,14,0.646312,0.702645,0.454128
8,30,1,8,9,2,1,I,7,L,7,L,9,0.479342,0.716912,0.343646
8,31,1,8,2,1,1,I,7,L,1,S,8,0.344295,0.735917,0.253372
8,32,9,1,2,1,1,C,8,L,1,S,7,0.778832,0.214622,0.167155
8,33,2,1,9,1,1,C,1,S,8,L,7,0.724642,0.254105,0.184136
8,34,2,1,8,1,1,C,1,S,7,L,7,0.717942,0.258409,0.185523
8,35,9,1,1,9,1,I,8,L,8,L,9,0.70327,0.503666,0.354213
8,36,2,1,1,9,0,I,1,S,8,L,12,0.580923,0.704875,0.409478
8,37,8,2,9,8,1,C,6,S,1,S,8,0.794572,0.260254,0.206791
8,38,8,9,1,8,1,C,1,S,7,L,8,0.302211,0.741678,0.224143
8,39,8,2,2,8,1,I,6,S,6,S,10,0.724627,0.517976,0.375339
8,40,9,2,8,9,1,I,7,L,1,S,8,0.769643,0.291219,0.224134
8,41,2,1,8,2,1,C,1,S,6,S,8,0.795092,0.2542,0.202112
8,42,2,8,1,8,1,C,6,S,7,L,6,0.199526,0.706672,0.140999
8,43,1,2,9,8,1,I,1,S,1,S,10,0.396595,0.73065,0.289772
8,44,8,2,9,2,1,C,6,S,7,L,7,0.835062,0.176928,0.147746
8,45,1,8,8,9,1,C,7,L,1,S,7,0.263586,0.724735,0.19103
8,46,9,1,8,1,1,C,8,L,7,L,6,0.750705,0.171836,0.128999
8,47,2,9,8,9,1,C,7,L,1,S,8,0.264835,0.79659,0.210965
8,48,1,2,2,9,1,C,1,S,7,L,7,0.256038,0.716809,0.18353
8,49,8,2,8,1,1,C,6,S,7,L,6,0.713981,0.194565,0.138916
8,50,2,8,9,2,1,I,6,S,7,L,10,0.527908,0.714783,0.37734
8,51,1,9,9,1,1,I,8,L,8,L,9,0.501997,0.709036,0.355934
8,52,2,8,9,1,1,I,6,S,8,L,11,0.567717,0.733533,0.416439
8,53,2,9,1,2,1,C,7,L,1,S,7,0.225884,0.761028,0.171904
8,54,8,9,9,1,0,I,1,S,8,L,9,0.757569,0.3522,0.266816
8,55,9,2,1,8,1,I,7,L,7,L,10,0.718608,0.535858,0.385072
8,56,8,2,1,8,1,I,6,S,7,L,10,0.706466,0.544323,0.384546
8,57,1,2,8,1,1,I,1,S,7,L,15,0.660521,0.715225,0.472421
8,58,9,1,9,2,1,C,8,L,7,L,6,0.730438,0.184754,0.134951
8,59,8,2,8,2,1,C,6,S,6,S,7,0.825767,0.18303,0.15114
8,60,2,8,9,8,1,I,6,S,1,S,8,0.313653,0.739251,0.231868
8,61,2,9,8,2,1,I,7,L,6,S,10,0.504447,0.741218,0.373905
8,62,9,2,8,1,1,C,7,L,7,L,6,0.723498,0.188404,0.13631
8,63,8,9,9,2,0,I,1,S,7,L,9,0.725987,0.373638,0.271256
8,64,9,2,9,2,1,C,7,L,7,L,6,0.703231,0.201321,0.141575
8,65,2,8,1,9,1,C,6,S,8,L,6,0.198685,0.709964,0.141059
8,66,2,8,2,1,1,I,6,S,1,S,9,0.387359,0.750704,0.290792
8,67,1,9,1,8,1,C,8,L,7,L,6,0.167218,0.757551,0.126676
8,68,2,1,9,8,1,C,1,S,1,S,9,0.706091,0.358541,0.253163
8,69,8,1,9,1,1,C,7,L,8,L,6,0.748896,0.172995,0.129555
8,70,2,8,1,2,1,C,6,S,1,S,7,0.236819,0.7439,0.17617
8,71,1,8,2,8,1,C,7,L,6,S,6,0.187938,0.724232,0.136111
8,72,1,8,9,1,1,I,7,L,8,L,10,0.524912,0.742291,0.389637
8,73,9,2,9,1,1,C,7,L,8,L,6,0.729592,0.184567,0.134658
8,74,2,1,1,8,0,I,1,S,7,L,12,0.582874,0.70068,0.408408
8,75,8,9,8,1,0,I,1,S,7,L,9,0.750494,0.356991,0.26792
8,76,8,1,2,9,1,I,7,L,7,L,9,0.711172,0.484469,0.344541
8,77,2,1,9,2,1,C,1,S,7,L,8,0.805091,0.247512,0.19927
8,78,8,1,9,2,1,C,7,L,7,L,6,0.722535,0.18975,0.137101
8,79,8,1,8,1,1,C,7,L,7,L,6,0.742802,0.176833,0.131352
8,80,2,9,1,8,1,C,7,L,7,L,6,0.190178,0.721413,0.137196
8,81,8,9,1,2,1,C,1,S,1,S,10,0.350245,0.765542,0.268127
8,82,2,8,8,9,1,C,6,S,1,S,8,0.276918,0.778043,0.215454
8,83,9,8,2,9,0,I,1,S,7,L,10,0.446272,0.718189,0.320508
8,84,8,2,9,1,1,C,6,S,8,L,6,0.720075,0.190727,0.137338
8,85,2,9,2,9,1,C,7,L,7,L,6,0.202847,0.703371,0.142677
8,86,9,8,9,2,1,C,1,S,7,L,8,0.754926,0.286479,0.21627
8,87,9,2,2,8,1,I,7,L,6,S,10,0.736769,0.509511,0.375392
8,88,1,8,1,8,1,C,7,L,7,L,6,0.174186,0.746088,0.129958
8,89,9,1,2,9,1,I,8,L,7,L,9,0.720579,0.478104,0.344512
8,90,1,2,8,2,1,I,1,S,6,S,14,0.637369,0.709391,0.452143
8,91,1,9,9,8,1,I,8,L,1,S,7,0.280102,0.71078,0.199091
8,92,9,8,1,2,1,I,1,S,1,S,17,0.720127,0.636864,0.458623
8,93,2,9,2,1,1,I,7,L,1,S,8,0.364125,0.706257,0.257166
8,94,2,9,2,8,1,C,7,L,6,S,7,0.172765,0.841823,0.145437
8,95,9,2,1,9,1,I,7,L,8,L,10,0.716865,0.540005,0.38711
8,96,9,1,9,1,1,C,8,L,8,L,6,0.756799,0.167999,0.127141
8,97,2,1,2,8,1,I,1,S,6,S,16,0.72445,0.655665,0.474996
8,98,2,8,2,8,1,C,6,S,6,S,7,0.183701,0.824694,0.151497
8,99,1,8,8,1,1,I,7,L,7,L,9,0.503849,0.700265,0.352828
8,100,2,8,8,2,1,I,6,S,6,S,10,0.517638,0.722001,0.373735
8,101,9,2,2,9,1,I,7,L,7,L,10,0.734491,0.514617,0.377981
8,102,1,9,1,2,1,C,8,L,1,S,7,0.199718,0.801651,0.160104
8,103,9,8,9,8,1,C,1,S,1,S,10,0.707401,0.389589,0.275596
8,104,8,9,8,9,1,C,1,S,1,S,12,0.429705,0.72021,0.309478
8,105,8,2,1,9,1,I,6,S,8,L,10,0.704722,0.54847,0.386519
8,106,9,8,2,8,0,I,1,S,6,S,10,0.44855,0.713083,0.319853
8,107,1,2,2,8,1,C,1,S,6,S,7,0.257508,0.712428,0.183456
8,108,2,8,8,1,1,I,6,S,7,L,11,0.560862,0.738386,0.414133
8,109,8,2,2,1,1,C,6,S,1,S,7,0.737208,0.24077,0.177497
8,110,9,2,8,2,1,C,7,L,6,S,7,0.836735,0.175895,0.147177
8,111,1,2,8,9,1,C,1,S,1,S,9,0.347957,0.725832,0.252558
8,112,9,1,2,8,1,I,8,L,6,S,9,0.722652,0.473116,0.341898
8,113,9,8,1,8,0,I,1,S,7,L,9,0.408645,0.706032,0.288516
8,114,1,8,1,2,1,C,7,L,1,S,7,0.207618,0.788938,0.163798
8,115,9,2,9,8,1,C,7,L,1,S,7,0.703854,0.271984,0.191437
8,116,8,1,8,2,1,C,7,L,6,S,6,0.714469,0.195022,0.139337
8,117,8,9,2,1,0,I,1,S,1,S,12,0.703239,0.483281,0.339862
8,118,9,8,1,9,0,I,1,S,8,L,9,0.40706,0.710096,0.289052
8,119,9,1,1,8,1,I,8,L,7,L,9,0.704855,0.499601,0.352146
8,120,2,9,9,8,1,I,7,L,1,S,8,0.30157,0.757798,0.228529
8,121,1,9,8,1,1,I,8,L,7,L,9,0.494922,0.713828,0.353289
8,122,9,8,9,1,1,C,1,S,8,L,8,0.785988,0.265943,0.209028
8,123,9,1,1,2,1,I,8,L,1,S,8,0.727823,0.359952,0.261982
8,124,2,1,8,9,1,I,1,S,1,S,10,0.712124,0.40691,0.28977
8,125,9,8,8,1,1,C,1,S,7,L,8,0.778991,0.270557,0.210761
8,126,1,2,1,9,1,C,1,S,8,L,7,0.240705,0.740643,0.178277
8,127,8,9,2,9,1,C,1,S,7,L,8,0.317405,0.720454,0.228676
8,128,8,1,8,9,1,I,7,L,1,S,7,0.701293,0.285293,0.200074
8,129,2,9,1,9,1,C,7,L,8,L,6,0.189336,0.724704,0.137213
8,130,1,2,2,1,1,I,1,S,1,S,12,0.518053,0.730847,0.378617
8,131,1,2,1,2,1,C,1,S,1,S,8,0.289349,0.735508,0.212819
8,132,8,9,1,9,1,C,1,S,8,L,8,0.300828,0.745594,0.224296
8,133,1,8,2,9,1,C,7,L,7,L,6,0.186855,0.728046,0.136039
8,134,2,9,9,2,1,I,7,L,7,L,10,0.514718,0.733999,0.377803
8,135,1,9,2,1,1,I,8,L,1,S,8,0.335753,0.749274,0.251571
8,136,1,2,9,1,1,I,1,S,8,L,15,0.666489,0.710825,0.473757
8,137,9,1,8,2,1,C,8,L,6,S,6,0.722372,0.190026,0.137269
8,138,8,1,2,1,1,C,7,L,1,S,7,0.770032,0.220276,0.16962
8,139,9,2,1,2,1,I,7,L,1,S,9,0.756497,0.394776,0.298647
8,140,9,8,8,9,1,I,1,S,1,S,12,0.720144,0.455714,0.32818
8,141,9,1,8,9,1,I,8,L,1,S,7,0.710093,0.279639,0.19857
8,142,2,1,2,1,1,C,1,S,1,S,9,0.788866,0.292986,0.231127
8,143,1,8,8,2,1,I,7,L,6,S,9,0.469058,0.72396,0.339579
8,144,2,8,2,9,1,C,6,S,7,L,7,0.182231,0.829076,0.151083
9,1,8,9,1,2,1,C,1,S,1,S,9,0.358042,0.712722,0.255184
9,2,9,2,8,2,1,C,7,L,6,S,7,0.837851,0.174094,0.145865
9,3,8,1,8,2,1,C,7,L,6,S,6,0.724785,0.190381,0.137985
9,4,2,9,9,1,1,I,7,L,8,L,10,0.541413,0.71906,0.389308
9,5,8,9,1,9,1,C,1,S,8,L,8,0.280378,0.7748,0.217237
9,6,8,9,2,8,1,C,1,S,6,S,8,0.30296,0.741675,0.224698
9,7,2,8,9,1,1,I,6,S,8,L,10,0.547544,0.706639,0.386916
9,8,1,2,9,1,1,I,1,S,8,L,14,0.653797,0.703152,0.459718
9,9,2,1,8,9,1,I,1,S,1,S,10,0.72396,0.413578,0.299414
9,10,2,8,2,9,1,C,6,S,7,L,7,0.173002,0.84045,0.145399
9,11,8,9,9,8,1,I,1,S,1,S,14,0.543984,0.712412,0.387541
9,12,9,8,8,1,1,C,1,S,7,L,8,0.738581,0.304876,0.225175
9,13,8,2,1,2,1,I,6,S,1,S,9,0.752552,0.386513,0.290871
9,14,8,2,1,9,1,I,6,S,8,L,11,0.736886,0.562452,0.414463
9,15,9,2,1,2,1,I,7,L,1,S,8,0.706622,0.363006,0.256508
9,16,9,2,2,1,1,C,7,L,1,S,7,0.742396,0.238413,0.176997
9,17,8,2,2,1,1,C,6,S,1,S,7,0.726765,0.249462,0.1813
9,18,1,2,2,8,1,C,1,S,6,S,7,0.247991,0.722279,0.179119
9,19,9,1,2,8,1,I,8,L,6,S,9,0.737862,0.463418,0.341938
9,20,2,9,8,2,1,I,7,L,6,S,10,0.5063,0.743238,0.376301
9,21,1,8,8,9,1,C,7,L,1,S,7,0.239756,0.750421,0.179918
9,22,1,2,2,1,1,I,1,S,1,S,11,0.484809,0.721316,0.3497
9,23,2,1,8,2,1,C,1,S,6,S,7,0.715372,0.257995,0.184562
9,24,8,1,2,8,1,I,7,L,6,S,9,0.725993,0.472218,0.342827
9,25,2,9,9,8,1,I,7,L,1,S,8,0.310897,0.754158,0.234465
9,26,1,9,1,2,1,C,8,L,1,S,7,0.20612,0.795739,0.164018
9,27,1,9,9,8,1,I,8,L,1,S,7,0.282729,0.713787,0.201809
9,28,2,9,8,9,1,C,7,L,1,S,7,0.26677,0.713652,0.190381
9,29,1,2,9,2,1,I,1,S,7,L,14,0.632181,0.718588,0.454277
9,30,9,1,1,9,1,I,8,L,8,L,9,0.714333,0.497106,0.355099
9,31,1,8,2,8,1,C,7,L,6,S,6,0.182297,0.733288,0.133676
9,32,2,8,1,2,1,C,6,S,1,S,7,0.240349,0.739953,0.177847
9,33,8,1,1,2,1,I,7,L,1,S,8,0.741235,0.343829,0.254859
9,34,9,1,2,1,1,C,8,L,1,S,7,0.786117,0.213177,0.167582
9,35,9,1,1,8,1,I,8,L,7,L,9,0.71958,0.490686,0.353088
9,36,9,1,8,2,1,C,8,L,6,S,6,0.735049,0.183107,0.134592
9,37,2,8,1,9,1,C,6,S,8,L,6,0.191277,0.71912,0.137551
9,38,1,2,1,2,1,C,1,S,1,S,8,0.28788,0.733442,0.211143
9,39,8,1,1,9,1,I,7,L,8,L,9,0.702464,0.505907,0.355381
9,40,2,9,2,8,1,C,7,L,6,S,6,0.2065,0.70043,0.144639
9,41,1,9,9,2,1,I,8,L,7,L,9,0.469188,0.736097,0.345368
9,42,9,8,8,2,1,C,1,S,6,S,8,0.712059,0.321833,0.229164
9,43,2,9,2,1,1,I,7,L,1,S,8,0.357932,0.715711,0.256176
9,44,2,9,1,2,1,C,7,L,1,S,7,0.236113,0.75064,0.177236
9,45,2,1,8,1,1,C,1,S,7,L,7,0.740281,0.242484,0.179506
9,46,2,1,2,8,1,I,1,S,6,S,14,0.719278,0.633714,0.455817
9,47,8,2,9,1,1,C,6,S,8,L,6,0.711613,0.19633,0.139711
9,48,9,8,1,8,0,I,1,S,7,L,9,0.360611,0.746184,0.269082
9,49,8,1,1,8,1,I,7,L,7,L,9,0.707711,0.499487,0.353492
9,50,9,2,9,2,1,C,7,L,7,L,6,0.704824,0.198917,0.140201
9,51,1,8,1,8,1,C,7,L,7,L,6,0.168319,0.75557,0.127177
9,52,9,8,9,2,1,C,1,S,7,L,8,0.722703,0.314408,0.227223
9,53,8,9,8,2,0,I,1,S,6,S,10,0.727603,0.43604,0.317264
9,54,9,2,8,1,1,C,7,L,7,L,6,0.718123,0.191435,0.137474
9,55,8,1,2,9,1,I,7,L,7,L,9,0.718881,0.481138,0.345881
9,56,9,1,9,1,1,C,8,L,8,L,6,0.76404,0.164908,0.125996
9,57,1,9,1,8,1,C,8,L,7,L,6,0.165982,0.763076,0.126657
9,58,8,2,8,1,1,C,6,S,7,L,6,0.704618,0.201068,0.141676
9,59,9,1,2,9,1,I,8,L,7,L,9,0.73075,0.472338,0.345161
9,60,9,1,1,2,1,I,8,L,1,S,8,0.753023,0.335274,0.252469
9,61,8,1,9,1,1,C,7,L,8,L,6,0.753776,0.172182,0.129786
9,62,8,9,8,1,0,I,1,S,7,L,9,0.718093,0.400427,0.287544
9,63,1,8,2,9,1,C,7,L,7,L,6,0.176542,0.740535,0.130735
9,64,9,2,1,8,1,I,7,L,7,L,10,0.718889,0.534785,0.384451
9,65,8,2,8,9,1,I,6,S,1,S,8,0.730559,0.323515,0.236347
9,66,9,1,8,9,1,I,8,L,1,S,7,0.706828,0.286829,0.202738
9,67,9,8,9,1,1,C,1,S,8,L,8,0.746643,0.299241,0.223426
9,68,8,9,9,1,0,I,1,S,8,L,9,0.72623,0.394605,0.286574
9,69,2,9,2,9,1,C,7,L,7,L,6,0.200745,0.707677,0.142062
9,70,2,8,1,8,1,C,6,S,7,L,6,0.195789,0.71347,0.139689
9,71,1,2,8,1,1,I,1,S,7,L,14,0.646844,0.708532,0.458309
9,72,1,9,2,9,1,C,8,L,7,L,6,0.174205,0.74804,0.130312
9,73,2,8,2,1,1,I,6,S,1,S,8,0.362977,0.704075,0.255563
9,74,1,9,1,9,1,C,8,L,8,L,6,0.161471,0.768726,0.124127
9,75,8,1,8,1,1,C,7,L,7,L,6,0.746781,0.17692,0.13212
9,76,1,9,8,1,1,I,8,L,7,L,9,0.485437,0.726008,0.352431
9,77,9,8,1,9,0,I,1,S,8,L,9,0.355364,0.752603,0.267448
9,78,2,9,1,9,1,C,7,L,8,L,6,0.188011,0.728362,0.13694
9,79,2,1,1,8,1,I,1,S,7,L,14,0.70173,0.657607,0.461462
9,80,8,9,8,9,1,C,1,S,1,S,10,0.389595,0.714453,0.278347
9,81,2,1,2,9,1,I,1,S,7,L,14,0.712977,0.640924,0.456964
9,82,2,1,9,8,1,C,1,S,1,S,9,0.762282,0.318782,0.243002
9,83,9,8,1,2,0,I,1,S,1,S,12,0.487187,0.701273,0.341651
9,84,8,1,8,9,1,I,7,L,1,S,8,0.782009,0.292316,0.228594
9,85,8,9,2,9,1,C,1,S,7,L,8,0.296066,0.750457,0.222185
9,86,8,1,9,2,1,C,7,L,7,L,6,0.733482,0.184401,0.135255
9,87,2,1,2,1,1,C,1,S,1,S,8,0.720118,0.303421,0.218499
9,88,9,2,9,8,1,C,7,L,1,S,7,0.709059,0.267101,0.189391
9,89,2,1,9,2,1,C,1,S,7,L,7,0.725324,0.251156,0.18217
9,90,1,2,1,8,1,C,1,S,7,L,7,0.231981,0.747426,0.173388
9,91,9,8,9,8,1,C,1,S,1,S,11,0.717554,0.409493,0.293833
9,92,1,9,8,2,1,I,8,L,6,S,9,0.458294,0.743865,0.340908
9,93,9,2,9,1,1,C,7,L,8,L,6,0.725118,0.186698,0.135378
9,94,2,1,1,2,1,I,1,S,1,S,11,0.705917,0.505495,0.356837
9,95,8,2,2,9,1,I,6,S,7,L,10,0.713192,0.529248,0.377456
9,96,8,1,2,1,1,C,7,L,1,S,7,0.774811,0.22124,0.171419
9,97,8,2,9,8,1,C,6,S,1,S,8,0.797745,0.257197,0.205178
9,98,1,2,2,9,1,C,1,S,7,L,7,0.241538,0.730541,0.176453
9,99,9,1,8,1,1,C,8,L,7,L,6,0.757045,0.169645,0.128429
9,100,2,8,8,1,1,I,6,S,7,L,10,0.539509,0.712516,0.384409
9,101,1,8,9,8,1,I,7,L,1,S,7,0.285708,0.705457,0.201555
9,102,1,8,8,2,1,I,7,L,6,S,9,0.462226,0.734724,0.339609
9,103,8,1,9,8,1,C,7,L,1,S,7,0.741475,0.249928,0.185315
9,104,2,9,9,2,1,I,7,L,7,L,10,0.517134,0.735331,0.380265
9,105,1,2,8,9,1,C,1,S,1,S,9,0.30415,0.773164,0.235157
9,106,2,1,9,1,1,C,1,S,8,L,7,0.747997,0.237201,0.177426
9,107,1,8,8,1,1,I,7,L,7,L,9,0.489369,0.716867,0.350813
9,108,1,8,9,1,1,I,7,L,8,L,9,0.497507,0.711046,0.35375
9,109,2,8,2,8,1,C,6,S,6,S,7,0.179455,0.832188,0.14934
9,110,1,9,8,9,1,C,8,L,1,S,7,0.236777,0.758751,0.179654
9,111,1,9,9,1,1,I,8,L,8,L,9,0.493574,0.720186,0.355465
9,112,2,8,8,2,1,I,6,S,6,S,10,0.512432,0.730816,0.374493
9,113,1,9,2,1,1,I,8,L,1,S,8,0.325626,0.763246,0.248533
9,114,1,2,9,8,1,I,1,S,1,S,10,0.3982,0.736682,0.293347
9,115,1,8,1,9,1,C,7,L,8,L,6,0.163808,0.76122,0.124694
9,116,8,9,2,1,1,I,1,S,1,S,17,0.632725,0.720045,0.455591
9,117,8,2,1,8,1,I,6,S,7,L,10,0.701662,0.547607,0.384235
9,118,2,1,1,9,1,I,1,S,8,L,15,0.725331,0.655478,0.475438
9,119,8,9,1,8,1,C,1,S,7,L,8,0.285536,0.768379,0.2194
9,120,8,2,9,2,1,C,6,S,7,L,7,0.832172,0.178305,0.14838
9,121,9,8,2,1,1,C,1,S,1,S,10,0.735104,0.371668,0.273215
9,122,9,1,9,8,1,C,8,L,1,S,7,0.752781,0.241865,0.182071
9,123,9,8,2,9,0,I,1,S,7,L,9,0.371782,0.727835,0.270596
9,124,1,8,2,1,1,I,7,L,1,S,8,0.329138,0.754399,0.248302
9,125,9,2,2,9,1,I,7,L,7,L,10,0.730419,0.516426,0.377207
9,126,1,8,1,2,1,C,7,L,1,S,7,0.209099,0.787409,0.164646
9,127,9,1,9,2,1,C,8,L,7,L,6,0.743746,0.177127,0.131737
9,128,1,8,9,2,1,I,7,L,7,L,9,0.47312,0.726957,0.343938
9,129,2,8,9,2,1,I,6,S,7,L,10,0.523266,0.722909,0.378274
9,130,1,2,8,2,1,I,1,S,6,S,14,0.622878,0.725857,0.45212
9,131,9,2,1,9,1,I,7,L,8,L,10,0.713665,0.541056,0.386133
9,132,8,9,9,2,0,I,1,S,7,L,9,0.701843,0.410516,0.288118
9,133,2,8,9,8,1,I,6,S,1,S,8,0.315941,0.742522,0.234594
9,134,9,2,2,8,1,I,7,L,6,S,10,0.737569,0.507633,0.374414
9,135,1,9,2,8,1,C,8,L,6,S,6,0.17996,0.740794,0.133313
9,136,2,9,1,8,1,C,7,L,7,L,6,0.192522,0.722712,0.139138
9,137,2,8,8,9,1,C,6,S,1,S,7,0.271006,0.702965,0.190508
9,138,2,9,8,1,1,I,7,L,7,L,10,0.533377,0.724938,0.386666
9,139,9,8,2,8,0,I,1,S,6,S,9,0.378893,0.718915,0.272392
9,140,1,2,1,9,1,C,1,S,8,L,7,0.227057,0.753622,0.171115
9,141,8,2,2,8,1,I,6,S,6,S,10,0.720342,0.520456,0.374906
9,142,9,8,8,9,1,I,1,S,1,S,19,0.719121,0.621929,0.447242
9,143,8,2,8,2,1,C,6,S,6,S,7,0.82222,0.185143,0.152228
9,144,9,2,8,9,1,I,7,L,1,S,8,0.747395,0.311493,0.232808
10,1,9,2,2,8,1,I,7,L,6,S,9,0.706423,0.482657,0.34096
10,2,1,2,9,2,1,I,1,S,7,L,15,0.653659,0.715223,0.467512
10,3,1,9,2,8,1,C,8,L,6,S,6,0.183174,0.736597,0.134926
10,4,9,2,2,9,1,I,7,L,7,L,9,0.705303,0.485166,0.342189
10,5,2,8,9,2,1,I,6,S,7,L,10,0.523682,0.721677,0.377929
10,6,9,2,9,8,1,C,7,L,1,S,7,0.708288,0.273951,0.194036
10,7,1,9,1,9,1,C,8,L,8,L,6,0.166399,0.764367,0.127189
10,8,1,2,2,1,1,I,1,S,1,S,12,0.546349,0.704517,0.384912
10,9,8,1,2,8,1,I,7,L,6,S,9,0.733887,0.463826,0.340396
10,10,8,1,9,8,1,C,7,L,1,S,7,0.733941,0.257204,0.188773
10,11,8,9,2,8,1,C,1,S,6,S,8,0.324605,0.711838,0.231066
10,12,2,9,8,1,1,I,7,L,7,L,10,0.531504,0.724197,0.384914
10,13,2,9,2,9,1,C,7,L,7,L,7,0.175076,0.842151,0.147441
10,14,9,2,8,2,1,C,7,L,6,S,6,0.706025,0.20042,0.141501
10,15,9,8,9,1,1,C,1,S,8,L,8,0.764141,0.28516,0.217902
10,16,9,8,2,9,0,I,1,S,7,L,10,0.420565,0.736586,0.309782
10,17,1,9,8,9,1,C,8,L,1,S,7,0.250428,0.745379,0.186664
10,18,1,8,9,8,1,I,7,L,1,S,7,0.276569,0.714302,0.197554
10,19,1,8,9,2,1,I,7,L,7,L,9,0.47525,0.725228,0.344665
10,20,9,1,1,9,1,I,8,L,8,L,9,0.720696,0.492454,0.35491
10,21,8,2,1,8,1,I,6,S,7,L,10,0.720168,0.536507,0.386375
10,22,9,8,1,9,0,I,1,S,8,L,9,0.385186,0.729084,0.280833
10,23,9,1,2,9,1,I,8,L,7,L,9,0.741788,0.460927,0.34191
10,24,2,9,2,1,1,I,7,L,1,S,8,0.37288,0.703376,0.262275
10,25,8,9,8,9,1,C,1,S,1,S,12,0.417593,0.736309,0.307478
10,26,2,1,1,2,1,I,1,S,1,S,11,0.713387,0.499824,0.356568
10,27,2,9,8,9,1,C,7,L,1,S,7,0.277529,0.702057,0.194841
10,28,1,8,9,1,1,I,7,L,8,L,9,0.500382,0.708253,0.354397
10,29,1,2,1,8,1,C,1,S,7,L,7,0.251153,0.728198,0.182889
10,30,1,2,9,1,1,I,1,S,8,L,16,0.66521,0.726169,0.483055
10,31,8,1,8,2,1,C,7,L,6,S,6,0.729002,0.185622,0.135319
10,32,2,9,2,8,1,C,7,L,6,S,7,0.175891,0.839959,0.147742
10,33,1,8,1,9,1,C,7,L,8,L,6,0.170932,0.755397,0.129121
10,34,9,8,2,8,0,I,1,S,6,S,10,0.421784,0.73402,0.309598
10,35,8,9,1,2,1,C,1,S,1,S,10,0.36781,0.744447,0.273815
10,36,8,9,1,9,1,C,1,S,8,L,8,0.303508,0.745128,0.226152
10,37,9,8,9,2,1,C,1,S,7,L,8,0.739447,0.301399,0.222869
10,38,9,8,8,1,1,C,1,S,7,L,8,0.756389,0.289632,0.219074
10,39,8,2,9,2,1,C,6,S,7,L,6,0.704736,0.20112,0.141736
10,40,9,1,8,1,1,C,8,L,7,L,6,0.758996,0.167362,0.127027
10,41,9,2,9,1,1,C,7,L,8,L,6,0.734991,0.182711,0.134291
10,42,2,9,9,2,1,I,7,L,7,L,10,0.514435,0.736614,0.37894
10,43,9,1,8,2,1,C,8,L,6,S,6,0.736657,0.181544,0.133736
10,44,1,8,8,1,1,I,7,L,7,L,9,0.492473,0.712986,0.351127
10,45,8,1,9,2,1,C,7,L,7,L,6,0.737088,0.181105,0.13349
10,46,9,1,9,2,1,C,8,L,7,L,6,0.744744,0.177026,0.131839
10,47,8,2,8,2,1,C,6,S,6,S,7,0.838461,0.174776,0.146543
10,48,8,2,9,8,1,C,6,S,1,S,8,0.796752,0.263551,0.209984
10,49,8,9,2,9,1,C,1,S,7,L,8,0.32362,0.71423,0.231139
10,50,1,9,9,2,1,I,8,L,7,L,9,0.469092,0.735874,0.345193
10,51,1,9,9,8,1,I,8,L,1,S,7,0.271307,0.724218,0.196485
10,52,2,8,9,1,1,I,6,S,8,L,10,0.548657,0.704377,0.386461
10,53,8,9,8,1,0,I,1,S,7,L,9,0.745302,0.362204,0.269952
10,54,8,1,8,9,1,I,7,L,1,S,7,0.713062,0.278365,0.198492
10,55,9,2,2,1,1,C,7,L,1,S,7,0.767117,0.223169,0.171196
10,56,2,1,8,1,1,C,1,S,7,L,7,0.7435,0.23812,0.177042
10,57,1,8,8,2,1,I,7,L,6,S,9,0.464889,0.731595,0.34011
10,58,2,1,2,1,1,C,1,S,1,S,8,0.741249,0.286873,0.212645
10,59,2,1,2,9,1,I,1,S,7,L,14,0.726197,0.627948,0.456014
10,60,9,1,2,8,1,I,8,L,6,S,9,0.742908,0.458418,0.340562
10,61,8,9,1,8,1,C,1,S,7,L,8,0.30422,0.743256,0.226114
10,62,9,1,9,1,1,C,8,L,8,L,6,0.765623,0.163835,0.125436
10,63,2,1,8,9,1,I,1,S,1,S,10,0.759065,0.375421,0.284969
10,64,2,1,9,2,1,C,1,S,7,L,7,0.727477,0.249046,0.181175
10,65,2,8,1,9,1,C,6,S,8,L,6,0.196275,0.714251,0.14019
10,66,8,9,8,2,0,I,1,S,6,S,9,0.717717,0.380813,0.273316
10,67,9,1,1,2,1,I,8,L,1,S,8,0.756675,0.333274,0.25218
10,68,2,1,1,8,1,I,1,S,7,L,14,0.706951,0.653638,0.46209
10,69,2,1,8,2,1,C,1,S,6,S,7,0.718174,0.254386,0.182694
10,70,2,1,9,8,1,C,1,S,1,S,9,0.739854,0.338739,0.250618
10,71,9,8,2,1,1,C,1,S,1,S,9,0.711896,0.35538,0.252994
10,72,8,2,2,1,1,C,6,S,1,S,7,0.756427,0.229294,0.173444
10,73,2,8,2,8,1,C,6,S,6,S,7,0.183237,0.826741,0.151489
10,74,2,8,8,2,1,I,6,S,6,S,10,0.513268,0.72828,0.373803
10,75,1,2,9,8,1,I,1,S,1,S,10,0.388368,0.734552,0.285276
10,76,1,9,9,1,1,I,8,L,8,L,9,0.494224,0.718899,0.355297
10,77,1,8,2,9,1,C,7,L,7,L,6,0.187093,0.729518,0.136488
10,78,9,2,1,9,1,I,7,L,8,L,10,0.731118,0.530984,0.388212
10,79,1,9,8,1,1,I,8,L,7,L,9,0.486315,0.723632,0.351913
10,80,9,2,8,1,1,C,7,L,7,L,6,0.728364,0.186238,0.135649
10,81,8,2,9,1,1,C,6,S,8,L,6,0.725616,0.187928,0.136364
10,82,2,9,1,9,1,C,7,L,8,L,6,0.190126,0.725686,0.137972
10,83,8,2,8,9,1,I,6,S,1,S,8,0.765869,0.294937,0.225883
10,84,9,1,8,9,1,I,8,L,1,S,7,0.721504,0.27368,0.197461
10,85,9,1,2,1,1,C,8,L,1,S,7,0.801212,0.201736,0.161633
10,86,1,8,2,1,1,I,7,L,1,S,8,0.349236,0.738741,0.257995
10,87,8,1,2,1,1,C,7,L,1,S,7,0.79277,0.206422,0.163645
10,88,2,8,1,2,1,C,6,S,1,S,7,0.243068,0.737088,0.179163
10,89,1,8,1,8,1,C,7,L,7,L,6,0.171388,0.75382,0.129196
10,90,1,2,1,9,1,C,1,S,8,L,7,0.250557,0.729955,0.182896
10,91,8,1,1,8,1,I,7,L,7,L,9,0.712481,0.495924,0.353337
10,92,2,1,9,1,1,C,1,S,8,L,7,0.750855,0.234045,0.175734
10,93,2,8,8,1,1,I,6,S,7,L,10,0.540752,0.709259,0.383533
10,94,1,9,1,8,1,C,8,L,7,L,6,0.166855,0.76279,0.127275
10,95,1,2,1,2,1,C,1,S,1,S,8,0.312723,0.706106,0.220816
10,96,1,9,2,1,1,I,8,L,1,S,8,0.343438,0.749176,0.257296
10,97,1,2,8,1,1,I,1,S,7,L,15,0.667704,0.704261,0.470238
10,98,1,2,2,8,1,C,1,S,6,S,8,0.242524,0.811389,0.196781
10,99,2,1,1,9,1,I,1,S,8,L,14,0.705951,0.655595,0.462817
10,100,2,9,8,2,1,I,7,L,6,S,10,0.504021,0.743218,0.374597
10,101,8,2,2,8,1,I,6,S,6,S,10,0.742056,0.50453,0.37439
10,102,8,1,2,9,1,I,7,L,7,L,9,0.732768,0.466336,0.341716
10,103,1,9,1,2,1,C,8,L,1,S,7,0.208622,0.793628,0.165568
10,104,2,8,1,8,1,C,6,S,7,L,6,0.196731,0.712675,0.140206
10,105,1,8,8,9,1,C,7,L,1,S,7,0.25569,0.735463,0.18805
10,106,8,2,1,2,1,I,6,S,1,S,8,0.709323,0.363257,0.257667
10,107,2,8,8,9,1,C,6,S,1,S,8,0.26741,0.788981,0.210981
10,108,1,2,8,9,1,C,1,S,1,S,9,0.353586,0.716862,0.253472
10,109,2,8,2,1,1,I,6,S,1,S,9,0.394036,0.75101,0.295925
10,110,2,9,9,1,1,I,7,L,8,L,10,0.53941,0.719314,0.388005
10,111,8,1,8,1,1,C,7,L,7,L,6,0.75134,0.17144,0.12881
10,112,1,9,2,9,1,C,8,L,7,L,6,0.18256,0.738488,0.134818
10,113,8,9,9,1,0,I,1,S,8,L,9,0.75321,0.357471,0.269251
10,114,2,9,9,8,1,I,7,L,1,S,8,0.290041,0.771899,0.223882
10,115,8,9,2,1,0,I,1,S,1,S,12,0.717635,0.47693,0.342261
10,116,9,2,9,2,1,C,7,L,7,L,6,0.714112,0.195902,0.139896
10,117,9,8,8,9,1,I,1,S,1,S,14,0.72981,0.500617,0.365355
10,118,9,8,8,2,1,C,1,S,6,S,8,0.729418,0.307353,0.224189
10,119,2,8,9,8,1,I,6,S,1,S,8,0.298292,0.757595,0.225985
10,120,9,8,1,2,1,I,1,S,1,S,18,0.711712,0.648957,0.461871
10,121,9,8,9,8,1,C,1,S,1,S,11,0.712772,0.416104,0.296587
10,122,8,1,1,2,1,I,7,L,1,S,8,0.747813,0.338397,0.253058
10,123,8,9,9,8,1,I,1,S,1,S,15,0.52792,0.700628,0.369875
10,124,2,9,1,2,1,C,7,L,1,S,7,0.235723,0.750306,0.176865
10,125,1,9,8,2,1,I,8,L,6,S,9,0.45873,0.742241,0.340488
10,126,8,1,1,9,1,I,7,L,8,L,9,0.711675,0.497863,0.354317
10,127,9,8,1,8,0,I,1,S,7,L,9,0.385991,0.727146,0.280672
10,128,2,1,2,8,1,I,1,S,6,S,14,0.727562,0.625443,0.455049
10,129,8,2,1,9,1,I,6,S,8,L,10,0.719292,0.538478,0.387323
10,130,9,2,1,2,1,I,7,L,1,S,8,0.720777,0.356462,0.25693
10,131,8,2,2,9,1,I,6,S,7,L,10,0.740837,0.507096,0.375675
10,132,8,2,8,1,1,C,6,S,7,L,6,0.718988,0.191455,0.137654
10,133,2,9,1,8,1,C,7,L,7,L,6,0.190582,0.72411,0.138003
10,134,1,8,2,8,1,C,7,L,6,S,6,0.187707,0.727627,0.136581
10,135,8,9,9,2,0,I,1,S,7,L,9,0.728078,0.374446,0.272626
10,136,9,2,8,9,1,I,7,L,1,S,8,0.777323,0.288141,0.223979
10,137,9,1,9,8,1,C,8,L,1,S,7,0.742383,0.252519,0.187466
10,138,8,1,9,1,1,C,7,L,8,L,6,0.757968,0.167913,0.127273
10,139,1,2,8,2,1,I,1,S,6,S,15,0.644589,0.721486,0.465062
10,140,9,2,1,8,1,I,7,L,7,L,10,0.731994,0.529013,0.387235
10,141,9,1,1,8,1,I,8,L,7,L,9,0.721502,0.490516,0.353908
10,142,2,8,2,9,1,C,6,S,7,L,7,0.182421,0.828933,0.151215
10,143,1,2,2,9,1,C,1,S,7,L,7,0.269051,0.700817,0.188555
10,144,1,8,1,2,1,C,7,L,1,S,7,0.213884,0.783712,0.167623
11,1,8,2,1,9,1,I,6,S,8,L,10,0.70014,0.553108,0.387253
11,2,2,9,2,9,1,C,7,L,7,L,6,0.19688,0.710442,0.139872
11,3,8,1,9,2,1,C,7,L,7,L,6,0.721773,0.191365,0.138122
11,4,9,8,9,2,1,C,1,S,7,L,8,0.710102,0.321591,0.228363
11,5,1,9,8,9,1,C,8,L,1,S,7,0.228954,0.766648,0.175527
11,6,1,2,8,2,1,I,1,S,6,S,13,0.617125,0.704619,0.434838
11,7,9,2,9,8,1,C,7,L,1,S,8,0.795785,0.262054,0.208539
11,8,9,2,1,2,1,I,7,L,1,S,8,0.701031,0.369641,0.25913
11,9,8,9,9,8,1,I,1,S,1,S,16,0.53853,0.727582,0.391825
11,10,2,8,9,1,1,I,6,S,8,L,10,0.540384,0.714345,0.386021
11,11,8,1,8,9,1,I,7,L,1,S,8,0.760227,0.316986,0.240981
11,12,1,8,1,8,1,C,7,L,7,L,6,0.174319,0.746038,0.130049
11,13,2,1,1,9,0,I,1,S,8,L,12,0.580639,0.704983,0.409341
11,14,1,8,8,2,1,I,7,L,6,S,9,0.451091,0.738788,0.333261
11,15,8,1,8,1,1,C,7,L,7,L,6,0.740172,0.179132,0.132588
11,16,8,1,9,1,1,C,7,L,8,L,6,0.749222,0.174282,0.130576
11,17,1,9,9,1,1,I,8,L,8,L,9,0.497516,0.712895,0.354677
11,18,2,1,9,8,1,C,1,S,1,S,10,0.774236,0.342675,0.265311
11,19,2,1,8,9,1,I,1,S,1,S,12,0.727542,0.501493,0.364857
11,20,1,2,9,2,1,I,1,S,7,L,14,0.628301,0.725083,0.45557
11,21,1,8,8,1,1,I,7,L,7,L,9,0.489323,0.71333,0.349049
11,22,9,8,1,9,0,I,1,S,8,L,9,0.354462,0.751932,0.266532
11,23,9,2,8,1,1,C,7,L,7,L,6,0.71229,0.195488,0.139244
11,24,2,1,2,9,1,I,1,S,7,L,16,0.719793,0.661691,0.476281
11,25,1,8,9,1,1,I,7,L,8,L,9,0.500172,0.706811,0.353527
11,26,2,1,1,8,1,I,1,S,7,L,16,0.713167,0.671286,0.478739
11,27,9,2,2,8,1,I,7,L,6,S,10,0.736257,0.50626,0.372738
11,28,1,2,8,1,1,I,1,S,7,L,14,0.647867,0.710143,0.460078
11,29,1,8,8,9,1,C,7,L,1,S,7,0.230966,0.761121,0.175793
11,30,2,9,9,8,1,I,7,L,1,S,8,0.291641,0.769652,0.224462
11,31,9,1,2,1,1,C,8,L,1,S,7,0.780584,0.212667,0.166005
11,32,8,9,9,2,0,I,1,S,7,L,9,0.715275,0.385433,0.275691
11,33,9,8,8,2,1,C,1,S,6,S,9,0.773346,0.315333,0.243861
11,34,9,1,2,9,1,I,8,L,7,L,9,0.722875,0.477363,0.345074
11,35,8,1,1,9,1,I,7,L,8,L,9,0.700201,0.506812,0.35487
11,36,2,8,8,1,1,I,6,S,7,L,10,0.529537,0.72107,0.381834
11,37,9,2,1,9,1,I,7,L,8,L,10,0.712714,0.5433,0.387218
11,38,2,8,2,1,1,I,6,S,1,S,8,0.35917,0.706275,0.253673
11,39,9,1,8,2,1,C,8,L,6,S,6,0.717648,0.192332,0.138027
11,40,2,9,1,2,1,C,7,L,1,S,7,0.230658,0.754998,0.174146
11,41,9,8,2,1,1,C,1,S,1,S,10,0.73372,0.368045,0.270042
11,42,9,1,9,8,1,C,8,L,1,S,7,0.735476,0.254395,0.187101
11,43,1,9,1,9,1,C,8,L,8,L,6,0.167521,0.760493,0.127399
11,44,1,9,2,9,1,C,8,L,7,L,6,0.177945,0.741731,0.131988
11,45,2,8,1,9,1,C,6,S,8,L,6,0.188467,0.723405,0.136338
11,46,9,1,1,8,1,I,8,L,7,L,9,0.715859,0.488697,0.349838
11,47,2,1,9,1,1,C,1,S,8,L,7,0.719255,0.257863,0.185469
11,48,1,8,2,8,1,C,7,L,6,S,6,0.185911,0.725473,0.134873
11,49,9,2,8,9,1,I,7,L,1,S,8,0.726581,0.337804,0.245442
11,50,2,8,2,9,1,C,6,S,7,L,6,0.198891,0.704643,0.140147
11,51,2,8,9,2,1,I,6,S,7,L,10,0.506971,0.737194,0.373736
11,52,1,9,9,2,1,I,8,L,7,L,9,0.463971,0.735244,0.341132
11,53,1,2,2,9,1,C,1,S,7,L,7,0.247977,0.729239,0.180834
11,54,8,2,9,2,1,C,6,S,7,L,7,0.823824,0.185719,0.153
11,55,2,9,2,8,1,C,7,L,6,S,7,0.172162,0.841299,0.14484
11,56,8,9,8,9,1,C,1,S,1,S,10,0.393175,0.709607,0.279
11,57,9,2,8,2,1,C,7,L,6,S,7,0.821636,0.185097,0.152083
11,58,8,9,8,1,0,I,1,S,7,L,9,0.737971,0.369603,0.272756
11,59,8,9,9,1,0,I,1,S,8,L,9,0.748819,0.363084,0.271884
11,60,9,1,8,9,1,I,8,L,1,S,8,0.768917,0.310346,0.23863
11,61,9,1,9,1,1,C,8,L,8,L,6,0.75677,0.168583,0.127579
11,62,9,8,9,1,1,C,1,S,8,L,8,0.742951,0.300299,0.223108
11,63,9,2,1,8,1,I,7,L,7,L,10,0.719836,0.532005,0.382956
11,64,2,1,8,2,1,C,1,S,6,S,8,0.78265,0.261314,0.204517
11,65,1,8,9,8,1,I,7,L,1,S,7,0.279094,0.709376,0.197983
11,66,1,9,8,1,1,I,8,L,7,L,9,0.486667,0.719414,0.350115
11,67,9,2,2,1,1,C,7,L,1,S,7,0.740676,0.237907,0.176212
11,68,2,8,1,8,1,C,6,S,7,L,6,0.193689,0.713905,0.138275
11,69,2,8,8,2,1,I,6,S,6,S,10,0.491289,0.747218,0.3671
11,70,1,2,1,2,1,C,1,S,1,S,8,0.293049,0.733346,0.214906
11,71,9,1,2,8,1,I,8,L,6,S,9,0.731751,0.463012,0.33881
11,72,9,1,8,1,1,C,8,L,7,L,6,0.74772,0.173433,0.129679
11,73,8,9,2,9,1,C,1,S,7,L,8,0.312153,0.728391,0.22737
11,74,2,9,1,9,1,C,7,L,8,L,6,0.186456,0.729204,0.135965
11,75,2,9,9,2,1,I,7,L,7,L,10,0.503197,0.744927,0.374845
11,76,8,2,2,8,1,I,6,S,6,S,10,0.723683,0.516068,0.37347
11,77,2,9,2,1,1,I,7,L,1,S,8,0.356068,0.713529,0.254065
11,78,8,2,8,1,1,C,6,S,7,L,6,0.702378,0.203022,0.142598
11,79,2,9,9,1,1,I,7,L,8,L,10,0.53661,0.722079,0.387474
11,80,9,8,2,8,0,I,1,S,6,S,9,0.377278,0.714933,0.269729
11,81,8,1,2,9,1,I,7,L,7,L,9,0.714142,0.484163,0.345761
11,82,2,1,2,1,1,C,1,S,1,S,9,0.78308,0.295554,0.231443
11,83,8,2,1,2,1,I,6,S,1,S,9,0.75126,0.390837,0.293621
11,84,9,2,9,2,1,C,7,L,7,L,7,0.835308,0.177131,0.147959
11,85,8,2,2,1,1,C,6,S,1,S,7,0.729193,0.246495,0.179743
11,86,8,2,9,8,1,C,6,S,1,S,8,0.783427,0.271346,0.21258
11,87,2,1,1,2,1,I,1,S,1,S,13,0.721168,0.558487,0.402764
11,88,8,1,2,8,1,I,7,L,6,S,9,0.723017,0.469812,0.339683
11,89,2,9,8,9,1,C,7,L,1,S,7,0.250646,0.731546,0.183359
11,90,8,2,1,8,1,I,6,S,7,L,10,0.707263,0.541812,0.383204
11,91,2,9,8,1,1,I,7,L,7,L,10,0.525763,0.728803,0.383178
11,92,2,9,1,8,1,C,7,L,7,L,6,0.191678,0.719705,0.137952
11,93,1,8,2,9,1,C,7,L,7,L,6,0.179521,0.736776,0.132267
11,94,8,1,1,2,1,I,7,L,1,S,8,0.734677,0.348822,0.256272
11,95,1,2,1,8,1,C,1,S,7,L,7,0.24195,0.73966,0.178961
11,96,9,8,9,8,1,C,1,S,1,S,12,0.726708,0.419526,0.304873
11,97,8,1,2,1,1,C,7,L,1,S,7,0.772249,0.218953,0.169086
11,98,1,9,1,8,1,C,8,L,7,L,6,0.172743,0.750994,0.129729
11,99,9,1,9,2,1,C,8,L,7,L,6,0.729321,0.185667,0.135411
11,100,9,8,1,8,0,I,1,S,7,L,9,0.361387,0.740617,0.267649
11,101,8,9,2,8,1,C,1,S,6,S,8,0.320478,0.714476,0.228974
11,102,1,9,1,2,1,C,8,L,1,S,7,0.208966,0.790099,0.165104
11,103,1,8,1,9,1,C,7,L,8,L,6,0.169097,0.755537,0.127759
11,104,8,9,1,8,1,C,1,S,7,L,8,0.305528,0.73946,0.225925
11,105,9,8,2,9,0,I,1,S,7,L,9,0.368403,0.729284,0.26867
11,106,8,9,1,9,1,C,1,S,8,L,8,0.298966,0.750561,0.224392
11,107,8,1,1,8,1,I,7,L,7,L,9,0.707126,0.495497,0.350379
11,108,2,8,1,2,1,C,6,S,1,S,7,0.233263,0.748319,0.174555
11,109,8,2,8,2,1,C,6,S,6,S,7,0.810153,0.193686,0.156915
11,110,9,2,2,9,1,I,7,L,7,L,10,0.727068,0.52067,0.378562
11,111,1,8,2,1,1,I,7,L,1,S,8,0.334822,0.7448,0.249375
11,112,1,8,1,2,1,C,7,L,1,S,7,0.210978,0.784572,0.165528
11,113,8,2,2,9,1,I,6,S,7,L,10,0.714494,0.530477,0.379023
11,114,9,8,1,2,0,I,1,S,1,S,12,0.479141,0.707447,0.338967
11,115,1,9,8,2,1,I,8,L,6,S,9,0.448436,0.744872,0.334027
11,116,1,2,1,9,1,C,1,S,8,L,7,0.235948,0.7502,0.177008
11,117,1,2,9,1,1,I,1,S,8,L,14,0.65779,0.703552,0.46279
11,118,9,8,8,1,1,C,1,S,7,L,8,0.732324,0.306456,0.224425
11,119,1,9,2,1,1,I,8,L,1,S,8,0.332449,0.750684,0.249564
11,120,2,1,2,8,1,I,1,S,6,S,15,0.701064,0.658738,0.461818
11,121,8,9,1,2,1,C,1,S,1,S,10,0.358219,0.755959,0.270799
11,122,1,2,8,9,1,C,1,S,1,S,8,0.318598,0.70151,0.2235
11,123,8,9,8,2,0,I,1,S,6,S,10,0.744619,0.401772,0.299167
11,124,1,9,2,8,1,C,8,L,6,S,6,0.184335,0.730428,0.134643
11,125,1,8,9,2,1,I,7,L,7,L,9,0.466627,0.72916,0.340246
11,126,9,2,9,1,1,C,7,L,8,L,6,0.72134,0.190638,0.137515
11,127,1,2,2,8,1,C,1,S,6,S,7,0.255478,0.716293,0.182997
11,128,2,8,8,9,1,C,6,S,1,S,7,0.253251,0.724868,0.183574
11,129,1,2,2,1,1,I,1,S,1,S,11,0.493904,0.71392,0.352608
11,130,2,1,8,1,1,C,1,S,7,L,7,0.709187,0.263469,0.186849
11,131,1,9,9,8,1,I,8,L,1,S,7,0.277082,0.714903,0.198087
11,132,8,2,9,1,1,C,6,S,8,L,6,0.711428,0.198173,0.140985
11,133,2,8,9,8,1,I,6,S,1,S,8,0.294743,0.762398,0.224712
11,134,9,1,1,9,1,I,8,L,8,L,9,0.708935,0.500012,0.354476
11,135,9,8,8,9,1,I,1,S,1,S,20,0.700834,0.659693,0.462335
11,136,2,1,9,2,1,C,1,S,7,L,8,0.797571,0.25236,0.201275
11,137,9,1,1,2,1,I,8,L,1,S,8,0.743367,0.342182,0.254367
11,138,8,9,2,1,0,I,1,S,1,S,13,0.702906,0.519404,0.365092
11,139,8,1,9,8,1,C,7,L,1,S,7,0.72714,0.26068,0.189551
11,140,1,2,9,8,1,I,1,S,1,S,10,0.374943,0.758136,0.284258
11,141,8,2,8,9,1,I,6,S,1,S,8,0.714223,0.347096,0.247904
11,142,2,9,8,2,1,I,7,L,6,S,9,0.473242,0.706975,0.33457
11,143,8,1,8,2,1,C,7,L,6,S,6,0.7101,0.19803,0.140622
11,144,2,8,2,8,1,C,6,S,6,S,7,0.174768,0.834621,0.145865
12,1,9,1,9,1,1,C,8,L,8,L,6,0.759899,0.164562,0.125051
12,2,8,9,8,2,0,I,1,S,6,S,9,0.716249,0.383867,0.274945
12,3,9,1,2,1,1,C,8,L,1,S,7,0.810195,0.191972,0.155535
12,4,8,1,2,9,1,I,7,L,7,L,9,0.726799,0.469496,0.341229
12,5,8,1,1,9,1,I,7,L,8,L,9,0.704197,0.501632,0.353248
12,6,2,1,8,2,1,C,1,S,6,S,7,0.700109,0.265169,0.185647
12,7,8,1,2,1,1,C,7,L,1,S,7,0.804828,0.196716,0.158322
12,8,2,8,9,1,1,I,6,S,8,L,10,0.545172,0.711115,0.38768
12,9,1,9,8,9,1,C,8,L,1,S,7,0.248169,0.744916,0.184865
12,10,9,2,8,1,1,C,7,L,7,L,6,0.731421,0.182789,0.133696
12,11,9,2,2,9,1,I,7,L,7,L,9,0.702522,0.48471,0.34052
12,12,2,8,2,1,1,I,6,S,1,S,9,0.414353,0.741536,0.307258
12,13,1,8,9,2,1,I,7,L,7,L,9,0.471688,0.729777,0.344227
12,14,8,2,1,8,1,I,6,S,7,L,10,0.723611,0.531707,0.384749
12,15,1,2,2,8,1,C,1,S,6,S,8,0.247796,0.800528,0.198367
12,16,9,2,1,2,1,I,7,L,1,S,8,0.722159,0.347593,0.251017
12,17,9,8,1,8,0,I,1,S,7,L,9,0.35329,0.752826,0.265966
12,18,9,1,8,9,1,I,8,L,1,S,7,0.71022,0.280262,0.199048
12,19,1,2,9,1,1,I,1,S,8,L,16,0.670135,0.717555,0.480859
12,20,9,8,9,1,1,C,1,S,8,L,8,0.742647,0.304281,0.225973
12,21,1,2,1,8,1,C,1,S,7,L,7,0.252709,0.720996,0.182202
12,22,8,9,9,2,0,I,1,S,7,L,9,0.722225,0.379599,0.274156
12,23,8,1,1,2,1,I,7,L,1,S,8,0.745897,0.333195,0.248529
12,24,1,8,1,9,1,C,7,L,8,L,6,0.167205,0.75923,0.126947
12,25,9,1,9,2,1,C,8,L,7,L,6,0.736172,0.179735,0.132316
12,26,1,8,9,8,1,I,7,L,1,S,7,0.279262,0.713812,0.19934
12,27,1,8,8,2,1,I,7,L,6,S,9,0.465711,0.734045,0.341853
12,28,8,1,9,1,1,C,7,L,8,L,6,0.755006,0.168953,0.12756
12,29,2,8,9,8,1,I,6,S,1,S,8,0.300915,0.759137,0.228435
12,30,9,1,1,2,1,I,8,L,1,S,8,0.751439,0.328271,0.246676
12,31,1,9,8,2,1,I,8,L,6,S,9,0.46316,0.736054,0.34091
12,32,2,8,8,9,1,C,6,S,1,S,7,0.27761,0.700028,0.194335
12,33,2,9,8,2,1,I,7,L,6,S,10,0.507427,0.738391,0.37468
12,34,8,2,1,2,1,I,6,S,1,S,8,0.714843,0.353873,0.252964
12,35,2,9,1,9,1,C,7,L,8,L,6,0.187364,0.724034,0.135658
12,36,1,9,1,2,1,C,8,L,1,S,7,0.211599,0.78323,0.165731
12,37,1,9,1,9,1,C,8,L,8,L,6,0.164727,0.761163,0.125384
12,38,2,9,8,1,1,I,7,L,7,L,10,0.537367,0.717405,0.38551
12,39,2,9,8,9,1,C,7,L,1,S,7,0.274038,0.703283,0.192726
12,40,2,1,1,8,1,I,1,S,7,L,16,0.725608,0.659654,0.47865
12,41,1,9,2,8,1,C,8,L,6,S,6,0.186738,0.72801,0.135947
12,42,1,8,8,9,1,C,7,L,1,S,7,0.250755,0.742837,0.18627
12,43,2,1,2,9,1,I,1,S,7,L,15,0.716154,0.647336,0.463593
12,44,9,1,9,8,1,C,8,L,1,S,7,0.738726,0.251237,0.185596
12,45,9,8,2,1,1,C,1,S,1,S,9,0.703381,0.366853,0.258038
12,46,1,9,9,8,1,I,8,L,1,S,7,0.276675,0.715891,0.198069
12,47,2,8,8,2,1,I,6,S,6,S,10,0.511055,0.735144,0.375699
12,48,2,8,1,9,1,C,6,S,8,L,6,0.190663,0.721175,0.137501
12,49,9,8,8,9,1,I,1,S,1,S,19,0.714905,0.611262,0.436994
12,50,9,1,8,2,1,C,8,L,6,S,6,0.731398,0.183025,0.133864
12,51,9,2,9,8,1,C,7,L,1,S,7,0.710985,0.26911,0.191333
12,52,9,8,9,8,1,C,1,S,1,S,12,0.724817,0.42648,0.30912
12,53,8,9,2,8,1,C,1,S,6,S,8,0.325757,0.708297,0.230733
12,54,8,2,9,8,1,C,6,S,1,S,7,0.704059,0.275059,0.193658
12,55,1,2,8,1,1,I,1,S,7,L,16,0.666798,0.720143,0.48019
12,56,8,9,9,8,1,I,1,S,1,S,16,0.563047,0.710188,0.399869
12,57,8,2,8,9,1,I,6,S,1,S,8,0.763832,0.298865,0.228282
12,58,9,1,2,9,1,I,8,L,7,L,9,0.732306,0.464531,0.340179
12,59,8,1,1,8,1,I,7,L,7,L,9,0.708149,0.495662,0.351003
12,60,2,9,2,9,1,C,7,L,7,L,7,0.174122,0.839511,0.146178
12,61,8,2,8,2,1,C,6,S,6,S,6,0.700487,0.204162,0.143013
12,62,2,8,8,1,1,I,6,S,7,L,10,0.540995,0.714158,0.386356
12,63,1,9,8,1,1,I,8,L,7,L,9,0.493284,0.715454,0.352922
12,64,1,2,8,9,1,C,1,S,1,S,9,0.349988,0.717912,0.251261
12,65,2,1,2,1,1,C,1,S,1,S,8,0.736318,0.28694,0.211279
12,66,1,9,2,1,1,I,8,L,1,S,8,0.366404,0.729146,0.267162
12,67,9,8,2,9,0,I,1,S,7,L,9,0.37194,0.726659,0.270274
12,68,2,1,1,2,1,I,1,S,1,S,12,0.719518,0.517861,0.37261
12,69,8,1,9,8,1,C,7,L,1,S,7,0.73336,0.255981,0.187726
12,70,8,1,9,2,1,C,7,L,7,L,6,0.73128,0.184126,0.134647
12,71,1,9,2,9,1,C,8,L,7,L,6,0.182441,0.734684,0.134036
12,72,8,1,2,8,1,I,7,L,6,S,9,0.732677,0.4608,0.337618
12,73,9,1,1,8,1,I,8,L,7,L,9,0.713656,0.490698,0.350189
12,74,8,9,2,9,1,C,1,S,7,L,8,0.320209,0.716711,0.229498
12,75,1,8,2,1,1,I,7,L,1,S,8,0.369007,0.727056,0.268288
12,76,1,9,9,2,1,I,8,L,7,L,9,0.469136,0.731785,0.343307
12,77,2,1,1,9,1,I,1,S,8,L,16,0.722051,0.664552,0.479841
12,78,8,2,8,1,1,C,6,S,7,L,6,0.725315,0.188171,0.136483
12,79,9,2,2,1,1,C,7,L,1,S,7,0.782453,0.209845,0.164194
12,80,2,8,1,8,1,C,6,S,7,L,6,0.193765,0.716109,0.138757
12,81,1,8,2,9,1,C,7,L,7,L,6,0.184918,0.732751,0.135499
12,82,2,1,2,8,1,I,1,S,6,S,15,0.721631,0.640065,0.461891
12,83,1,8,8,1,1,I,7,L,7,L,9,0.495836,0.713445,0.353752
12,84,1,8,1,8,1,C,7,L,7,L,6,0.170307,0.754163,0.128439
12,85,8,2,2,1,1,C,6,S,1,S,7,0.775528,0.215794,0.167354
12,86,9,8,8,1,1,C,1,S,7,L,8,0.738448,0.307204,0.226854
12,87,8,2,1,9,1,I,6,S,8,L,10,0.719585,0.537636,0.386874
12,88,9,1,8,1,1,C,8,L,7,L,6,0.756226,0.167034,0.126315
12,89,8,9,8,9,1,C,1,S,1,S,11,0.425232,0.700841,0.29802
12,90,1,8,1,2,1,C,7,L,1,S,7,0.214185,0.781151,0.167311
12,91,2,8,2,8,1,C,6,S,6,S,7,0.182719,0.828489,0.151381
12,92,9,2,8,2,1,C,7,L,6,S,6,0.706593,0.198781,0.140457
12,93,8,9,2,1,0,I,1,S,1,S,11,0.710619,0.456629,0.324489
12,94,1,2,9,2,1,I,1,S,7,L,15,0.655917,0.708623,0.464798
12,95,2,8,1,2,1,C,6,S,1,S,7,0.24104,0.738342,0.17797
12,96,9,8,1,9,0,I,1,S,8,L,9,0.349338,0.758796,0.265076
12,97,8,2,9,2,1,C,6,S,7,L,6,0.705261,0.200872,0.141667
12,98,1,2,8,2,1,I,1,S,6,S,15,0.651069,0.712451,0.463855
12,99,8,1,8,2,1,C,7,L,6,S,6,0.726506,0.187416,0.136158
12,100,2,1,8,9,1,I,1,S,1,S,10,0.716409,0.40555,0.29054
12,101,9,8,1,2,0,I,1,S,1,S,12,0.47445,0.706275,0.335092
12,102,2,9,2,1,1,I,7,L,1,S,9,0.410645,0.74493,0.305901
12,103,1,2,2,1,1,I,1,S,1,S,13,0.581453,0.709657,0.412632
12,104,9,8,8,2,1,C,1,S,6,S,8,0.708881,0.32691,0.23174
12,105,8,9,1,8,1,C,1,S,7,L,8,0.302311,0.742397,0.224435
12,106,2,9,1,2,1,C,7,L,1,S,7,0.237467,0.741597,0.176105
12,107,2,9,9,1,1,I,7,L,8,L,10,0.541544,0.714362,0.386859
12,108,2,9,1,8,1,C,7,L,7,L,6,0.190466,0.718968,0.136939
12,109,9,2,1,8,1,I,7,L,7,L,10,0.730822,0.525319,0.383915
12,110,8,2,2,8,1,I,6,S,6,S,9,0.701024,0.482427,0.338193
12,111,1,9,1,8,1,C,8,L,7,L,6,0.167829,0.756096,0.126895
12,112,1,2,2,9,1,C,1,S,7,L,8,0.242248,0.808942,0.195965
12,113,2,9,2,8,1,C,7,L,6,S,7,0.179147,0.831744,0.149004
12,114,8,2,2,9,1,I,6,S,7,L,10,0.742546,0.505748,0.375541
12,115,9,2,8,9,1,I,7,L,1,S,8,0.771148,0.292584,0.225626
12,116,1,2,1,9,1,C,1,S,8,L,7,0.2492,0.726604,0.18107
12,117,2,9,9,8,1,I,7,L,1,S,8,0.297216,0.762552,0.226642
12,118,2,1,8,1,1,C,1,S,7,L,7,0.72803,0.246972,0.179803
12,119,1,2,9,8,1,I,1,S,1,S,10,0.406547,0.714807,0.290603
12,120,2,1,9,8,1,C,1,S,1,S,9,0.718915,0.34799,0.250175
12,121,2,9,9,2,1,I,7,L,7,L,10,0.51337,0.734047,0.376838
12,122,9,1,1,9,1,I,8,L,8,L,9,0.709704,0.496668,0.352487
12,123,9,2,1,9,1,I,7,L,8,L,10,0.726796,0.531248,0.386109
12,124,8,1,8,9,1,I,7,L,1,S,7,0.704853,0.285006,0.200887
12,125,9,2,9,2,1,C,7,L,7,L,6,0.711367,0.195491,0.139065
12,126,8,9,9,1,0,I,1,S,8,L,9,0.750606,0.360252,0.270407
12,127,9,2,9,1,1,C,7,L,8,L,6,0.735093,0.180318,0.13255
12,128,8,9,1,2,1,C,1,S,1,S,10,0.367501,0.739062,0.271606
12,129,9,8,9,2,1,C,1,S,7,L,8,0.714721,0.322829,0.230732
12,130,8,9,8,1,0,I,1,S,7,L,9,0.746374,0.363268,0.271133
12,131,2,1,9,1,1,C,1,S,8,L,7,0.73206,0.244226,0.178788
12,132,8,1,8,1,1,C,7,L,7,L,6,0.751334,0.171424,0.128797
12,133,2,8,9,2,1,I,6,S,7,L,10,0.516998,0.7308,0.377822
12,134,9,2,2,8,1,I,7,L,6,S,9,0.7084,0.476015,0.337209
12,135,8,2,9,1,1,C,6,S,8,L,6,0.728987,0.185699,0.135372
12,136,2,8,2,9,1,C,6,S,7,L,7,0.177695,0.836255,0.148598
12,137,8,9,1,9,1,C,1,S,8,L,8,0.298524,0.748282,0.22338
12,138,1,8,9,1,1,I,7,L,8,L,9,0.500068,0.71043,0.355263
12,139,1,9,9,1,1,I,8,L,8,L,9,0.497516,0.712438,0.354449
12,140,9,8,2,8,0,I,1,S,6,S,9,0.377819,0.717964,0.27126
12,141,1,8,2,8,1,C,7,L,6,S,6,0.189215,0.726077,0.137385
12,142,9,1,2,8,1,I,8,L,6,S,9,0.738184,0.455835,0.33649
12,143,1,2,1,2,1,C,1,S,1,S,9,0.28764,0.791851,0.227768
12,144,2,1,9,2,1,C,1,S,7,L,7,0.705571,0.261408,0.184442
13,1,8,9,1,2,1,C,1,S,1,S,10,0.358059,0.762679,0.273084
13,2,1,2,8,9,1,C,1,S,1,S,9,0.32786,0.743487,0.24376
13,3,2,1,1,8,1,I,1,S,7,L,16,0.720268,0.669044,0.481891
13,4,2,9,8,9,1,C,7,L,1,S,7,0.262891,0.721354,0.189637
13,5,1,8,9,1,1,I,7,L,8,L,9,0.495232,0.713718,0.353456
13,6,9,1,8,2,1,C,8,L,6,S,6,0.732384,0.18551,0.135865
13,7,8,9,8,2,0,I,1,S,6,S,9,0.718648,0.380857,0.273702
13,8,8,2,9,2,1,C,6,S,7,L,6,0.707847,0.19813,0.140246
13,9,2,9,2,1,1,I,7,L,1,S,8,0.363319,0.716943,0.260479
13,10,9,8,8,2,1,C,1,S,6,S,8,0.766897,0.279604,0.214427
13,11,9,2,8,1,1,C,7,L,7,L,6,0.740359,0.178886,0.13244
13,12,9,2,2,1,1,C,7,L,1,S,7,0.775585,0.217626,0.168787
13,13,8,9,8,1,0,I,1,S,7,L,9,0.752781,0.357609,0.269201
13,14,9,2,9,2,1,C,7,L,7,L,6,0.716146,0.193607,0.138651
13,15,2,8,9,1,1,I,6,S,8,L,10,0.547454,0.706004,0.386505
13,16,8,2,2,1,1,C,6,S,1,S,7,0.766237,0.222897,0.170792
13,17,2,1,8,9,1,I,1,S,1,S,11,0.742793,0.431117,0.320231
13,18,9,2,2,9,1,I,7,L,7,L,9,0.711596,0.48316,0.343814
13,19,9,1,8,1,1,C,8,L,7,L,6,0.75998,0.16777,0.127502
13,20,9,1,9,1,1,C,8,L,8,L,6,0.762392,0.165555,0.126218
13,21,8,1,2,8,1,I,7,L,6,S,9,0.733775,0.463738,0.34028
13,22,1,8,8,9,1,C,7,L,1,S,7,0.244368,0.748532,0.182917
13,23,8,2,1,2,1,I,6,S,1,S,8,0.710424,0.371836,0.264161
13,24,9,2,1,2,1,I,7,L,1,S,8,0.720366,0.366016,0.263665
13,25,8,1,1,2,1,I,7,L,1,S,8,0.734806,0.357051,0.262363
13,26,8,1,1,8,1,I,7,L,7,L,9,0.712585,0.495577,0.353141
13,27,8,9,8,9,1,C,1,S,1,S,11,0.421745,0.707474,0.298374
13,28,8,1,2,1,1,C,7,L,1,S,7,0.789287,0.209383,0.165263
13,29,1,8,1,8,1,C,7,L,7,L,6,0.170255,0.75637,0.128776
13,30,9,1,9,8,1,C,8,L,1,S,7,0.743399,0.250662,0.186342
13,31,1,2,1,9,1,C,1,S,8,L,7,0.24064,0.738257,0.177654
13,32,1,2,9,1,1,I,1,S,8,L,15,0.664485,0.707385,0.470047
13,33,9,8,1,9,0,I,1,S,8,L,10,0.467161,0.719624,0.33618
13,34,8,9,9,1,0,I,1,S,8,L,9,0.755487,0.355119,0.268288
13,35,8,2,8,2,1,C,6,S,6,S,6,0.704465,0.201148,0.141702
13,36,2,8,8,1,1,I,6,S,7,L,10,0.544837,0.708457,0.385994
13,37,9,2,1,8,1,I,7,L,7,L,10,0.74472,0.519201,0.386659
13,38,1,2,2,1,1,I,1,S,1,S,12,0.532779,0.716443,0.381706
13,39,2,9,9,2,1,I,7,L,7,L,9,0.483284,0.70678,0.341575
13,40,1,2,2,9,1,C,1,S,7,L,7,0.257346,0.71146,0.183092
13,41,2,8,2,1,1,I,6,S,1,S,9,0.391707,0.754158,0.295409
13,42,8,9,2,1,0,I,1,S,1,S,12,0.722426,0.471119,0.340349
13,43,9,1,1,8,1,I,8,L,7,L,9,0.721217,0.490395,0.353681
13,44,9,8,2,9,0,I,1,S,7,L,11,0.518577,0.708461,0.367392
13,45,1,2,1,8,1,C,1,S,7,L,7,0.245522,0.731574,0.179617
13,46,9,2,9,8,1,C,7,L,1,S,7,0.721627,0.263391,0.19007
13,47,2,9,2,9,1,C,7,L,7,L,6,0.19695,0.714108,0.140644
13,48,9,1,1,9,1,I,8,L,8,L,9,0.715926,0.497379,0.356087
13,49,2,8,8,2,1,I,6,S,6,S,10,0.510841,0.732202,0.374039
13,50,2,8,9,2,1,I,6,S,7,L,10,0.515043,0.728498,0.375208
13,51,1,9,2,9,1,C,8,L,7,L,6,0.171533,0.753733,0.12929
13,52,9,8,9,2,1,C,1,S,7,L,8,0.771097,0.276003,0.212825
13,53,2,8,1,2,1,C,6,S,1,S,7,0.235104,0.751026,0.176569
13,54,8,2,1,9,1,I,6,S,8,L,10,0.729206,0.532456,0.38827
13,55,2,9,9,8,1,I,7,L,1,S,8,0.287421,0.778728,0.223823
13,56,1,9,9,2,1,I,8,L,7,L,9,0.451308,0.753412,0.340021
13,57,1,8,2,1,1,I,7,L,1,S,8,0.343446,0.745531,0.25605
13,58,1,2,9,8,1,I,1,S,1,S,10,0.387326,0.735068,0.284711
13,59,2,8,2,9,1,C,6,S,7,L,7,0.179008,0.835025,0.149476
13,60,2,1,1,2,1,I,1,S,1,S,13,0.720297,0.569431,0.41016
13,61,9,1,2,8,1,I,8,L,6,S,9,0.742407,0.458556,0.340435
13,62,8,1,8,9,1,I,7,L,1,S,7,0.703181,0.288228,0.202676
13,63,8,1,9,8,1,C,7,L,1,S,7,0.735329,0.255148,0.187618
13,64,8,1,1,9,1,I,7,L,8,L,9,0.707295,0.502561,0.355459
13,65,8,9,9,2,0,I,1,S,7,L,9,0.722922,0.377156,0.272654
13,66,1,2,8,1,1,I,1,S,7,L,15,0.662616,0.709321,0.470008
13,67,9,1,8,9,1,I,8,L,1,S,7,0.711251,0.283742,0.201812
13,68,1,9,9,8,1,I,8,L,1,S,7,0.266421,0.732163,0.195064
13,69,9,1,2,9,1,I,8,L,7,L,9,0.734927,0.468563,0.34436
13,70,1,2,1,2,1,C,1,S,1,S,8,0.292889,0.730159,0.213855
13,71,2,1,2,9,1,I,1,S,7,L,15,0.70654,0.659697,0.466103
13,72,2,9,1,9,1,C,7,L,8,L,6,0.1823,0.738082,0.134552
13,73,1,8,1,2,1,C,7,L,1,S,7,0.201915,0.801652,0.161865
13,74,9,2,8,9,1,I,7,L,1,S,8,0.776355,0.293281,0.22769
13,75,1,8,1,9,1,C,7,L,8,L,6,0.16583,0.762455,0.126438
13,76,8,2,2,9,1,I,6,S,7,L,9,0.701403,0.489343,0.343227
13,77,2,1,9,1,1,C,1,S,8,L,7,0.723669,0.253625,0.183541
13,78,1,8,8,1,1,I,7,L,7,L,9,0.492526,0.716207,0.35275
13,79,2,9,2,8,1,C,7,L,6,S,6,0.202795,0.706141,0.143202
13,80,2,9,9,1,1,I,7,L,8,L,10,0.529892,0.731929,0.387844
13,81,8,2,9,1,1,C,6,S,8,L,6,0.734473,0.181193,0.133082
13,82,8,9,1,8,1,C,1,S,7,L,8,0.308957,0.739661,0.228523
13,83,8,2,8,9,1,I,6,S,1,S,8,0.766413,0.2991,0.229234
13,84,9,8,1,2,1,I,1,S,1,S,15,0.721666,0.61353,0.442764
13,85,2,8,1,9,1,C,6,S,8,L,6,0.194899,0.71766,0.139871
13,86,9,8,9,8,1,C,1,S,1,S,10,0.735021,0.375161,0.275752
13,87,9,8,1,8,0,I,1,S,7,L,10,0.472468,0.71276,0.336756
13,88,9,2,2,8,1,I,7,L,6,S,9,0.719075,0.473152,0.340232
13,89,1,8,2,9,1,C,7,L,7,L,6,0.180481,0.738481,0.133281
13,90,2,1,8,2,1,C,1,S,6,S,8,0.800648,0.250232,0.200347
13,91,1,8,2,8,1,C,7,L,6,S,6,0.186325,0.730513,0.136113
13,92,8,2,1,8,1,I,6,S,7,L,10,0.734513,0.525592,0.386054
13,93,8,1,9,2,1,C,7,L,7,L,6,0.728457,0.186393,0.135779
13,94,8,2,9,8,1,C,6,S,1,S,7,0.712279,0.268662,0.191362
13,95,8,1,8,1,1,C,7,L,7,L,6,0.75267,0.171671,0.129212
13,96,1,9,8,9,1,C,8,L,1,S,7,0.234273,0.765243,0.179276
13,97,8,2,2,8,1,I,6,S,6,S,9,0.708883,0.479336,0.339793
13,98,2,9,1,8,1,C,7,L,7,L,6,0.186725,0.731997,0.136682
13,99,1,9,2,8,1,C,8,L,6,S,6,0.177378,0.745766,0.132283
13,100,9,2,9,1,1,C,7,L,8,L,6,0.742772,0.176671,0.131226
13,101,1,8,8,2,1,I,7,L,6,S,9,0.458393,0.739455,0.338961
13,102,2,8,9,8,1,I,6,S,1,S,8,0.30357,0.753537,0.228751
13,103,2,9,1,2,1,C,7,L,1,S,7,0.220437,0.774474,0.170723
13,104,2,9,8,2,1,I,7,L,6,S,9,0.479009,0.710482,0.340327
13,105,1,9,1,2,1,C,8,L,1,S,7,0.19182,0.818363,0.156978
13,106,9,8,2,1,1,C,1,S,1,S,9,0.763998,0.316767,0.242009
13,107,9,8,9,1,1,C,1,S,8,L,8,0.802998,0.254975,0.204745
