ANN,trial,N1,N2,P1,P2,Succ.,Cong,Ndist,Ndist,Pdist,Pdist,rt,a1,a2,x_acc
1,1,1,8,8,9,1,C,7,L,1,S,8,0.228735,0.846873,0.193709
1,2,8,1,8,1,1,C,7,L,7,L,7,0.895839,0.139776,0.125216
1,3,9,8,1,2,1,I,1,S,1,S,24,0.80547,0.605709,0.487881
1,4,2,9,1,2,1,C,7,L,1,S,8,0.19329,0.882943,0.170664
1,5,1,8,8,1,1,I,7,L,7,L,11,0.511344,0.803567,0.410899
1,6,2,8,8,2,1,I,6,S,6,S,12,0.520463,0.811655,0.422437
1,7,1,9,9,8,1,I,8,L,1,S,8,0.270194,0.80233,0.216785
1,8,8,1,1,8,1,I,7,L,7,L,12,0.827951,0.526042,0.435537
1,9,2,9,9,2,1,I,7,L,7,L,12,0.529739,0.802966,0.425363
1,10,2,8,8,1,1,I,6,S,7,L,13,0.548943,0.820249,0.45027
1,11,1,2,9,2,1,I,1,S,7,L,19,0.614499,0.802486,0.493127
1,12,1,9,2,9,1,C,8,L,7,L,7,0.152785,0.875665,0.133788
1,13,9,1,9,1,1,C,8,L,8,L,7,0.919257,0.124824,0.114745
1,14,9,8,8,1,1,C,1,S,7,L,9,0.832661,0.277383,0.230966
1,15,9,2,8,1,1,C,7,L,7,L,7,0.87912,0.152207,0.133808
1,16,2,1,2,9,1,I,1,S,7,L,17,0.812557,0.594539,0.483097
1,17,1,8,2,8,1,C,7,L,6,S,7,0.153912,0.873036,0.134371
1,18,8,2,2,8,1,I,6,S,6,S,12,0.811217,0.522386,0.423768
1,19,2,8,2,1,1,I,6,S,1,S,10,0.389922,0.815967,0.318163
1,20,2,9,1,9,1,C,7,L,8,L,7,0.160165,0.863109,0.138239
1,21,1,9,8,2,1,I,8,L,6,S,11,0.48474,0.822473,0.398685
1,22,1,9,1,9,1,C,8,L,8,L,7,0.13195,0.907824,0.119787
1,23,1,9,2,1,1,I,8,L,1,S,9,0.351162,0.808893,0.284052
1,24,9,2,8,9,1,I,7,L,1,S,9,0.857376,0.281248,0.241136
1,25,9,2,9,1,1,C,7,L,8,L,7,0.884009,0.147951,0.13079
1,26,1,2,2,8,1,C,1,S,6,S,8,0.249699,0.803271,0.200576
1,27,8,2,1,9,1,I,6,S,8,L,13,0.813299,0.560211,0.455619
1,28,8,9,9,1,0,I,1,S,8,L,11,0.826399,0.373491,0.308653
1,29,2,8,8,9,1,C,6,S,1,S,8,0.258676,0.800371,0.207037
1,30,2,9,9,1,1,I,7,L,8,L,13,0.555589,0.813781,0.452128
1,31,9,2,1,2,1,I,7,L,1,S,10,0.82355,0.40222,0.331248
1,32,2,9,9,8,1,I,7,L,1,S,9,0.288849,0.834283,0.240982
1,33,1,2,1,9,1,C,1,S,8,L,8,0.223836,0.8422,0.188515
1,34,2,8,9,1,1,I,6,S,8,L,13,0.553077,0.816284,0.451468
1,35,1,2,1,8,1,C,1,S,7,L,8,0.226057,0.838854,0.189629
1,36,8,2,2,1,1,C,6,S,1,S,8,0.864368,0.207204,0.1791
1,37,9,2,9,8,1,C,7,L,1,S,8,0.818991,0.248779,0.203748
1,38,8,9,8,2,0,I,1,S,6,S,12,0.818018,0.408431,0.334104
1,39,1,9,1,8,1,C,8,L,7,L,7,0.134023,0.90462,0.12124
1,40,8,2,1,2,1,I,6,S,1,S,11,0.838894,0.42869,0.359626
1,41,8,9,1,8,1,C,1,S,7,L,9,0.283788,0.826513,0.234555
1,42,2,9,8,1,1,I,7,L,7,L,13,0.551456,0.817746,0.450951
1,43,2,1,1,2,1,I,1,S,1,S,14,0.806615,0.529443,0.427057
1,44,2,8,1,8,1,C,6,S,7,L,7,0.15961,0.862766,0.137706
1,45,9,1,8,2,1,C,8,L,6,S,7,0.887634,0.146837,0.130337
1,46,8,1,1,2,1,I,7,L,1,S,10,0.840917,0.388606,0.326786
1,47,9,1,1,9,1,I,8,L,8,L,11,0.811873,0.512442,0.416038
1,48,9,1,2,9,1,I,8,L,7,L,11,0.835904,0.478741,0.400182
1,49,1,9,9,2,1,I,8,L,7,L,11,0.491743,0.816283,0.401401
1,50,9,1,1,8,1,I,8,L,7,L,11,0.814205,0.509168,0.414567
1,51,8,9,1,2,1,C,1,S,1,S,11,0.312949,0.85161,0.26651
1,52,9,2,9,2,1,C,7,L,7,L,7,0.859175,0.164236,0.141107
1,53,8,1,2,1,1,C,7,L,1,S,8,0.907802,0.178033,0.161618
1,54,1,2,1,2,1,C,1,S,1,S,9,0.268078,0.828465,0.222093
1,55,9,8,2,8,0,I,1,S,6,S,13,0.464396,0.801819,0.372361
1,56,9,1,2,1,1,C,8,L,1,S,7,0.802901,0.202366,0.16248
1,57,8,9,2,8,1,C,1,S,6,S,10,0.283535,0.866333,0.245636
1,58,2,1,1,8,1,I,1,S,7,L,18,0.812669,0.609694,0.495479
1,59,8,9,2,9,1,C,1,S,7,L,10,0.279968,0.871381,0.243959
1,60,2,1,8,2,1,C,1,S,6,S,8,0.84795,0.217176,0.184154
1,61,8,1,8,2,1,C,7,L,6,S,7,0.869105,0.157533,0.136913
1,62,2,9,2,9,1,C,7,L,7,L,7,0.180999,0.83095,0.150401
1,63,9,8,2,1,1,C,1,S,1,S,11,0.849026,0.31205,0.264939
1,64,9,1,1,2,1,I,8,L,1,S,9,0.810014,0.365246,0.295855
1,65,9,8,9,2,1,C,1,S,7,L,9,0.810858,0.29135,0.236244
1,66,8,2,9,2,1,C,6,S,7,L,7,0.834967,0.178712,0.149218
1,67,2,8,9,2,1,I,6,S,7,L,12,0.527096,0.805666,0.424663
1,68,1,8,8,2,1,I,7,L,6,S,11,0.482916,0.824226,0.398032
1,69,2,1,8,1,1,C,1,S,7,L,8,0.876487,0.197853,0.173415
1,70,8,1,9,8,1,C,7,L,1,S,8,0.836502,0.235586,0.197068
1,71,9,8,9,8,1,C,1,S,1,S,13,0.841263,0.349525,0.294042
1,72,9,2,2,1,1,C,7,L,1,S,8,0.890292,0.191226,0.170247
1,73,1,2,2,9,1,C,1,S,7,L,8,0.246397,0.808176,0.199132
1,74,2,9,8,2,1,I,7,L,6,S,12,0.523107,0.808955,0.42317
1,75,9,8,1,9,0,I,1,S,8,L,11,0.396777,0.811289,0.321901
1,76,1,9,8,9,1,C,8,L,1,S,8,0.230668,0.844904,0.194893
1,77,9,2,2,8,1,I,7,L,6,S,11,0.803349,0.499828,0.401537
1,78,2,8,9,8,1,I,6,S,1,S,9,0.286014,0.837373,0.2395
1,79,9,8,2,9,0,I,1,S,7,L,13,0.460953,0.806411,0.371717
1,80,9,8,9,1,1,C,1,S,8,L,9,0.837713,0.2729,0.228612
1,81,9,1,9,2,1,C,8,L,7,L,7,0.894422,0.141109,0.126211
1,82,8,9,8,1,0,I,1,S,7,L,11,0.821718,0.377811,0.310454
1,83,8,2,9,8,1,C,6,S,1,S,9,0.887614,0.237592,0.21089
1,84,2,8,2,9,1,C,6,S,7,L,7,0.178372,0.833812,0.148729
1,85,2,8,1,9,1,C,6,S,8,L,7,0.157537,0.865971,0.136423
1,86,1,9,2,8,1,C,8,L,6,S,7,0.155795,0.871117,0.135715
1,87,1,8,1,9,1,C,7,L,8,L,7,0.130068,0.909743,0.118328
1,88,1,8,9,8,1,I,7,L,1,S,8,0.268261,0.804299,0.215762
1,89,9,8,8,2,1,C,1,S,6,S,9,0.80346,0.297639,0.239141
1,90,9,2,1,9,1,I,7,L,8,L,12,0.809537,0.542313,0.439022
1,91,2,1,9,2,1,C,1,S,7,L,8,0.855218,0.211065,0.180506
1,92,9,1,8,9,1,I,8,L,1,S,8,0.816377,0.26654,0.217597
1,93,9,8,8,9,1,I,1,S,1,S,19,0.809558,0.541512,0.438385
1,94,8,2,8,9,1,I,6,S,1,S,9,0.830731,0.298197,0.247722
1,95,8,2,9,1,1,C,6,S,8,L,7,0.859801,0.162427,0.139655
1,96,2,1,8,9,1,I,1,S,1,S,11,0.823129,0.366814,0.301935
1,97,8,9,9,2,0,I,1,S,7,L,11,0.800292,0.39228,0.313939
1,98,2,1,9,8,1,C,1,S,1,S,10,0.847412,0.290434,0.246117
1,99,2,8,2,8,1,C,6,S,6,S,7,0.181382,0.829264,0.150413
1,100,8,1,2,8,1,I,7,L,6,S,11,0.820164,0.486392,0.398922
1,101,8,2,1,8,1,I,6,S,7,L,13,0.815543,0.557145,0.454376
1,102,1,8,9,2,1,I,7,L,7,L,11,0.489919,0.818036,0.400771
1,103,8,2,8,2,1,C,6,S,6,S,7,0.828179,0.18444,0.152749
1,104,9,8,1,8,0,I,1,S,7,L,11,0.399108,0.808015,0.322485
1,105,1,8,1,8,1,C,7,L,7,L,7,0.132141,0.906538,0.119791
1,106,2,8,1,2,1,C,6,S,1,S,8,0.190512,0.885996,0.168793
1,107,1,8,9,1,1,I,7,L,8,L,12,0.520403,0.832246,0.433103
1,108,2,9,1,8,1,C,7,L,7,L,7,0.162238,0.859904,0.139509
1,109,1,2,2,1,1,I,1,S,1,S,16,0.543176,0.81744,0.444014
1,110,1,9,1,2,1,C,8,L,1,S,7,0.200628,0.802196,0.160943
1,111,1,8,1,2,1,C,7,L,1,S,7,0.198746,0.804115,0.159815
1,112,2,1,2,8,1,I,1,S,6,S,17,0.815486,0.590746,0.481745
1,113,9,2,8,2,1,C,7,L,6,S,7,0.852387,0.169964,0.144875
1,114,1,2,9,1,1,I,1,S,8,L,20,0.622445,0.80534,0.50128
1,115,9,1,2,8,1,I,8,L,6,S,10,0.800327,0.464711,0.371921
1,116,8,1,9,2,1,C,7,L,7,L,7,0.875893,0.151805,0.132965
1,117,8,2,8,1,1,C,6,S,7,L,7,0.854913,0.166682,0.142499
1,118,1,2,8,1,1,I,1,S,7,L,20,0.61996,0.807963,0.500905
1,119,8,9,1,9,1,C,1,S,8,L,9,0.281483,0.829896,0.233602
1,120,9,2,2,9,1,I,7,L,7,L,12,0.833239,0.509659,0.424668
1,121,2,1,2,1,1,C,1,S,1,S,9,0.857072,0.246306,0.211102
1,122,1,2,8,2,1,I,1,S,6,S,19,0.610593,0.806436,0.492405
1,123,9,2,1,8,1,I,7,L,7,L,12,0.811834,0.539137,0.43769
1,124,1,9,9,1,1,I,8,L,8,L,12,0.522142,0.830617,0.4337
1,125,8,1,9,1,1,C,7,L,8,L,7,0.900728,0.13552,0.122067
1,126,8,9,9,8,1,I,1,S,1,S,20,0.537256,0.809341,0.434823
1,127,8,1,8,9,1,I,7,L,1,S,9,0.875031,0.267689,0.234236
1,128,1,8,2,9,1,C,7,L,7,L,7,0.150903,0.877584,0.13243
1,129,1,2,8,9,1,C,1,S,1,S,10,0.323826,0.802109,0.259744
1,130,2,1,1,9,1,I,1,S,8,L,18,0.810777,0.612246,0.496395
1,131,9,1,8,1,1,C,8,L,7,L,7,0.914368,0.129079,0.118026
1,132,8,9,2,1,1,I,1,S,1,S,25,0.606377,0.801502,0.486013
1,133,8,1,1,9,1,I,7,L,8,L,12,0.825653,0.529218,0.43695
1,134,1,2,9,8,1,I,1,S,1,S,12,0.38192,0.824272,0.314806
1,135,1,9,8,1,1,I,8,L,7,L,11,0.513168,0.801814,0.411465
1,136,2,1,9,1,1,C,1,S,8,L,8,0.881556,0.19342,0.170511
1,137,2,9,8,9,1,C,7,L,1,S,9,0.231966,0.894889,0.207584
1,138,2,9,2,8,1,C,7,L,6,S,7,0.184009,0.826402,0.152065
1,139,9,1,9,8,1,C,8,L,1,S,8,0.855903,0.223966,0.191693
1,140,8,9,8,9,1,C,1,S,1,S,13,0.359901,0.830196,0.298788
1,141,8,1,2,9,1,I,7,L,7,L,11,0.816588,0.491339,0.401221
1,142,2,9,2,1,1,I,7,L,1,S,10,0.392742,0.812949,0.319279
1,143,1,8,2,1,1,I,7,L,1,S,9,0.34923,0.810833,0.283167
1,144,8,2,2,9,1,I,6,S,7,L,12,0.807687,0.527171,0.425789
2,1,2,1,8,1,1,C,1,S,7,L,8,0.839985,0.220395,0.185129
2,2,2,8,9,8,1,I,6,S,1,S,9,0.271556,0.856752,0.232656
2,3,1,2,8,2,1,I,1,S,6,S,20,0.604058,0.811942,0.49046
2,4,1,8,9,8,1,I,7,L,1,S,8,0.264145,0.809445,0.213811
2,5,2,9,2,1,1,I,7,L,1,S,10,0.364325,0.842257,0.306855
2,6,8,2,8,1,1,C,6,S,7,L,7,0.848583,0.169303,0.143667
2,7,1,8,9,2,1,I,7,L,7,L,11,0.486705,0.819834,0.399017
2,8,9,2,2,9,1,I,7,L,7,L,12,0.8195,0.52136,0.427254
2,9,8,2,8,9,1,I,6,S,1,S,10,0.856275,0.332821,0.284986
2,10,1,2,2,1,1,I,1,S,1,S,16,0.541715,0.808969,0.438231
2,11,2,8,1,2,1,C,6,S,1,S,8,0.184052,0.893817,0.164509
2,12,8,1,9,1,1,C,7,L,8,L,7,0.892461,0.140502,0.125393
2,13,1,2,1,2,1,C,1,S,1,S,9,0.274635,0.812959,0.223267
2,14,8,9,2,1,1,I,1,S,1,S,19,0.568812,0.814933,0.463544
2,15,9,1,1,2,1,I,8,L,1,S,10,0.848373,0.381093,0.323309
2,16,8,9,8,2,1,I,1,S,6,S,22,0.616708,0.804491,0.496136
2,17,2,1,2,1,1,C,1,S,1,S,9,0.802859,0.280253,0.225004
2,18,8,9,2,8,1,C,1,S,6,S,9,0.250289,0.858186,0.214794
2,19,2,9,9,2,1,I,7,L,7,L,12,0.510678,0.826235,0.42194
2,20,9,2,9,1,1,C,7,L,8,L,7,0.879132,0.151689,0.133355
2,21,9,8,2,8,0,I,1,S,6,S,11,0.380591,0.809644,0.308143
2,22,9,8,1,9,0,I,1,S,8,L,10,0.351967,0.809369,0.284871
2,23,1,9,9,8,1,I,8,L,1,S,8,0.259869,0.815705,0.211977
2,24,1,8,8,2,1,I,7,L,6,S,11,0.47537,0.827333,0.393289
2,25,2,1,9,1,1,C,1,S,8,L,8,0.847748,0.215842,0.182979
2,26,8,1,1,2,1,I,7,L,1,S,10,0.828637,0.393336,0.325932
2,27,1,2,9,2,1,I,1,S,7,L,20,0.612203,0.806211,0.493565
2,28,8,1,1,8,1,I,7,L,7,L,12,0.818934,0.527928,0.432338
2,29,8,2,9,2,1,C,6,S,7,L,7,0.824281,0.184828,0.15235
2,30,1,9,1,8,1,C,8,L,7,L,7,0.13128,0.906151,0.118959
2,31,8,2,1,2,1,I,6,S,1,S,11,0.831227,0.430817,0.358107
2,32,1,8,2,1,1,I,7,L,1,S,9,0.338846,0.816154,0.27655
2,33,2,8,1,9,1,C,6,S,8,L,7,0.15195,0.87429,0.132849
2,34,2,8,8,9,1,C,6,S,1,S,8,0.233418,0.831894,0.194179
2,35,2,8,2,1,1,I,6,S,1,S,10,0.370267,0.833988,0.308798
2,36,2,1,2,8,1,I,1,S,6,S,19,0.81019,0.60255,0.48818
2,37,8,9,1,8,1,C,1,S,7,L,9,0.230385,0.887841,0.204545
2,38,8,1,2,1,1,C,7,L,1,S,8,0.886995,0.189563,0.168141
2,39,1,9,2,1,1,I,8,L,1,S,9,0.334419,0.822478,0.275052
2,40,1,9,9,1,1,I,8,L,8,L,11,0.516047,0.802583,0.41417
2,41,9,8,8,2,1,C,1,S,6,S,10,0.845351,0.300902,0.254368
2,42,9,2,2,8,1,I,7,L,6,S,12,0.826686,0.511101,0.42252
2,43,9,1,8,1,1,C,8,L,7,L,7,0.90348,0.134407,0.121434
2,44,9,2,8,1,1,C,7,L,7,L,7,0.871777,0.155839,0.135857
2,45,1,8,1,9,1,C,7,L,8,L,7,0.130811,0.907592,0.118723
2,46,1,8,1,8,1,C,7,L,7,L,7,0.13528,0.900159,0.121774
2,47,9,2,8,9,1,I,7,L,1,S,9,0.82312,0.317139,0.261043
2,48,1,8,1,2,1,C,7,L,1,S,7,0.199088,0.800947,0.159459
2,49,9,1,1,8,1,I,8,L,7,L,11,0.805211,0.511105,0.411547
2,50,9,8,8,9,1,I,1,S,1,S,25,0.810074,0.593506,0.480784
2,51,2,8,2,9,1,C,6,S,7,L,7,0.167859,0.849252,0.142555
2,52,9,1,9,2,1,C,8,L,7,L,7,0.879178,0.149933,0.131817
2,53,8,1,2,9,1,I,7,L,7,L,12,0.831896,0.510113,0.424361
2,54,2,9,1,2,1,C,7,L,1,S,8,0.17848,0.901946,0.160979
2,55,2,9,1,8,1,C,7,L,7,L,7,0.151288,0.874475,0.132298
2,56,8,9,1,2,1,C,1,S,1,S,10,0.27221,0.863667,0.235099
2,57,2,1,1,8,1,I,1,S,7,L,20,0.810306,0.613945,0.497483
2,58,9,8,1,8,0,I,1,S,7,L,10,0.357141,0.8015,0.286249
2,59,9,2,8,2,1,C,7,L,6,S,7,0.837497,0.177227,0.148427
2,60,1,9,9,2,1,I,8,L,7,L,11,0.482248,0.825934,0.398305
2,61,2,8,9,2,1,I,6,S,7,L,12,0.516518,0.818433,0.422735
2,62,1,8,9,1,1,I,7,L,8,L,12,0.525,0.829374,0.435422
2,63,9,1,8,2,1,C,8,L,6,S,7,0.8692,0.155795,0.135417
2,64,2,9,8,2,1,I,7,L,6,S,11,0.494079,0.800304,0.395413
2,65,8,2,2,9,1,I,6,S,7,L,13,0.823625,0.539351,0.444223
2,66,9,1,9,1,1,C,8,L,8,L,7,0.910834,0.130258,0.118644
2,67,2,1,1,2,1,I,1,S,1,S,16,0.807735,0.554608,0.447976
2,68,8,9,9,2,1,I,1,S,7,L,23,0.612885,0.814236,0.499033
2,69,1,2,8,1,1,I,1,S,7,L,21,0.619712,0.808433,0.500996
2,70,8,1,8,2,1,C,7,L,6,S,7,0.850827,0.16604,0.141271
2,71,9,2,9,2,1,C,7,L,7,L,7,0.847475,0.171364,0.145227
2,72,9,2,1,9,1,I,7,L,8,L,12,0.801384,0.54671,0.438125
2,73,1,9,2,8,1,C,8,L,6,S,7,0.148712,0.878837,0.130694
2,74,8,1,8,1,1,C,7,L,7,L,7,0.885107,0.144651,0.128032
2,75,9,8,9,2,1,C,1,S,7,L,10,0.856816,0.293522,0.251495
2,76,2,8,1,8,1,C,6,S,7,L,7,0.156419,0.866857,0.135593
2,77,1,8,2,9,1,C,7,L,7,L,7,0.146721,0.882554,0.129489
2,78,8,1,2,8,1,I,7,L,6,S,11,0.806127,0.494545,0.398666
2,79,8,1,9,8,1,C,7,L,1,S,8,0.819828,0.248313,0.203574
2,80,2,9,8,1,1,I,7,L,7,L,12,0.535884,0.808115,0.433055
2,81,2,1,8,9,1,I,1,S,1,S,13,0.808269,0.458144,0.370303
2,82,2,8,8,2,1,I,6,S,6,S,12,0.505459,0.825918,0.417468
2,83,8,2,9,1,1,C,6,S,8,L,7,0.855937,0.165154,0.141361
2,84,9,1,8,9,1,I,8,L,1,S,9,0.856868,0.293291,0.251311
2,85,9,1,1,9,1,I,8,L,8,L,11,0.800014,0.518834,0.415075
2,86,8,9,8,9,1,C,1,S,1,S,11,0.299347,0.862684,0.258242
2,87,9,8,8,1,1,C,1,S,7,L,9,0.810053,0.298399,0.241719
2,88,1,2,2,9,1,C,1,S,7,L,8,0.246089,0.804323,0.197935
2,89,9,8,2,9,0,I,1,S,7,L,11,0.373347,0.820198,0.306218
2,90,8,2,8,2,1,C,6,S,6,S,7,0.814303,0.190691,0.15528
2,91,8,1,1,9,1,I,7,L,8,L,12,0.813781,0.535463,0.435749
2,92,2,8,9,1,1,I,6,S,8,L,13,0.550286,0.82401,0.453441
2,93,1,8,8,1,1,I,7,L,7,L,11,0.512703,0.801498,0.41093
2,94,8,2,1,9,1,I,6,S,8,L,13,0.805903,0.563823,0.454386
2,95,2,8,2,8,1,C,6,S,6,S,7,0.173852,0.839543,0.145956
2,96,9,1,2,9,1,I,8,L,7,L,11,0.818356,0.492714,0.403215
2,97,1,2,1,8,1,C,1,S,7,L,8,0.233721,0.822925,0.192335
2,98,9,2,2,1,1,C,7,L,1,S,8,0.873044,0.20132,0.175761
2,99,2,9,9,8,1,I,7,L,1,S,9,0.265724,0.865065,0.229868
2,100,8,9,9,1,1,I,1,S,8,L,24,0.62405,0.812238,0.506877
2,101,8,2,9,8,1,C,6,S,1,S,9,0.872081,0.251008,0.218899
2,102,2,1,9,8,1,C,1,S,1,S,11,0.864821,0.301883,0.261075
2,103,2,1,9,2,1,C,1,S,7,L,8,0.81403,0.237365,0.193223
2,104,2,9,1,9,1,C,7,L,8,L,7,0.146819,0.881908,0.129481
2,105,1,9,8,2,1,I,8,L,6,S,11,0.470913,0.833433,0.392475
2,106,9,1,2,8,1,I,8,L,6,S,11,0.8256,0.482159,0.398071
2,107,8,9,8,1,1,I,1,S,7,L,23,0.629447,0.802185,0.504933
2,108,1,2,8,9,1,C,1,S,1,S,10,0.299139,0.827542,0.24755
2,109,1,2,1,9,1,C,1,S,8,L,8,0.228884,0.830717,0.190138
2,110,9,8,2,1,1,C,1,S,1,S,12,0.86317,0.322592,0.278452
2,111,8,2,2,8,1,I,6,S,6,S,12,0.801775,0.527813,0.423187
2,112,2,1,1,9,1,I,1,S,8,L,20,0.806189,0.619863,0.499727
2,113,1,9,2,9,1,C,8,L,7,L,7,0.14272,0.888546,0.126813
2,114,9,2,9,8,1,C,7,L,1,S,8,0.805876,0.26007,0.209584
2,115,8,2,2,1,1,C,6,S,1,S,8,0.848074,0.216293,0.183432
2,116,9,8,9,8,1,C,1,S,1,S,14,0.804856,0.392749,0.316106
2,117,2,1,2,9,1,I,1,S,7,L,19,0.80452,0.610355,0.491043
2,118,1,8,2,8,1,C,7,L,6,S,7,0.152713,0.872846,0.133295
2,119,9,2,1,2,1,I,7,L,1,S,10,0.814971,0.405247,0.330264
2,120,9,1,9,8,1,C,8,L,1,S,8,0.839187,0.237084,0.198958
2,121,1,8,8,9,1,C,7,L,1,S,8,0.210447,0.86719,0.182497
2,122,1,9,1,9,1,C,8,L,8,L,7,0.126811,0.913584,0.115852
2,123,2,8,8,1,1,I,6,S,7,L,12,0.541723,0.800313,0.433548
2,124,8,2,1,8,1,I,6,S,7,L,13,0.810968,0.55651,0.451312
2,125,8,9,2,9,1,C,1,S,7,L,9,0.243301,0.868912,0.211407
2,126,8,1,9,2,1,C,7,L,7,L,7,0.860805,0.160177,0.137881
2,127,1,9,8,1,1,I,8,L,7,L,11,0.508247,0.807598,0.410459
2,128,2,1,8,2,1,C,1,S,6,S,8,0.803126,0.243959,0.19593
2,129,1,9,1,2,1,C,8,L,1,S,7,0.195088,0.806938,0.157424
2,130,8,9,9,8,1,I,1,S,1,S,13,0.40247,0.810638,0.326258
2,131,9,8,9,1,1,C,1,S,8,L,9,0.817976,0.293582,0.240143
2,132,1,9,8,9,1,C,8,L,1,S,8,0.206171,0.873449,0.18008
2,133,2,9,2,8,1,C,7,L,6,S,7,0.168721,0.847162,0.142934
2,134,2,9,8,9,1,C,7,L,1,S,8,0.227846,0.840024,0.191396
2,135,9,2,1,8,1,I,7,L,7,L,12,0.806538,0.539175,0.434865
2,136,2,9,2,9,1,C,7,L,7,L,7,0.162728,0.85687,0.139437
2,137,1,2,9,1,1,I,1,S,8,L,21,0.625657,0.804481,0.503329
2,138,1,2,9,8,1,I,1,S,1,S,12,0.369208,0.827459,0.305505
2,139,8,1,8,9,1,I,7,L,1,S,9,0.83712,0.305167,0.255462
2,140,8,9,1,9,1,C,1,S,8,L,9,0.225321,0.895751,0.201832
2,141,1,2,2,8,1,C,1,S,6,S,9,0.215869,0.902006,0.194715
2,142,9,8,1,2,1,I,1,S,1,S,27,0.809181,0.604685,0.489299
2,143,9,1,2,1,1,C,8,L,1,S,8,0.906355,0.178334,0.161634
2,144,2,9,9,1,1,I,7,L,8,L,12,0.543509,0.803117,0.436501
3,1,1,9,8,2,1,I,8,L,6,S,11,0.48779,0.826586,0.4032
3,2,1,2,1,8,1,C,1,S,7,L,8,0.210429,0.850875,0.179049
3,3,9,8,9,8,1,C,1,S,1,S,15,0.854739,0.364427,0.31149
3,4,1,8,8,2,1,I,7,L,6,S,11,0.499603,0.809783,0.40457
3,5,1,2,8,9,1,C,1,S,1,S,10,0.308929,0.812753,0.251083
3,6,1,2,9,1,1,I,1,S,8,L,21,0.616936,0.813106,0.501635
3,7,1,8,8,1,1,I,7,L,7,L,12,0.521672,0.830466,0.433231
3,8,2,9,9,8,1,I,7,L,1,S,9,0.268825,0.863207,0.232052
3,9,2,1,8,9,1,I,1,S,1,S,12,0.842546,0.380367,0.320476
3,10,8,1,1,2,1,I,7,L,1,S,10,0.842831,0.371585,0.313183
3,11,9,1,9,2,1,C,8,L,7,L,7,0.893839,0.141153,0.126168
3,12,1,8,1,2,1,C,7,L,1,S,8,0.171116,0.912495,0.156143
3,13,2,9,9,1,1,I,7,L,8,L,13,0.550369,0.82773,0.455557
3,14,9,2,2,9,1,I,7,L,7,L,12,0.817559,0.518333,0.423768
3,15,1,9,2,9,1,C,8,L,7,L,7,0.139092,0.892165,0.124093
3,16,8,9,2,9,1,C,1,S,7,L,9,0.230526,0.884168,0.203824
3,17,8,2,2,8,1,I,6,S,6,S,12,0.80404,0.524513,0.42173
3,18,2,9,2,1,1,I,7,L,1,S,10,0.389496,0.824134,0.320997
3,19,9,2,9,8,1,C,7,L,1,S,8,0.800258,0.26328,0.210692
3,20,9,1,1,9,1,I,8,L,8,L,12,0.822081,0.533494,0.438575
3,21,1,2,2,1,1,I,1,S,1,S,16,0.54465,0.811386,0.441921
3,22,2,8,2,9,1,C,6,S,7,L,7,0.183169,0.826021,0.151301
3,23,1,2,9,2,1,I,1,S,7,L,20,0.61487,0.80722,0.496335
3,24,2,8,9,1,1,I,6,S,8,L,13,0.567784,0.804364,0.456705
3,25,2,1,9,1,1,C,1,S,8,L,8,0.872643,0.19938,0.173988
3,26,9,1,2,1,1,C,8,L,1,S,8,0.916849,0.169785,0.155667
3,27,1,8,9,2,1,I,7,L,7,L,11,0.509084,0.803652,0.409127
3,28,2,1,9,8,1,C,1,S,1,S,10,0.816596,0.314431,0.256763
3,29,1,9,9,8,1,I,8,L,1,S,8,0.253145,0.825969,0.20909
3,30,9,1,1,2,1,I,8,L,1,S,9,0.803568,0.355535,0.285697
3,31,2,8,1,8,1,C,6,S,7,L,7,0.160735,0.861543,0.13848
3,32,9,8,9,2,1,C,1,S,7,L,9,0.80183,0.30715,0.246283
3,33,8,9,1,8,1,C,1,S,7,L,8,0.240249,0.817955,0.196513
3,34,8,2,9,2,1,C,6,S,7,L,7,0.848384,0.168427,0.142891
3,35,8,9,9,1,1,I,1,S,8,L,22,0.632704,0.801377,0.507035
3,36,2,9,8,1,1,I,7,L,7,L,12,0.541787,0.804205,0.435708
3,37,1,2,9,8,1,I,1,S,1,S,12,0.352762,0.848872,0.29945
3,38,1,8,9,8,1,I,7,L,1,S,8,0.264361,0.808832,0.213824
3,39,8,9,9,2,1,I,1,S,7,L,22,0.621608,0.80926,0.503042
3,40,2,9,1,9,1,C,7,L,8,L,7,0.144234,0.886846,0.127914
3,41,8,9,9,8,1,I,1,S,1,S,13,0.382542,0.841973,0.32209
3,42,9,2,8,1,1,C,7,L,7,L,7,0.870301,0.156194,0.135936
3,43,2,1,8,2,1,C,1,S,6,S,8,0.847204,0.215235,0.182348
3,44,1,9,9,1,1,I,8,L,8,L,11,0.513162,0.809429,0.415368
3,45,8,1,9,8,1,C,7,L,1,S,8,0.821005,0.24725,0.202993
3,46,1,2,8,2,1,I,1,S,6,S,20,0.607646,0.812109,0.493475
3,47,9,2,9,1,1,C,7,L,8,L,7,0.87781,0.152017,0.133442
3,48,2,9,2,9,1,C,7,L,7,L,7,0.167913,0.849251,0.142601
3,49,2,8,1,2,1,C,6,S,1,S,8,0.207514,0.859608,0.178381
3,50,9,2,1,8,1,I,7,L,7,L,13,0.82075,0.554996,0.455513
3,51,9,1,8,2,1,C,8,L,6,S,7,0.885057,0.146138,0.129341
3,52,1,8,9,1,1,I,7,L,8,L,12,0.529426,0.825444,0.437011
3,53,9,8,1,2,1,I,1,S,1,S,27,0.80039,0.610569,0.488693
3,54,9,1,2,9,1,I,8,L,7,L,11,0.816422,0.490073,0.400106
3,55,9,8,1,9,0,I,1,S,8,L,10,0.339995,0.823657,0.280039
3,56,1,9,8,9,1,C,8,L,1,S,8,0.215722,0.863694,0.186318
3,57,2,8,2,8,1,C,6,S,6,S,7,0.185078,0.822956,0.152311
3,58,8,9,2,8,1,C,1,S,6,S,9,0.232761,0.880759,0.205006
3,59,9,2,8,9,1,I,7,L,1,S,9,0.839549,0.292429,0.245508
3,60,1,2,1,9,1,C,1,S,8,L,8,0.209088,0.853035,0.178359
3,61,1,9,2,1,1,I,8,L,1,S,9,0.347548,0.817734,0.284202
3,62,2,9,8,2,1,I,7,L,6,S,12,0.524842,0.816193,0.428372
3,63,8,2,1,9,1,I,6,S,8,L,13,0.803863,0.566457,0.455353
3,64,9,1,1,8,1,I,8,L,7,L,12,0.823501,0.531412,0.437618
3,65,9,2,1,9,1,I,7,L,8,L,13,0.819354,0.55702,0.456396
3,66,2,8,8,1,1,I,6,S,7,L,13,0.560227,0.809326,0.453406
3,67,2,8,9,2,1,I,6,S,7,L,13,0.55286,0.815032,0.450599
3,68,2,1,9,2,1,C,1,S,7,L,8,0.856561,0.209722,0.17964
3,69,9,2,2,8,1,I,7,L,6,S,12,0.81986,0.515069,0.422284
3,70,1,8,2,1,1,I,7,L,1,S,9,0.359198,0.800408,0.287505
3,71,8,9,8,1,1,I,1,S,7,L,22,0.62666,0.805322,0.504663
3,72,9,2,8,2,1,C,7,L,6,S,7,0.853725,0.166568,0.142203
3,73,9,8,2,1,1,C,1,S,1,S,11,0.807589,0.3492,0.28201
3,74,8,1,2,1,1,C,7,L,1,S,8,0.904483,0.175845,0.159049
3,75,8,1,9,1,1,C,7,L,8,L,7,0.8975,0.13694,0.122904
3,76,8,2,2,9,1,I,6,S,7,L,12,0.801739,0.527777,0.42314
3,77,2,8,8,9,1,C,6,S,1,S,9,0.233319,0.891977,0.208115
3,78,8,2,1,8,1,I,6,S,7,L,13,0.805259,0.564433,0.454515
3,79,8,1,1,8,1,I,7,L,7,L,12,0.810862,0.538653,0.436773
3,80,9,8,8,1,1,C,1,S,7,L,9,0.810114,0.30118,0.24399
3,81,2,9,9,2,1,I,7,L,7,L,12,0.534103,0.81008,0.432666
3,82,1,9,8,1,1,I,8,L,7,L,11,0.50524,0.814463,0.4115
3,83,9,8,2,8,0,I,1,S,6,S,11,0.369611,0.820317,0.303198
3,84,2,9,1,2,1,C,7,L,1,S,8,0.190799,0.884592,0.168779
3,85,1,8,2,8,1,C,7,L,6,S,7,0.151464,0.872676,0.132179
3,86,8,1,9,2,1,C,7,L,7,L,7,0.882197,0.146505,0.129246
3,87,9,2,9,2,1,C,7,L,7,L,7,0.862507,0.161583,0.139366
3,88,1,9,2,8,1,C,8,L,6,S,7,0.141001,0.8891,0.125364
3,89,2,1,8,1,1,C,1,S,7,L,8,0.864746,0.203955,0.176369
3,90,1,9,1,2,1,C,8,L,1,S,7,0.196398,0.804365,0.157976
3,91,2,9,2,8,1,C,7,L,6,S,7,0.169823,0.846186,0.143702
3,92,1,9,1,9,1,C,8,L,8,L,7,0.115412,0.92976,0.107306
3,93,8,1,8,2,1,C,7,L,6,S,7,0.873415,0.151491,0.132314
3,94,2,1,2,9,1,I,1,S,7,L,18,0.811807,0.597978,0.485443
3,95,8,2,2,1,1,C,6,S,1,S,8,0.868436,0.199716,0.17344
3,96,2,9,8,9,1,C,7,L,1,S,8,0.246621,0.818653,0.201897
3,97,8,9,1,9,1,C,1,S,8,L,8,0.238907,0.820115,0.195932
3,98,9,8,9,1,1,C,1,S,8,L,9,0.818158,0.296346,0.242458
3,99,8,9,8,2,1,I,1,S,6,S,22,0.614726,0.813861,0.500301
3,100,8,1,1,9,1,I,7,L,8,L,12,0.809442,0.540734,0.437693
3,101,2,1,1,9,1,I,1,S,8,L,19,0.806348,0.619032,0.499155
3,102,1,8,2,9,1,C,7,L,7,L,7,0.149555,0.875741,0.130972
3,103,9,1,9,8,1,C,8,L,1,S,8,0.833371,0.24119,0.201001
3,104,1,2,2,8,1,C,1,S,6,S,8,0.236857,0.810033,0.191862
3,105,1,8,1,9,1,C,7,L,8,L,7,0.125876,0.913336,0.114967
3,106,8,1,2,8,1,I,7,L,6,S,11,0.805957,0.493851,0.398022
3,107,1,8,8,9,1,C,7,L,1,S,8,0.226938,0.846556,0.192116
3,108,8,2,9,1,1,C,6,S,8,L,7,0.863687,0.158862,0.137207
3,109,2,1,2,8,1,I,1,S,6,S,18,0.813686,0.595424,0.484488
3,110,8,2,8,9,1,I,6,S,1,S,9,0.823637,0.300997,0.247912
3,111,1,9,1,8,1,C,8,L,7,L,7,0.116658,0.927687,0.108223
3,112,2,1,1,8,1,I,1,S,7,L,19,0.80753,0.61733,0.498513
3,113,2,1,1,2,1,I,1,S,1,S,14,0.800942,0.520078,0.416553
3,114,9,1,8,9,1,I,8,L,1,S,9,0.873245,0.269364,0.235221
3,115,8,2,8,1,1,C,6,S,7,L,7,0.856178,0.163039,0.13959
3,116,2,8,1,9,1,C,6,S,8,L,7,0.159489,0.863615,0.137737
3,117,8,2,9,8,1,C,6,S,1,S,9,0.876756,0.246535,0.216151
3,118,1,9,9,2,1,I,8,L,7,L,11,0.497271,0.820455,0.407989
3,119,8,2,1,2,1,I,6,S,1,S,10,0.806082,0.397188,0.320166
3,120,2,9,1,8,1,C,7,L,7,L,7,0.14548,0.884774,0.128717
3,121,8,9,1,2,1,C,1,S,1,S,10,0.265651,0.870487,0.231246
3,122,2,8,2,1,1,I,6,S,1,S,11,0.41575,0.841482,0.349846
3,123,8,2,8,2,1,C,6,S,6,S,7,0.839602,0.173413,0.145598
3,124,9,8,2,9,0,I,1,S,7,L,11,0.367291,0.823676,0.302529
3,125,1,2,2,9,1,C,1,S,7,L,8,0.23475,0.813338,0.190931
3,126,9,1,8,1,1,C,8,L,7,L,7,0.901633,0.135764,0.122409
3,127,9,1,2,8,1,I,8,L,6,S,11,0.818741,0.486713,0.398492
3,128,1,2,1,2,1,C,1,S,1,S,9,0.269344,0.813836,0.219202
3,129,9,2,2,1,1,C,7,L,1,S,8,0.883736,0.191875,0.169567
3,130,8,9,2,1,1,I,1,S,1,S,18,0.57123,0.809471,0.462394
3,131,2,8,8,2,1,I,6,S,6,S,13,0.543866,0.821061,0.446547
3,132,9,1,9,1,1,C,8,L,8,L,7,0.909142,0.131588,0.119632
3,133,2,8,9,8,1,I,6,S,1,S,9,0.286438,0.837515,0.239896
3,134,8,9,8,9,1,C,1,S,1,S,11,0.311706,0.847803,0.264265
3,135,8,1,2,9,1,I,7,L,7,L,11,0.803638,0.49721,0.399577
3,136,8,1,8,9,1,I,7,L,1,S,9,0.860521,0.275941,0.237453
3,137,9,8,8,9,1,I,1,S,1,S,25,0.817497,0.580833,0.474829
3,138,9,8,8,2,1,C,1,S,6,S,10,0.863017,0.292226,0.252196
3,139,2,1,2,1,1,C,1,S,1,S,9,0.847239,0.249213,0.211143
3,140,8,1,8,1,1,C,7,L,7,L,7,0.88999,0.141117,0.125592
3,141,1,8,1,8,1,C,7,L,7,L,7,0.127122,0.911264,0.115842
3,142,1,2,8,1,1,I,1,S,7,L,20,0.620288,0.802958,0.498065
3,143,9,2,1,2,1,I,7,L,1,S,10,0.8222,0.388137,0.319126
3,144,9,8,1,8,0,I,1,S,7,L,10,0.341422,0.821485,0.280473
4,1,8,2,9,8,1,C,6,S,1,S,8,0.822421,0.237132,0.195022
4,2,2,1,1,8,1,I,1,S,7,L,20,0.800711,0.626267,0.501459
4,3,9,8,1,8,1,I,1,S,7,L,22,0.81086,0.623883,0.505882
4,4,9,1,2,9,1,I,8,L,7,L,11,0.827772,0.486666,0.402849
4,5,9,8,1,9,1,I,1,S,8,L,22,0.807021,0.62928,0.507842
4,6,2,8,2,8,1,C,6,S,6,S,7,0.183758,0.825165,0.15163
4,7,2,9,8,9,1,C,7,L,1,S,8,0.235222,0.8275,0.194647
4,8,8,9,9,8,1,I,1,S,1,S,25,0.594359,0.805617,0.478826
4,9,1,8,9,8,1,I,7,L,1,S,9,0.312794,0.832285,0.260334
4,10,8,9,1,9,1,C,1,S,8,L,9,0.278948,0.830642,0.231706
4,11,1,9,8,9,1,C,8,L,1,S,8,0.208338,0.866744,0.180575
4,12,2,1,1,9,1,I,1,S,8,L,21,0.81165,0.621624,0.504541
4,13,9,8,9,1,1,C,1,S,8,L,8,0.828998,0.234127,0.194091
4,14,8,1,8,2,1,C,7,L,6,S,7,0.86363,0.1577,0.136195
4,15,2,8,8,9,1,C,6,S,1,S,8,0.24265,0.81543,0.197864
4,16,2,1,8,1,1,C,1,S,7,L,8,0.835867,0.224296,0.187482
4,17,1,8,8,2,1,I,7,L,6,S,11,0.490567,0.812014,0.398347
4,18,2,8,1,2,1,C,6,S,1,S,8,0.198332,0.8747,0.173481
4,19,1,9,9,2,1,I,8,L,7,L,11,0.506446,0.805987,0.408189
4,20,1,2,1,2,1,C,1,S,1,S,9,0.24333,0.860345,0.209348
4,21,1,8,9,1,1,I,7,L,8,L,12,0.540239,0.812802,0.439108
4,22,8,2,9,1,1,C,6,S,8,L,7,0.865961,0.157472,0.136365
4,23,1,2,8,9,1,C,1,S,1,S,10,0.259085,0.882901,0.228747
4,24,1,9,9,8,1,I,8,L,1,S,9,0.307124,0.841486,0.258441
4,25,8,1,1,8,1,I,7,L,7,L,12,0.817345,0.532672,0.435377
4,26,1,8,2,1,1,I,7,L,1,S,10,0.388861,0.835098,0.324737
4,27,1,9,1,8,1,C,8,L,7,L,7,0.129566,0.908649,0.11773
4,28,1,8,1,9,1,C,7,L,8,L,7,0.129824,0.907467,0.117811
4,29,1,8,2,8,1,C,7,L,6,S,7,0.157055,0.864907,0.135838
4,30,8,2,1,2,1,I,6,S,1,S,11,0.835198,0.425746,0.355582
4,31,1,2,9,8,1,I,1,S,1,S,13,0.454443,0.825958,0.375351
4,32,8,1,1,9,1,I,7,L,8,L,12,0.812135,0.54002,0.438569
4,33,8,9,8,2,0,I,1,S,6,S,11,0.800423,0.386198,0.309122
4,34,2,8,1,9,1,C,6,S,8,L,7,0.156527,0.867725,0.135823
4,35,2,1,2,8,1,I,1,S,6,S,19,0.804106,0.609707,0.490269
4,36,2,1,9,1,1,C,1,S,8,L,8,0.851924,0.214263,0.182536
4,37,1,9,8,2,1,I,8,L,6,S,11,0.484687,0.821059,0.397957
4,38,2,9,9,8,1,I,7,L,1,S,9,0.335119,0.801588,0.268627
4,39,2,9,1,8,1,C,7,L,7,L,7,0.154509,0.871509,0.134656
4,40,8,1,2,1,1,C,7,L,1,S,8,0.919265,0.166819,0.153351
4,41,8,1,9,1,1,C,7,L,8,L,7,0.907239,0.12957,0.117551
4,42,9,8,9,8,1,C,1,S,1,S,10,0.826132,0.301431,0.249021
4,43,9,1,9,8,1,C,8,L,1,S,8,0.891657,0.192504,0.171647
4,44,8,9,2,1,1,I,1,S,1,S,27,0.601734,0.809261,0.486959
4,45,8,1,9,8,1,C,7,L,1,S,8,0.866446,0.20686,0.179233
4,46,2,8,8,1,1,I,6,S,7,L,13,0.555642,0.812246,0.451318
4,47,8,9,2,9,1,C,1,S,7,L,10,0.27797,0.870892,0.242081
4,48,9,1,1,8,1,I,8,L,7,L,11,0.809602,0.512413,0.414851
4,49,8,2,8,9,1,I,6,S,1,S,10,0.85558,0.329576,0.281978
4,50,9,8,8,1,1,C,1,S,7,L,8,0.81294,0.24416,0.198487
4,51,1,9,9,1,1,I,8,L,8,L,12,0.534384,0.821643,0.439073
4,52,2,9,8,2,1,I,7,L,6,S,12,0.518037,0.816283,0.422865
4,53,9,8,2,8,1,I,1,S,6,S,21,0.814489,0.609571,0.496489
4,54,2,1,9,2,1,C,1,S,7,L,8,0.827493,0.230845,0.191023
4,55,9,8,8,9,1,I,1,S,1,S,15,0.820893,0.493573,0.405171
4,56,2,8,8,2,1,I,6,S,6,S,12,0.526275,0.80426,0.423262
4,57,9,1,2,8,1,I,8,L,6,S,11,0.835903,0.475237,0.397252
4,58,8,2,8,2,1,C,6,S,6,S,7,0.822352,0.185602,0.15263
4,59,9,2,9,8,1,C,7,L,1,S,8,0.855774,0.217374,0.186023
4,60,9,1,9,2,1,C,8,L,7,L,7,0.907821,0.131993,0.119826
4,61,9,2,9,2,1,C,7,L,7,L,7,0.873558,0.155247,0.135617
4,62,9,2,8,1,1,C,7,L,7,L,7,0.881575,0.149044,0.131393
4,63,8,2,8,1,1,C,6,S,7,L,7,0.850598,0.166772,0.141856
4,64,2,8,2,1,1,I,6,S,1,S,11,0.428682,0.834294,0.357647
4,65,1,9,1,9,1,C,8,L,8,L,7,0.124897,0.916043,0.114411
4,66,9,8,9,2,1,C,1,S,7,L,8,0.804566,0.250709,0.201712
4,67,2,9,8,1,1,I,7,L,7,L,13,0.547544,0.823871,0.451105
4,68,8,2,2,9,1,I,6,S,7,L,13,0.822159,0.540706,0.444546
4,69,8,9,1,2,1,C,1,S,1,S,11,0.323626,0.83362,0.269781
4,70,2,9,9,2,1,I,7,L,7,L,12,0.539169,0.801357,0.432066
4,71,9,2,9,1,1,C,7,L,8,L,7,0.896938,0.139743,0.125341
4,72,8,9,8,1,0,I,1,S,7,L,11,0.830146,0.364534,0.302617
4,73,2,9,2,1,1,I,7,L,1,S,10,0.411459,0.804712,0.331106
4,74,1,9,8,1,1,I,8,L,7,L,12,0.518906,0.832272,0.431871
4,75,2,9,1,2,1,C,7,L,1,S,8,0.190904,0.886771,0.169288
4,76,2,1,2,9,1,I,1,S,7,L,20,0.814302,0.607786,0.494921
4,77,8,1,8,1,1,C,7,L,7,L,7,0.891876,0.138871,0.123855
4,78,1,2,8,2,1,I,1,S,6,S,17,0.601726,0.800797,0.48186
4,79,9,8,2,9,1,I,1,S,7,L,21,0.808834,0.617123,0.49915
4,80,9,1,1,9,1,I,8,L,8,L,11,0.804326,0.519972,0.418227
4,81,9,1,9,1,1,C,8,L,8,L,7,0.9312,0.116489,0.108475
4,82,8,9,2,8,1,C,1,S,6,S,10,0.28607,0.859236,0.245802
4,83,2,1,9,8,1,C,1,S,1,S,10,0.859461,0.274846,0.23622
4,84,8,1,8,9,1,I,7,L,1,S,9,0.840816,0.299421,0.251758
4,85,8,1,2,8,1,I,7,L,6,S,11,0.810517,0.491134,0.398073
4,86,1,2,9,2,1,I,1,S,7,L,18,0.610034,0.806767,0.492156
4,87,2,9,2,8,1,C,7,L,6,S,7,0.177071,0.836344,0.148092
4,88,1,2,2,8,1,C,1,S,6,S,8,0.223228,0.836635,0.186761
4,89,1,8,8,9,1,C,7,L,1,S,8,0.213717,0.857713,0.183308
4,90,9,8,1,2,1,I,1,S,1,S,18,0.813892,0.573011,0.466369
4,91,1,8,9,2,1,I,7,L,7,L,12,0.517157,0.829836,0.429156
4,92,9,1,8,9,1,I,8,L,1,S,9,0.866523,0.284219,0.246282
4,93,1,8,2,9,1,C,7,L,7,L,7,0.150229,0.875453,0.131518
4,94,1,2,2,9,1,C,1,S,7,L,8,0.215739,0.847975,0.182941
4,95,9,2,1,2,1,I,7,L,1,S,10,0.827435,0.394948,0.326794
4,96,1,8,1,2,1,C,7,L,1,S,8,0.169398,0.916984,0.155336
4,97,8,2,2,8,1,I,6,S,6,S,12,0.801086,0.528313,0.423224
4,98,8,1,1,2,1,I,7,L,1,S,10,0.8376,0.384602,0.322142
4,99,8,9,8,9,1,C,1,S,1,S,12,0.360832,0.804338,0.290231
4,100,9,8,2,1,1,C,1,S,1,S,10,0.900463,0.247259,0.222648
4,101,1,2,1,9,1,C,1,S,8,L,8,0.193696,0.881682,0.170779
4,102,8,1,2,9,1,I,7,L,7,L,11,0.802386,0.502563,0.40325
4,103,2,1,2,1,1,C,1,S,1,S,9,0.827822,0.264954,0.219335
4,104,9,2,1,9,1,I,7,L,8,L,12,0.803255,0.549537,0.441419
4,105,8,1,9,2,1,C,7,L,7,L,7,0.883859,0.145074,0.128225
4,106,1,9,2,1,1,I,8,L,1,S,10,0.383033,0.844281,0.323387
4,107,8,9,1,8,1,C,1,S,7,L,9,0.284148,0.822853,0.233812
4,108,1,8,1,8,1,C,7,L,7,L,7,0.134493,0.900072,0.121054
4,109,9,1,8,2,1,C,8,L,6,S,7,0.887592,0.144619,0.128363
4,110,9,1,2,1,1,C,8,L,1,S,7,0.815863,0.191053,0.155873
4,111,2,1,1,2,1,I,1,S,1,S,16,0.802968,0.559462,0.44923
4,112,2,8,9,1,1,I,6,S,8,L,13,0.570667,0.801803,0.457562
4,113,1,2,2,1,1,I,1,S,1,S,15,0.536802,0.816314,0.438199
4,114,2,8,9,8,1,I,6,S,1,S,10,0.345314,0.84636,0.29226
4,115,1,8,8,1,1,I,7,L,7,L,12,0.524761,0.823432,0.432105
4,116,2,8,2,9,1,C,6,S,7,L,7,0.176932,0.835711,0.147864
4,117,1,2,9,1,1,I,1,S,8,L,19,0.618695,0.809824,0.501034
4,118,8,2,9,2,1,C,6,S,7,L,7,0.842581,0.172976,0.145746
4,119,2,8,9,2,1,I,6,S,7,L,13,0.548429,0.818412,0.448841
4,120,2,1,8,2,1,C,1,S,6,S,8,0.805864,0.244689,0.197186
4,121,9,2,2,1,1,C,7,L,1,S,8,0.908593,0.177334,0.161124
4,122,1,9,2,9,1,C,8,L,7,L,7,0.145301,0.884029,0.128451
4,123,8,2,1,8,1,I,6,S,7,L,13,0.804624,0.56479,0.454444
4,124,9,2,8,9,1,I,7,L,1,S,9,0.830243,0.309967,0.257348
4,125,1,9,1,2,1,C,8,L,1,S,8,0.164019,0.926014,0.151884
4,126,2,1,8,9,1,I,1,S,1,S,14,0.829977,0.463097,0.38436
4,127,1,9,2,8,1,C,8,L,6,S,7,0.152127,0.873483,0.132881
4,128,9,2,2,9,1,I,7,L,7,L,12,0.826402,0.517219,0.427431
4,129,9,1,1,2,1,I,8,L,1,S,9,0.812325,0.358605,0.291303
4,130,1,2,1,8,1,C,1,S,7,L,8,0.198702,0.873975,0.17366
4,131,8,9,9,1,0,I,1,S,8,L,10,0.810433,0.349307,0.28309
4,132,9,2,8,2,1,C,7,L,6,S,7,0.853329,0.167873,0.143251
4,133,1,2,8,1,1,I,1,S,7,L,18,0.615451,0.801953,0.493562
4,134,9,2,1,8,1,I,7,L,7,L,12,0.808465,0.54219,0.438342
4,135,8,2,2,1,1,C,6,S,1,S,8,0.87524,0.197092,0.172502
4,136,8,9,9,2,0,I,1,S,7,L,11,0.822182,0.371126,0.305133
4,137,2,8,1,8,1,C,6,S,7,L,7,0.161196,0.86033,0.138682
4,138,2,9,9,1,1,I,7,L,8,L,13,0.562568,0.813428,0.457609
4,139,8,2,1,9,1,I,6,S,8,L,14,0.824758,0.569703,0.469867
4,140,2,9,2,9,1,C,7,L,7,L,7,0.170245,0.846889,0.144178
4,141,9,2,2,8,1,I,7,L,6,S,11,0.800946,0.501119,0.40137
4,142,9,8,8,2,1,C,1,S,6,S,9,0.888405,0.229451,0.203845
4,143,2,9,1,9,1,C,7,L,8,L,7,0.14984,0.878903,0.131695
4,144,9,1,8,1,1,C,8,L,7,L,7,0.915838,0.12579,0.115203
5,1,2,8,8,9,1,C,6,S,1,S,9,0.254163,0.865534,0.219987
5,2,2,8,9,8,1,I,6,S,1,S,9,0.299785,0.820655,0.24602
5,3,8,2,9,8,1,C,6,S,1,S,8,0.800121,0.257992,0.206425
5,4,8,2,2,1,1,C,6,S,1,S,8,0.852329,0.213571,0.182033
5,5,2,9,9,2,1,I,7,L,7,L,12,0.517389,0.819025,0.423755
5,6,1,8,1,8,1,C,7,L,7,L,7,0.140216,0.890947,0.124925
5,7,9,1,8,1,1,C,8,L,7,L,7,0.90589,0.131389,0.119024
5,8,1,8,2,1,1,I,7,L,1,S,9,0.34154,0.808623,0.276177
5,9,1,8,8,2,1,I,7,L,6,S,11,0.495276,0.80801,0.400188
5,10,2,9,1,8,1,C,7,L,7,L,7,0.152259,0.870872,0.132598
5,11,1,9,9,2,1,I,8,L,7,L,11,0.486712,0.824074,0.401086
5,12,2,1,9,1,1,C,1,S,8,L,8,0.847676,0.216041,0.183133
5,13,9,2,2,9,1,I,7,L,7,L,12,0.806578,0.532097,0.429178
5,14,2,1,2,1,1,C,1,S,1,S,10,0.898706,0.2434,0.218745
5,15,1,8,9,8,1,I,7,L,1,S,9,0.27144,0.865597,0.234957
5,16,9,2,9,1,1,C,7,L,8,L,7,0.871239,0.155,0.135042
5,17,9,8,2,1,1,C,1,S,1,S,11,0.839068,0.312731,0.262402
5,18,9,8,8,9,1,I,1,S,1,S,15,0.802086,0.434928,0.34885
5,19,8,9,9,2,0,I,1,S,7,L,13,0.804397,0.460075,0.370083
5,20,1,9,9,8,1,I,8,L,1,S,8,0.271932,0.804458,0.218758
5,21,8,9,1,2,1,C,1,S,1,S,11,0.287841,0.877085,0.252461
5,22,2,9,9,1,1,I,7,L,8,L,13,0.548657,0.825701,0.453027
5,23,1,9,8,2,1,I,8,L,6,S,11,0.484195,0.825082,0.399501
5,24,9,2,1,2,1,I,7,L,1,S,10,0.804041,0.411759,0.331071
5,25,2,9,9,8,1,I,7,L,1,S,9,0.285368,0.843762,0.240783
5,26,2,1,8,1,1,C,1,S,7,L,8,0.845837,0.216515,0.183137
5,27,8,9,9,8,1,I,1,S,1,S,19,0.534727,0.810486,0.433389
5,28,9,2,1,8,1,I,7,L,7,L,13,0.82415,0.546567,0.450453
5,29,9,8,8,1,1,C,1,S,7,L,9,0.845353,0.262755,0.22212
5,30,2,8,1,9,1,C,6,S,8,L,7,0.160188,0.859122,0.137621
5,31,1,8,1,2,1,C,7,L,1,S,8,0.167347,0.91942,0.153862
5,32,1,2,2,9,1,C,1,S,7,L,8,0.23255,0.828217,0.192602
5,33,9,8,9,8,1,C,1,S,1,S,12,0.803554,0.359371,0.288774
5,34,1,9,1,8,1,C,8,L,7,L,7,0.130944,0.907138,0.118785
5,35,9,2,8,1,1,C,7,L,7,L,7,0.869527,0.155346,0.135077
5,36,8,9,2,1,1,I,1,S,1,S,23,0.593289,0.804805,0.477482
5,37,1,2,8,2,1,I,1,S,6,S,19,0.605154,0.812896,0.491927
5,38,8,1,8,1,1,C,7,L,7,L,7,0.900997,0.134388,0.121083
5,39,2,8,9,2,1,I,6,S,7,L,13,0.534341,0.825363,0.441025
5,40,8,1,1,9,1,I,7,L,8,L,12,0.821483,0.531796,0.436862
5,41,8,2,9,1,1,C,6,S,8,L,7,0.864863,0.159017,0.137528
5,42,1,8,9,1,1,I,7,L,8,L,12,0.533357,0.818086,0.436332
5,43,8,2,8,9,1,I,6,S,1,S,9,0.851649,0.273624,0.233032
5,44,9,2,2,8,1,I,7,L,6,S,12,0.814019,0.519794,0.423122
5,45,1,2,1,9,1,C,1,S,8,L,8,0.216367,0.852609,0.184477
5,46,2,1,8,9,1,I,1,S,1,S,11,0.807455,0.357994,0.289065
5,47,9,8,9,1,1,C,1,S,8,L,9,0.847275,0.26217,0.22213
5,48,1,2,1,8,1,C,1,S,7,L,8,0.221089,0.84315,0.186412
5,49,2,8,1,2,1,C,6,S,1,S,8,0.194043,0.875732,0.16993
5,50,2,1,1,9,1,I,1,S,8,L,20,0.803592,0.623691,0.501193
5,51,1,9,1,2,1,C,8,L,1,S,7,0.195531,0.808047,0.157998
5,52,9,8,2,9,0,I,1,S,7,L,13,0.466013,0.802877,0.374151
5,53,2,9,1,2,1,C,7,L,1,S,8,0.180542,0.898082,0.162141
5,54,1,2,8,9,1,C,1,S,1,S,11,0.312169,0.857767,0.267768
5,55,9,8,1,9,0,I,1,S,8,L,11,0.404783,0.801082,0.324264
5,56,1,2,8,1,1,I,1,S,7,L,20,0.618092,0.812049,0.501921
5,57,9,1,1,8,1,I,8,L,7,L,12,0.83199,0.518761,0.431604
5,58,9,2,9,2,1,C,7,L,7,L,7,0.84156,0.174035,0.146461
5,59,1,2,1,2,1,C,1,S,1,S,9,0.259831,0.837904,0.217713
5,60,9,2,2,1,1,C,7,L,1,S,8,0.859187,0.20915,0.179699
5,61,1,2,9,2,1,I,1,S,7,L,19,0.607625,0.811668,0.49319
5,62,8,2,2,8,1,I,6,S,6,S,12,0.807286,0.524582,0.423488
5,63,9,1,1,9,1,I,8,L,8,L,12,0.826434,0.528358,0.436653
5,64,1,8,2,9,1,C,7,L,7,L,7,0.151024,0.876711,0.132404
5,65,8,2,1,9,1,I,6,S,8,L,13,0.812098,0.560699,0.455342
5,66,1,8,2,8,1,C,7,L,6,S,7,0.156543,0.865578,0.1355
5,67,8,9,2,8,1,C,1,S,6,S,9,0.288732,0.808726,0.233505
5,68,2,9,2,9,1,C,7,L,7,L,7,0.163067,0.856635,0.139689
5,69,9,2,1,9,1,I,7,L,8,L,13,0.818585,0.556011,0.455142
5,70,8,9,2,9,1,C,1,S,7,L,9,0.281914,0.821167,0.231498
5,71,9,8,8,2,1,C,1,S,6,S,9,0.812813,0.284606,0.231331
5,72,2,8,1,8,1,C,6,S,7,L,7,0.164393,0.850172,0.139762
5,73,1,9,2,8,1,C,8,L,6,S,7,0.147271,0.881769,0.129859
5,74,9,1,8,2,1,C,8,L,6,S,7,0.875869,0.150546,0.131859
5,75,1,9,2,1,1,I,8,L,1,S,9,0.330857,0.825992,0.273286
5,76,1,9,1,9,1,C,8,L,8,L,7,0.12674,0.916088,0.116105
5,77,9,1,2,1,1,C,8,L,1,S,8,0.897634,0.183268,0.164507
5,78,1,8,9,2,1,I,7,L,7,L,11,0.497793,0.807002,0.401719
5,79,2,9,1,9,1,C,7,L,8,L,7,0.148055,0.879822,0.130262
5,80,2,1,2,9,1,I,1,S,7,L,19,0.800572,0.616129,0.493256
5,81,2,8,9,1,1,I,6,S,8,L,13,0.563522,0.80404,0.453094
5,82,1,8,8,1,1,I,7,L,7,L,12,0.531323,0.818894,0.435097
5,83,1,2,2,8,1,C,1,S,6,S,8,0.238825,0.816214,0.194932
5,84,2,9,2,1,1,I,7,L,1,S,10,0.362376,0.840808,0.304689
5,85,1,9,8,9,1,C,8,L,1,S,8,0.24041,0.836119,0.201012
5,86,2,1,1,2,1,I,1,S,1,S,16,0.805122,0.557431,0.4488
5,87,8,2,1,2,1,I,6,S,1,S,11,0.838992,0.425561,0.357042
5,88,2,9,8,1,1,I,7,L,7,L,13,0.54661,0.826555,0.451803
5,89,1,8,1,9,1,C,7,L,8,L,7,0.136012,0.899898,0.122397
5,90,8,2,2,9,1,I,6,S,7,L,13,0.828584,0.538256,0.44599
5,91,8,1,9,1,1,C,7,L,8,L,7,0.902709,0.134042,0.121001
5,92,2,9,8,2,1,I,7,L,6,S,12,0.514853,0.820106,0.422234
5,93,8,9,1,9,1,C,1,S,8,L,9,0.265049,0.845926,0.224212
5,94,8,1,9,8,1,C,7,L,1,S,8,0.840289,0.230932,0.19405
5,95,8,1,8,9,1,I,7,L,1,S,8,0.808767,0.262594,0.212377
5,96,1,2,9,8,1,I,1,S,1,S,12,0.393622,0.821529,0.323372
5,97,2,1,2,8,1,I,1,S,6,S,19,0.807088,0.605812,0.488943
5,98,8,1,8,2,1,C,7,L,6,S,7,0.870975,0.153545,0.133734
5,99,8,2,8,2,1,C,6,S,6,S,7,0.833129,0.178521,0.148731
5,100,8,2,9,2,1,C,6,S,7,L,7,0.835184,0.178053,0.148707
5,101,2,1,1,8,1,I,1,S,7,L,20,0.808611,0.615333,0.497565
5,102,2,1,9,8,1,C,1,S,1,S,10,0.810147,0.312873,0.253473
5,103,9,1,2,9,1,I,8,L,7,L,11,0.81069,0.500005,0.405349
5,104,8,1,2,8,1,I,7,L,6,S,11,0.812971,0.490978,0.399151
5,105,1,2,9,1,1,I,1,S,8,L,20,0.620156,0.811071,0.502991
5,106,8,9,8,9,1,C,1,S,1,S,13,0.382171,0.800252,0.305833
5,107,9,2,8,9,1,I,7,L,1,S,9,0.858709,0.268948,0.230948
5,108,1,9,9,1,1,I,8,L,8,L,11,0.517949,0.801967,0.415378
5,109,8,2,8,1,1,C,6,S,7,L,7,0.863151,0.159363,0.137554
5,110,9,2,8,2,1,C,7,L,6,S,7,0.839506,0.174503,0.146497
5,111,8,9,1,8,1,C,1,S,7,L,9,0.270145,0.836226,0.225902
5,112,9,1,1,2,1,I,8,L,1,S,10,0.842885,0.384288,0.323911
5,113,2,1,8,2,1,C,1,S,6,S,8,0.813966,0.237349,0.193194
5,114,8,9,8,1,0,I,1,S,7,L,11,0.804382,0.399006,0.320953
5,115,1,9,8,1,1,I,8,L,7,L,11,0.515937,0.802716,0.414151
5,116,2,8,8,1,1,I,6,S,7,L,13,0.561475,0.804894,0.451927
5,117,2,8,8,2,1,I,6,S,6,S,13,0.5318,0.826496,0.43953
5,118,1,2,2,1,1,I,1,S,1,S,15,0.518169,0.819927,0.42486
5,119,1,8,8,9,1,C,7,L,1,S,8,0.25054,0.819072,0.20521
5,120,8,9,9,1,0,I,1,S,8,L,11,0.806394,0.398256,0.321151
5,121,9,1,8,9,1,I,8,L,1,S,8,0.813903,0.259351,0.211086
5,122,9,1,2,8,1,I,8,L,6,S,11,0.818058,0.487505,0.398808
5,123,2,8,2,1,1,I,6,S,1,S,10,0.377313,0.817583,0.308484
5,124,8,2,1,8,1,I,6,S,7,L,13,0.817662,0.551255,0.450741
5,125,9,8,9,2,1,C,1,S,7,L,9,0.815204,0.283815,0.231367
5,126,8,1,9,2,1,C,7,L,7,L,7,0.87303,0.153077,0.133641
5,127,9,1,9,2,1,C,8,L,7,L,7,0.877924,0.150078,0.131757
5,128,2,9,2,8,1,C,7,L,6,S,7,0.168586,0.845503,0.14254
5,129,9,8,1,2,1,I,1,S,1,S,24,0.809387,0.596923,0.483142
5,130,2,8,2,8,1,C,6,S,6,S,7,0.18072,0.824803,0.149058
5,131,2,1,9,2,1,C,1,S,7,L,8,0.816224,0.236708,0.193206
5,132,8,1,1,2,1,I,7,L,1,S,10,0.837701,0.38775,0.324819
5,133,2,9,8,9,1,C,7,L,1,S,9,0.239747,0.888641,0.213049
5,134,8,1,2,9,1,I,7,L,7,L,11,0.805603,0.503478,0.405603
5,135,9,8,2,8,1,I,1,S,6,S,26,0.801806,0.622463,0.499095
5,136,9,1,9,8,1,C,8,L,1,S,8,0.845425,0.227689,0.192494
5,137,9,1,9,1,1,C,8,L,8,L,7,0.907602,0.131043,0.118935
5,138,1,9,2,9,1,C,8,L,7,L,7,0.141752,0.892901,0.12657
5,139,8,1,2,1,1,C,7,L,1,S,8,0.892498,0.186511,0.16646
5,140,2,8,2,9,1,C,6,S,7,L,7,0.1752,0.835936,0.146456
5,141,9,2,9,8,1,C,7,L,1,S,8,0.806978,0.253571,0.204627
5,142,8,1,1,8,1,I,7,L,7,L,12,0.827039,0.522199,0.431879
5,143,8,9,8,2,0,I,1,S,6,S,13,0.801856,0.461208,0.369823
5,144,9,8,1,8,0,I,1,S,7,L,12,0.430373,0.808366,0.347899
6,1,9,1,1,2,1,I,8,L,1,S,9,0.809689,0.358842,0.290551
6,2,1,9,8,1,1,I,8,L,7,L,11,0.512746,0.8011,0.41076
6,3,8,9,2,1,1,I,1,S,1,S,22,0.587699,0.814925,0.47893
6,4,9,1,9,8,1,C,8,L,1,S,8,0.901545,0.184415,0.166259
6,5,8,2,2,8,1,I,6,S,6,S,13,0.821551,0.530496,0.435829
6,6,1,8,1,9,1,C,7,L,8,L,7,0.139393,0.893236,0.124511
6,7,9,2,1,8,1,I,7,L,7,L,13,0.812777,0.555802,0.451743
6,8,9,8,1,8,0,I,1,S,7,L,11,0.363141,0.835111,0.303263
6,9,8,9,9,1,0,I,1,S,8,L,12,0.802962,0.454369,0.364841
6,10,2,1,1,8,1,I,1,S,7,L,18,0.811585,0.608137,0.493555
6,11,2,9,2,1,1,I,7,L,1,S,10,0.399103,0.813313,0.324595
6,12,1,8,2,1,1,I,7,L,1,S,10,0.381035,0.835646,0.318411
6,13,8,2,1,2,1,I,6,S,1,S,11,0.825802,0.429364,0.35457
6,14,9,2,8,9,1,I,7,L,1,S,9,0.827485,0.294862,0.243994
6,15,1,9,2,8,1,C,8,L,6,S,7,0.156897,0.86627,0.135915
6,16,9,8,9,1,1,C,1,S,8,L,9,0.831206,0.28143,0.233926
6,17,9,8,1,9,0,I,1,S,8,L,10,0.356488,0.803094,0.286294
6,18,1,8,9,2,1,I,7,L,7,L,12,0.51978,0.82642,0.429557
6,19,8,9,1,2,1,C,1,S,1,S,10,0.313123,0.815299,0.255289
6,20,8,1,2,9,1,I,7,L,7,L,11,0.818248,0.48517,0.39699
6,21,2,9,9,1,1,I,7,L,8,L,13,0.560374,0.817363,0.458029
6,22,1,9,2,1,1,I,8,L,1,S,10,0.37345,0.849149,0.317115
6,23,1,8,9,1,1,I,7,L,8,L,12,0.542871,0.808775,0.43906
6,24,1,9,1,9,1,C,8,L,8,L,7,0.133395,0.905567,0.120798
6,25,1,2,8,1,1,I,1,S,7,L,19,0.6147,0.804098,0.494279
6,26,9,1,2,8,1,I,8,L,6,S,11,0.834008,0.471727,0.393424
6,27,2,1,8,9,1,I,1,S,1,S,11,0.825012,0.358047,0.295393
6,28,9,8,8,1,1,C,1,S,7,L,9,0.812398,0.293419,0.238373
6,29,8,2,9,1,1,C,6,S,8,L,7,0.853929,0.163446,0.139572
6,30,9,2,1,9,1,I,7,L,8,L,13,0.809618,0.560272,0.453606
6,31,9,2,9,1,1,C,7,L,8,L,7,0.868373,0.155704,0.135209
6,32,1,9,8,2,1,I,8,L,6,S,11,0.481677,0.824426,0.397107
6,33,8,1,8,9,1,I,7,L,1,S,9,0.877682,0.260421,0.228567
6,34,8,1,9,8,1,C,7,L,1,S,8,0.89087,0.190035,0.169296
6,35,1,8,8,2,1,I,7,L,6,S,11,0.48945,0.811012,0.39695
6,36,9,2,2,8,1,I,7,L,6,S,12,0.808603,0.518285,0.419086
6,37,1,8,8,9,1,C,7,L,1,S,8,0.238135,0.828651,0.197331
6,38,2,8,1,9,1,C,6,S,8,L,7,0.163734,0.856624,0.140258
6,39,2,8,9,1,1,I,6,S,8,L,13,0.570857,0.800767,0.457124
6,40,2,1,2,1,1,C,1,S,1,S,9,0.866615,0.235262,0.203882
6,41,1,9,9,8,1,I,8,L,1,S,9,0.32962,0.825854,0.272218
6,42,9,8,2,1,1,C,1,S,1,S,11,0.824861,0.330147,0.272325
6,43,8,9,8,9,1,C,1,S,1,S,12,0.345576,0.827878,0.286095
6,44,2,9,8,2,1,I,7,L,6,S,12,0.512297,0.823301,0.421775
6,45,1,8,8,1,1,I,7,L,7,L,12,0.524935,0.820989,0.430966
6,46,2,8,9,8,1,I,6,S,1,S,10,0.370959,0.827094,0.306818
6,47,2,1,9,1,1,C,1,S,8,L,8,0.89274,0.185256,0.165385
6,48,1,8,2,9,1,C,7,L,7,L,7,0.158922,0.860257,0.136714
6,49,1,2,8,9,1,C,1,S,1,S,10,0.306886,0.817905,0.251003
6,50,8,2,9,2,1,C,6,S,7,L,7,0.830267,0.179821,0.149299
6,51,9,1,2,9,1,I,8,L,7,L,11,0.829119,0.478772,0.396959
6,52,9,8,9,2,1,C,1,S,7,L,9,0.806287,0.29942,0.241418
6,53,9,8,8,2,1,C,1,S,6,S,10,0.853945,0.293543,0.250669
6,54,1,2,1,9,1,C,1,S,8,L,8,0.208915,0.856372,0.178909
6,55,1,9,9,1,1,I,8,L,8,L,12,0.535025,0.821997,0.439789
6,56,1,2,2,8,1,C,1,S,6,S,8,0.234794,0.814363,0.191208
6,57,2,9,2,9,1,C,7,L,7,L,7,0.175395,0.838961,0.147149
6,58,2,1,9,2,1,C,1,S,7,L,8,0.868037,0.20269,0.175942
6,59,9,2,2,1,1,C,7,L,1,S,8,0.869794,0.19837,0.172541
6,60,8,9,8,1,1,I,1,S,7,L,25,0.628731,0.804835,0.506025
6,61,8,1,9,2,1,C,7,L,7,L,7,0.890921,0.141799,0.126332
6,62,9,1,9,1,1,C,8,L,8,L,7,0.924708,0.12037,0.111307
6,63,8,2,1,9,1,I,6,S,8,L,14,0.819109,0.568618,0.465761
6,64,2,1,8,2,1,C,1,S,6,S,8,0.842773,0.218807,0.184405
6,65,9,1,2,1,1,C,8,L,1,S,7,0.803,0.197142,0.158305
6,66,8,1,8,1,1,C,7,L,7,L,7,0.896886,0.136013,0.121988
6,67,2,8,1,8,1,C,6,S,7,L,7,0.166551,0.852056,0.141911
6,68,9,2,8,1,1,C,7,L,7,L,7,0.850676,0.166293,0.141461
6,69,1,9,1,2,1,C,8,L,1,S,8,0.169261,0.921944,0.156049
6,70,2,8,2,1,1,I,6,S,1,S,11,0.417646,0.838707,0.350283
6,71,8,1,1,2,1,I,7,L,1,S,10,0.850004,0.375136,0.318867
6,72,1,2,1,2,1,C,1,S,1,S,9,0.257028,0.838557,0.215532
6,73,9,1,9,2,1,C,8,L,7,L,7,0.901046,0.136745,0.123213
6,74,2,8,2,9,1,C,6,S,7,L,7,0.183263,0.823646,0.150943
6,75,1,8,9,8,1,I,7,L,1,S,9,0.336868,0.812431,0.273682
6,76,1,8,1,2,1,C,7,L,1,S,8,0.17599,0.908869,0.159952
6,77,8,2,8,2,1,C,6,S,6,S,7,0.80672,0.194472,0.156884
6,78,8,2,1,8,1,I,6,S,7,L,14,0.822187,0.564301,0.463962
6,79,2,1,2,8,1,I,1,S,6,S,17,0.815172,0.586187,0.477843
6,80,2,9,9,8,1,I,7,L,1,S,10,0.360753,0.844529,0.304666
6,81,8,2,8,1,1,C,6,S,7,L,7,0.836232,0.174035,0.145534
6,82,1,8,2,8,1,C,7,L,6,S,7,0.162896,0.853938,0.139103
6,83,2,8,1,2,1,C,6,S,1,S,8,0.202449,0.869811,0.176093
6,84,8,1,1,8,1,I,7,L,7,L,12,0.830797,0.520453,0.432391
6,85,2,1,9,8,1,C,1,S,1,S,9,0.832561,0.263629,0.219487
6,86,9,1,8,1,1,C,8,L,7,L,7,0.90701,0.130959,0.118781
6,87,8,9,9,8,1,I,1,S,1,S,21,0.57953,0.817073,0.473518
6,88,1,2,2,1,1,I,1,S,1,S,15,0.537933,0.803529,0.432244
6,89,8,2,9,8,1,C,6,S,1,S,8,0.825899,0.23175,0.191402
6,90,1,9,8,9,1,C,8,L,1,S,8,0.231406,0.841726,0.194781
6,91,9,8,2,9,0,I,1,S,7,L,11,0.383501,0.804377,0.30848
6,92,9,1,1,9,1,I,8,L,8,L,11,0.805502,0.514253,0.414232
6,93,9,8,1,2,1,I,1,S,1,S,27,0.812465,0.602017,0.489118
6,94,2,1,2,9,1,I,1,S,7,L,17,0.811063,0.591715,0.479918
6,95,9,1,8,2,1,C,8,L,6,S,7,0.877498,0.151396,0.13285
6,96,1,2,2,9,1,C,1,S,7,L,8,0.230386,0.821232,0.1892
6,97,9,2,2,9,1,I,7,L,7,L,12,0.803751,0.525129,0.422073
6,98,2,9,2,8,1,C,7,L,6,S,7,0.179368,0.832641,0.149349
6,99,8,1,2,1,1,C,7,L,1,S,8,0.918938,0.165486,0.152071
6,100,9,8,2,8,0,I,1,S,6,S,12,0.394979,0.824528,0.325671
6,101,8,2,2,1,1,C,6,S,1,S,8,0.853967,0.207201,0.176942
6,102,8,2,2,9,1,I,6,S,7,L,13,0.816795,0.537091,0.438693
6,103,9,2,8,2,1,C,7,L,6,S,7,0.821164,0.18673,0.153336
6,104,2,9,1,9,1,C,7,L,8,L,7,0.155865,0.871939,0.135905
6,105,8,9,8,2,1,I,1,S,6,S,24,0.623486,0.803723,0.50111
6,106,2,9,1,8,1,C,7,L,7,L,7,0.158683,0.86737,0.137637
6,107,2,9,9,2,1,I,7,L,7,L,12,0.537091,0.805826,0.432802
6,108,2,8,8,1,1,I,6,S,7,L,13,0.553438,0.812778,0.449822
6,109,8,1,1,9,1,I,7,L,8,L,12,0.827574,0.52507,0.434534
6,110,8,9,1,8,1,C,1,S,7,L,9,0.256865,0.858162,0.220431
6,111,2,9,8,1,1,I,7,L,7,L,12,0.542246,0.800395,0.434011
6,112,1,9,1,8,1,C,8,L,7,L,7,0.136212,0.900999,0.122727
6,113,1,8,1,8,1,C,7,L,7,L,7,0.14221,0.888667,0.126377
6,114,2,8,2,8,1,C,6,S,6,S,7,0.187236,0.817326,0.153033
6,115,9,8,9,8,1,C,1,S,1,S,12,0.854562,0.32873,0.28092
6,116,9,8,8,9,1,I,1,S,1,S,22,0.808137,0.563254,0.455187
6,117,8,9,1,9,1,C,1,S,8,L,9,0.25368,0.863032,0.218934
6,118,2,8,8,9,1,C,6,S,1,S,9,0.236553,0.885306,0.209422
6,119,2,9,1,2,1,C,7,L,1,S,8,0.193503,0.88641,0.171523
6,120,8,9,2,8,1,C,1,S,6,S,9,0.281098,0.819881,0.230467
6,121,8,1,9,1,1,C,7,L,8,L,7,0.914583,0.125424,0.114711
6,122,1,2,9,1,1,I,1,S,8,L,20,0.619398,0.809649,0.501494
6,123,2,1,1,9,1,I,1,S,8,L,18,0.808889,0.6119,0.49496
6,124,9,1,8,9,1,I,8,L,1,S,8,0.809124,0.266871,0.215931
6,125,8,1,2,8,1,I,7,L,6,S,11,0.823137,0.478125,0.393562
6,126,1,2,9,2,1,I,1,S,7,L,19,0.612071,0.807484,0.494237
6,127,2,9,8,9,1,C,7,L,1,S,8,0.255648,0.806192,0.206101
6,128,2,1,8,1,1,C,1,S,7,L,8,0.874207,0.19671,0.171965
6,129,8,9,9,2,1,I,1,S,7,L,25,0.627287,0.807119,0.506295
6,130,1,2,9,8,1,I,1,S,1,S,14,0.500669,0.811167,0.406126
6,131,2,1,1,2,1,I,1,S,1,S,14,0.811781,0.520129,0.422231
6,132,1,2,8,2,1,I,1,S,6,S,18,0.602076,0.804547,0.484398
6,133,8,1,8,2,1,C,7,L,6,S,7,0.867373,0.15645,0.135701
6,134,1,9,2,9,1,C,8,L,7,L,7,0.152924,0.872589,0.13344
6,135,1,2,1,8,1,C,1,S,7,L,8,0.211962,0.851575,0.180501
6,136,9,2,9,2,1,C,7,L,7,L,7,0.844712,0.172078,0.145357
6,137,2,8,8,2,1,I,6,S,6,S,12,0.52284,0.806291,0.421561
6,138,9,2,9,8,1,C,7,L,1,S,8,0.841726,0.222919,0.187637
6,139,8,9,2,9,1,C,1,S,7,L,9,0.276406,0.827002,0.228588
6,140,1,9,9,2,1,I,8,L,7,L,11,0.507201,0.806791,0.409205
6,141,9,1,1,8,1,I,8,L,7,L,11,0.808759,0.509506,0.412068
6,142,9,2,1,2,1,I,7,L,1,S,10,0.800057,0.410263,0.328234
6,143,8,2,8,9,1,I,6,S,1,S,9,0.810935,0.304468,0.246904
6,144,2,8,9,2,1,I,6,S,7,L,13,0.548692,0.817914,0.448783
7,1,1,9,2,9,1,C,8,L,7,L,7,0.134046,0.905297,0.121351
7,2,9,2,2,1,1,C,7,L,1,S,8,0.85161,0.215742,0.183728
7,3,2,8,9,8,1,I,6,S,1,S,10,0.333429,0.851615,0.283953
7,4,8,2,2,1,1,C,6,S,1,S,8,0.853737,0.213777,0.18251
7,5,8,2,1,2,1,I,6,S,1,S,11,0.840117,0.423621,0.355891
7,6,2,8,9,2,1,I,6,S,7,L,13,0.551116,0.81325,0.448195
7,7,8,9,8,9,1,C,1,S,1,S,12,0.326765,0.857828,0.280308
7,8,9,1,8,1,1,C,8,L,7,L,7,0.894741,0.141057,0.12621
7,9,9,8,2,8,0,I,1,S,6,S,11,0.379745,0.815614,0.309725
7,10,1,2,9,8,1,I,1,S,1,S,12,0.410006,0.829728,0.340194
7,11,9,2,2,8,1,I,7,L,6,S,12,0.800953,0.532142,0.426221
7,12,1,8,1,2,1,C,7,L,1,S,7,0.20027,0.802961,0.160809
7,13,8,1,9,1,1,C,7,L,8,L,7,0.908673,0.13142,0.119418
7,14,9,8,2,1,1,C,1,S,1,S,12,0.868331,0.322158,0.279739
7,15,8,2,9,2,1,C,6,S,7,L,7,0.844939,0.171142,0.144605
7,16,9,1,9,1,1,C,8,L,8,L,7,0.907284,0.132802,0.120489
7,17,8,1,1,8,1,I,7,L,7,L,12,0.824556,0.528549,0.435819
7,18,1,2,9,2,1,I,1,S,7,L,17,0.603253,0.803855,0.484928
7,19,2,1,1,8,1,I,1,S,7,L,20,0.814994,0.613417,0.499932
7,20,1,2,8,2,1,I,1,S,6,S,17,0.589705,0.814346,0.480224
7,21,9,8,9,1,1,C,1,S,8,L,9,0.828593,0.287539,0.238253
7,22,2,8,8,1,1,I,6,S,7,L,13,0.56218,0.805535,0.452855
7,23,9,2,2,9,1,I,7,L,7,L,13,0.827574,0.538145,0.445355
7,24,9,2,9,2,1,C,7,L,7,L,7,0.842943,0.173003,0.145832
7,25,9,1,1,8,1,I,8,L,7,L,12,0.82338,0.529824,0.436246
7,26,1,9,1,2,1,C,8,L,1,S,7,0.187379,0.822101,0.154044
7,27,2,8,2,8,1,C,6,S,6,S,7,0.185702,0.823654,0.152955
7,28,9,1,8,9,1,I,8,L,1,S,9,0.878416,0.263957,0.231864
7,29,1,2,1,8,1,C,1,S,7,L,8,0.186404,0.888188,0.165562
7,30,1,9,2,1,1,I,8,L,1,S,9,0.323474,0.841432,0.272181
7,31,9,8,8,2,1,C,1,S,6,S,10,0.858903,0.294048,0.252558
7,32,1,8,2,8,1,C,7,L,6,S,7,0.148128,0.882369,0.130704
7,33,9,8,1,2,1,I,1,S,1,S,27,0.814803,0.602825,0.491183
7,34,1,8,2,1,1,I,7,L,1,S,9,0.337596,0.821424,0.27731
7,35,8,1,8,9,1,I,7,L,1,S,9,0.879824,0.262537,0.230986
7,36,9,8,1,9,0,I,1,S,8,L,10,0.354818,0.810644,0.287631
7,37,2,9,1,8,1,C,7,L,7,L,7,0.148696,0.8793,0.130749
7,38,8,1,2,8,1,I,7,L,6,S,11,0.811616,0.495961,0.40253
7,39,8,9,1,9,1,C,1,S,8,L,9,0.236004,0.885672,0.209022
7,40,1,2,2,8,1,C,1,S,6,S,8,0.205348,0.859581,0.176513
7,41,8,2,1,9,1,I,6,S,8,L,13,0.810398,0.561962,0.455413
7,42,9,2,9,1,1,C,7,L,8,L,7,0.866578,0.158066,0.136976
7,43,8,9,8,2,1,I,1,S,6,S,23,0.622046,0.80499,0.500741
7,44,9,2,1,2,1,I,7,L,1,S,11,0.838119,0.425559,0.356669
7,45,1,8,9,2,1,I,7,L,7,L,11,0.501535,0.811865,0.407179
7,46,2,9,8,1,1,I,7,L,7,L,12,0.539092,0.80572,0.434358
7,47,9,8,8,1,1,C,1,S,7,L,9,0.815352,0.296697,0.241912
7,48,9,1,2,8,1,I,8,L,6,S,11,0.810346,0.4973,0.402985
7,49,1,8,8,1,1,I,7,L,7,L,11,0.513274,0.803941,0.412642
7,50,8,1,8,2,1,C,7,L,6,S,7,0.868549,0.157348,0.136664
7,51,8,9,2,9,1,C,1,S,7,L,9,0.255365,0.857399,0.21895
7,52,1,9,9,2,1,I,8,L,7,L,11,0.487381,0.831119,0.405072
7,53,9,1,9,2,1,C,8,L,7,L,7,0.883649,0.14774,0.13055
7,54,8,9,2,1,1,I,1,S,1,S,20,0.575372,0.818071,0.470695
7,55,1,2,1,2,1,C,1,S,1,S,9,0.226848,0.880905,0.199831
7,56,8,9,8,1,1,I,1,S,7,L,24,0.628905,0.806101,0.50696
7,57,1,9,1,9,1,C,8,L,8,L,7,0.116851,0.931684,0.108868
7,58,2,8,1,9,1,C,6,S,8,L,7,0.167316,0.853828,0.142859
7,59,1,9,9,1,1,I,8,L,8,L,11,0.511912,0.813958,0.416675
7,60,1,2,2,1,1,I,1,S,1,S,13,0.482286,0.812148,0.391687
7,61,9,1,1,9,1,I,8,L,8,L,12,0.821767,0.533416,0.438343
7,62,8,2,8,9,1,I,6,S,1,S,9,0.836112,0.291105,0.243397
7,63,1,2,2,9,1,C,1,S,7,L,8,0.203863,0.863703,0.176077
7,64,2,9,9,8,1,I,7,L,1,S,9,0.31264,0.823348,0.257411
7,65,9,8,2,9,0,I,1,S,7,L,11,0.377697,0.820088,0.309745
7,66,8,9,9,1,1,I,1,S,8,L,24,0.637197,0.800041,0.509784
7,67,1,9,2,8,1,C,8,L,6,S,7,0.135237,0.90151,0.121917
7,68,9,1,2,9,1,I,8,L,7,L,11,0.808299,0.501774,0.405583
7,69,9,2,1,8,1,I,7,L,7,L,13,0.81034,0.560136,0.4539
7,70,2,9,1,2,1,C,7,L,1,S,8,0.182194,0.898803,0.163757
7,71,1,8,9,8,1,I,7,L,1,S,9,0.291896,0.855837,0.249815
7,72,9,1,2,1,1,C,8,L,1,S,8,0.895008,0.188088,0.16834
7,73,8,9,2,8,1,C,1,S,6,S,9,0.257091,0.853075,0.219318
7,74,8,2,2,8,1,I,6,S,6,S,12,0.802823,0.530281,0.425722
7,75,9,8,9,2,1,C,1,S,7,L,9,0.803368,0.30438,0.244529
7,76,9,1,1,2,1,I,8,L,1,S,10,0.840382,0.386645,0.32493
7,77,8,1,8,1,1,C,7,L,7,L,7,0.89613,0.139675,0.125167
7,78,9,2,1,9,1,I,7,L,8,L,13,0.808669,0.563728,0.45587
7,79,2,9,9,1,1,I,7,L,8,L,13,0.552263,0.825158,0.455704
7,80,2,9,8,9,1,C,7,L,1,S,8,0.253117,0.812708,0.20571
7,81,8,2,9,8,1,C,6,S,1,S,8,0.818517,0.241263,0.197478
7,82,9,1,9,8,1,C,8,L,1,S,8,0.859788,0.215573,0.185347
7,83,8,9,9,2,1,I,1,S,7,L,24,0.620978,0.811533,0.503944
7,84,2,1,8,1,1,C,1,S,7,L,8,0.850081,0.214819,0.182613
7,85,2,8,9,1,1,I,6,S,8,L,14,0.571872,0.822086,0.470128
7,86,8,1,9,2,1,C,7,L,7,L,7,0.885039,0.146357,0.129532
7,87,8,1,2,1,1,C,7,L,1,S,8,0.896437,0.186667,0.167335
7,88,2,8,2,9,1,C,6,S,7,L,7,0.184512,0.827442,0.152673
7,89,8,1,1,9,1,I,7,L,8,L,12,0.822944,0.532141,0.437922
7,90,9,8,9,8,1,C,1,S,1,S,12,0.800692,0.371548,0.297495
7,91,8,2,8,1,1,C,6,S,7,L,7,0.856031,0.16446,0.140783
7,92,2,1,8,9,1,I,1,S,1,S,12,0.845321,0.370235,0.312968
7,93,2,8,2,1,1,I,6,S,1,S,10,0.38875,0.810926,0.315248
7,94,9,2,8,1,1,C,7,L,7,L,7,0.854035,0.166321,0.142044
7,95,1,8,1,9,1,C,7,L,8,L,7,0.129742,0.912544,0.118395
7,96,1,2,8,1,1,I,1,S,7,L,18,0.604588,0.814613,0.492505
7,97,2,9,2,1,1,I,7,L,1,S,10,0.36592,0.842457,0.308272
7,98,2,1,8,2,1,C,1,S,6,S,8,0.820684,0.234099,0.192122
7,99,9,8,1,8,0,I,1,S,7,L,10,0.356242,0.807104,0.287525
7,100,2,8,8,2,1,I,6,S,6,S,13,0.534762,0.825579,0.441488
7,101,1,2,9,1,1,I,1,S,8,L,18,0.614434,0.807203,0.495973
7,102,2,9,2,9,1,C,7,L,7,L,7,0.165001,0.856042,0.141248
7,103,1,8,8,2,1,I,7,L,6,S,11,0.483902,0.824708,0.399078
7,104,2,8,8,9,1,C,6,S,1,S,9,0.247257,0.876878,0.216814
7,105,1,8,2,9,1,C,7,L,7,L,7,0.146937,0.886157,0.130209
7,106,8,2,1,8,1,I,6,S,7,L,13,0.812069,0.55837,0.453435
7,107,1,8,8,9,1,C,7,L,1,S,8,0.233407,0.844553,0.197125
7,108,1,9,1,8,1,C,8,L,7,L,7,0.117742,0.928555,0.10933
7,109,1,2,1,9,1,C,1,S,8,L,8,0.185297,0.891525,0.165197
7,110,2,1,2,8,1,I,1,S,6,S,19,0.814923,0.60236,0.490877
7,111,9,1,8,2,1,C,8,L,6,S,7,0.867159,0.15873,0.137644
7,112,8,9,9,8,1,I,1,S,1,S,17,0.540348,0.804514,0.434718
7,113,2,1,9,8,1,C,1,S,1,S,10,0.861372,0.273946,0.23597
7,114,8,2,8,2,1,C,6,S,6,S,7,0.828449,0.182133,0.150888
7,115,2,1,2,9,1,I,1,S,7,L,19,0.812703,0.606543,0.492939
7,116,2,9,9,2,1,I,7,L,7,L,12,0.527665,0.813579,0.429297
7,117,1,9,8,1,1,I,8,L,7,L,11,0.49912,0.823196,0.410873
7,118,2,1,9,1,1,C,1,S,8,L,8,0.863184,0.205984,0.177802
7,119,2,9,1,9,1,C,7,L,8,L,7,0.147806,0.882429,0.130428
7,120,8,2,9,1,1,C,6,S,8,L,7,0.868574,0.156205,0.135675
7,121,9,2,8,9,1,I,7,L,1,S,9,0.833961,0.293108,0.244441
7,122,2,8,1,2,1,C,6,S,1,S,8,0.203489,0.868032,0.176635
7,123,1,2,8,9,1,C,1,S,1,S,10,0.285089,0.855244,0.243821
7,124,8,9,1,8,1,C,1,S,7,L,9,0.237288,0.882206,0.209337
7,125,1,9,8,2,1,I,8,L,6,S,10,0.460421,0.805149,0.370707
7,126,1,9,9,8,1,I,8,L,1,S,8,0.280987,0.803435,0.225755
7,127,8,1,2,9,1,I,7,L,7,L,11,0.809568,0.500435,0.405136
7,128,2,1,9,2,1,C,1,S,7,L,8,0.838339,0.222116,0.186209
7,129,9,2,9,8,1,C,7,L,1,S,8,0.81639,0.243227,0.198568
7,130,2,1,1,9,1,I,1,S,8,L,20,0.813226,0.616916,0.501692
7,131,9,8,8,9,1,I,1,S,1,S,22,0.81453,0.563747,0.459189
7,132,1,9,8,9,1,C,8,L,1,S,8,0.219711,0.864429,0.189924
7,133,2,8,1,8,1,C,6,S,7,L,7,0.168207,0.8507,0.143094
7,134,8,9,1,2,1,C,1,S,1,S,10,0.288177,0.846149,0.243841
7,135,2,9,2,8,1,C,7,L,6,S,7,0.166192,0.852255,0.141638
7,136,2,9,8,2,1,I,7,L,6,S,12,0.510621,0.826232,0.421892
7,137,8,1,9,8,1,C,7,L,1,S,8,0.861217,0.214152,0.184431
7,138,8,2,2,9,1,I,6,S,7,L,12,0.800681,0.534756,0.428169
7,139,9,2,8,2,1,C,7,L,6,S,7,0.826453,0.183994,0.152062
7,140,2,1,2,1,1,C,1,S,1,S,9,0.812222,0.276449,0.224538
7,141,1,8,9,1,1,I,7,L,8,L,12,0.530243,0.827642,0.438851
7,142,8,1,1,2,1,I,7,L,1,S,10,0.841732,0.385256,0.324282
7,143,1,8,1,8,1,C,7,L,7,L,7,0.130633,0.909415,0.118799
7,144,2,1,1,2,1,I,1,S,1,S,16,0.819753,0.546726,0.44818
8,1,8,2,2,8,1,I,6,S,6,S,13,0.828099,0.533363,0.441677
8,2,2,9,2,8,1,C,7,L,6,S,7,0.172765,0.841823,0.145437
8,3,1,8,9,1,1,I,7,L,8,L,12,0.53737,0.815197,0.438063
8,4,8,1,2,1,1,C,7,L,1,S,8,0.892213,0.186254,0.166178
8,5,8,1,8,1,1,C,7,L,7,L,7,0.890635,0.141734,0.126233
8,6,1,2,8,1,1,I,1,S,7,L,19,0.621757,0.801291,0.498208
8,7,2,1,2,9,1,I,1,S,7,L,20,0.804943,0.617303,0.496894
8,8,8,1,8,2,1,C,7,L,6,S,7,0.858591,0.162536,0.139552
8,9,2,1,8,9,1,I,1,S,1,S,12,0.819154,0.383892,0.314467
8,10,1,2,9,1,1,I,1,S,8,L,20,0.617048,0.813239,0.501807
8,11,1,2,1,2,1,C,1,S,1,S,9,0.25417,0.842709,0.214192
8,12,9,1,9,8,1,C,8,L,1,S,8,0.83892,0.231694,0.194373
8,13,8,2,1,8,1,I,6,S,7,L,13,0.810533,0.557501,0.451873
8,14,2,8,1,9,1,C,6,S,8,L,7,0.166898,0.85291,0.142349
8,15,2,8,9,2,1,I,6,S,7,L,13,0.542934,0.819153,0.444746
8,16,2,9,8,2,1,I,7,L,6,S,12,0.518762,0.815343,0.422969
8,17,9,2,8,2,1,C,7,L,6,S,7,0.836735,0.175895,0.147177
8,18,1,8,8,2,1,I,7,L,6,S,11,0.492516,0.810932,0.399397
8,19,8,9,9,2,0,I,1,S,7,L,11,0.809098,0.382144,0.309192
8,20,2,8,9,1,1,I,6,S,8,L,14,0.569399,0.823516,0.468909
8,21,8,2,8,9,1,I,6,S,1,S,9,0.838134,0.286156,0.239838
8,22,8,2,9,1,1,C,6,S,8,L,7,0.864511,0.157924,0.136527
8,23,2,8,1,8,1,C,6,S,7,L,7,0.16803,0.84924,0.142698
8,24,1,9,2,1,1,I,8,L,1,S,9,0.344854,0.813716,0.280613
8,25,8,9,1,2,1,C,1,S,1,S,11,0.321006,0.83744,0.268823
8,26,9,1,8,2,1,C,8,L,6,S,7,0.867391,0.156882,0.136078
8,27,1,9,8,2,1,I,8,L,6,S,11,0.483395,0.824143,0.398387
8,28,2,9,9,8,1,I,7,L,1,S,9,0.291769,0.835429,0.243752
8,29,9,2,8,9,1,I,7,L,1,S,9,0.850284,0.277899,0.236293
8,30,8,9,1,9,1,C,1,S,8,L,9,0.284089,0.824875,0.234338
8,31,9,8,1,9,1,I,1,S,8,L,25,0.807466,0.628174,0.507229
8,32,9,8,9,8,1,C,1,S,1,S,12,0.858103,0.320288,0.27484
8,33,1,8,1,2,1,C,7,L,1,S,8,0.170641,0.915717,0.156259
8,34,1,8,9,8,1,I,7,L,1,S,9,0.271006,0.865708,0.234612
8,35,8,9,2,1,1,I,1,S,1,S,26,0.598498,0.808243,0.483732
8,36,9,2,9,8,1,C,7,L,1,S,8,0.806378,0.252427,0.203551
8,37,2,1,8,1,1,C,1,S,7,L,8,0.829156,0.23159,0.192024
8,38,9,1,1,9,1,I,8,L,8,L,12,0.822459,0.530479,0.436298
8,39,1,9,8,1,1,I,8,L,7,L,12,0.521698,0.832825,0.434483
8,40,2,8,9,8,1,I,6,S,1,S,9,0.304584,0.81626,0.24862
8,41,9,8,2,8,1,I,1,S,6,S,24,0.807771,0.619018,0.500025
8,42,9,1,2,1,1,C,8,L,1,S,8,0.901476,0.180153,0.162403
8,43,8,2,8,1,1,C,6,S,7,L,7,0.857811,0.162227,0.13916
8,44,9,8,8,1,1,C,1,S,7,L,9,0.873465,0.242213,0.211564
8,45,9,2,2,9,1,I,7,L,7,L,12,0.808234,0.528599,0.427232
8,46,2,1,2,1,1,C,1,S,1,S,10,0.890287,0.251865,0.224232
8,47,8,2,1,2,1,I,6,S,1,S,11,0.837619,0.423459,0.354697
8,48,8,1,2,9,1,I,7,L,7,L,12,0.830985,0.512784,0.426116
8,49,1,8,2,8,1,C,7,L,6,S,7,0.1545,0.869733,0.134373
8,50,2,9,1,8,1,C,7,L,7,L,7,0.157095,0.866368,0.136102
8,51,2,8,1,2,1,C,6,S,1,S,8,0.202556,0.86751,0.175719
8,52,1,8,1,8,1,C,7,L,7,L,7,0.138829,0.894278,0.124152
8,53,8,9,2,8,1,C,1,S,6,S,10,0.279436,0.869012,0.242834
8,54,8,1,9,1,1,C,7,L,8,L,7,0.897335,0.13743,0.123321
8,55,9,8,9,1,1,C,1,S,8,L,9,0.88054,0.237421,0.209059
8,56,8,2,2,1,1,C,6,S,1,S,8,0.857128,0.208713,0.178894
8,57,9,8,1,8,1,I,1,S,7,L,25,0.809511,0.624208,0.505303
8,58,8,9,8,2,0,I,1,S,6,S,12,0.825055,0.397422,0.327895
8,59,9,8,1,2,1,I,1,S,1,S,21,0.806555,0.593267,0.478503
8,60,8,2,8,2,1,C,6,S,6,S,7,0.825767,0.18303,0.15114
8,61,9,1,9,2,1,C,8,L,7,L,7,0.876686,0.15078,0.132187
8,62,2,8,2,9,1,C,6,S,7,L,7,0.182231,0.829076,0.151083
8,63,1,2,1,9,1,C,1,S,8,L,8,0.20976,0.85815,0.180006
8,64,8,9,9,1,0,I,1,S,8,L,10,0.804262,0.355523,0.285934
8,65,1,2,2,1,1,I,1,S,1,S,15,0.523277,0.817722,0.427895
8,66,8,9,8,9,1,C,1,S,1,S,14,0.357419,0.846516,0.302561
8,67,2,1,2,8,1,I,1,S,6,S,20,0.807497,0.612574,0.494652
8,68,9,1,8,1,1,C,8,L,7,L,7,0.899436,0.13608,0.122395
8,69,9,2,2,8,1,I,7,L,6,S,12,0.810763,0.523454,0.424397
8,70,2,9,9,1,1,I,7,L,8,L,13,0.558742,0.815757,0.455798
8,71,1,9,8,9,1,C,8,L,1,S,8,0.236462,0.839607,0.198535
8,72,2,9,1,2,1,C,7,L,1,S,8,0.190472,0.886057,0.168769
8,73,9,2,9,2,1,C,7,L,7,L,7,0.84603,0.169792,0.143649
8,74,9,1,1,2,1,I,8,L,1,S,10,0.840723,0.383715,0.322598
8,75,9,1,9,1,1,C,8,L,8,L,7,0.906136,0.131776,0.119407
8,76,2,1,9,1,1,C,1,S,8,L,8,0.836153,0.226976,0.189787
8,77,8,2,9,8,1,C,6,S,1,S,9,0.891434,0.231284,0.206174
8,78,2,8,8,1,1,I,6,S,7,L,13,0.565179,0.80281,0.453732
8,79,9,2,1,2,1,I,7,L,1,S,10,0.807578,0.40604,0.327909
8,80,1,8,8,1,1,I,7,L,7,L,12,0.530718,0.819982,0.43518
8,81,1,2,1,8,1,C,1,S,7,L,8,0.211142,0.854234,0.180365
8,82,8,2,9,2,1,C,6,S,7,L,7,0.835062,0.176928,0.147746
8,83,8,1,8,9,1,I,7,L,1,S,9,0.874125,0.262462,0.229425
8,84,2,9,1,9,1,C,7,L,8,L,7,0.155962,0.870038,0.135693
8,85,9,8,9,2,1,C,1,S,7,L,9,0.848958,0.258859,0.219761
8,86,1,9,1,9,1,C,8,L,8,L,7,0.129796,0.910661,0.1182
8,87,1,9,1,8,1,C,8,L,7,L,7,0.130929,0.906991,0.118751
8,88,9,8,2,1,1,C,1,S,1,S,10,0.810464,0.310328,0.25151
8,89,1,2,8,2,1,I,1,S,6,S,18,0.606263,0.802803,0.48671
8,90,9,1,2,8,1,I,8,L,6,S,11,0.809452,0.496178,0.401633
8,91,1,9,1,2,1,C,8,L,1,S,7,0.199718,0.801651,0.160104
8,92,2,1,1,9,1,I,1,S,8,L,21,0.807539,0.624249,0.504105
8,93,8,1,1,8,1,I,7,L,7,L,12,0.81555,0.53267,0.434419
8,94,9,2,1,8,1,I,7,L,7,L,13,0.821618,0.5493,0.451315
8,95,1,9,9,8,1,I,8,L,1,S,8,0.273197,0.800815,0.21878
8,96,8,1,1,9,1,I,7,L,8,L,12,0.8136,0.536866,0.436794
8,97,2,8,2,8,1,C,6,S,6,S,7,0.183701,0.824694,0.151497
8,98,1,9,2,9,1,C,8,L,7,L,7,0.145129,0.886827,0.128704
8,99,9,8,2,9,1,I,1,S,7,L,24,0.80532,0.623597,0.502195
8,100,8,9,1,8,1,C,1,S,7,L,9,0.285674,0.82081,0.234484
8,101,8,1,1,2,1,I,7,L,1,S,10,0.831385,0.390192,0.324399
8,102,8,9,9,8,1,I,1,S,1,S,22,0.565627,0.807536,0.456764
8,103,9,1,1,8,1,I,8,L,7,L,12,0.824409,0.526284,0.433873
8,104,1,8,8,9,1,C,7,L,1,S,8,0.245004,0.82625,0.202435
8,105,9,2,8,1,1,C,7,L,7,L,7,0.86878,0.155092,0.134741
8,106,2,1,8,2,1,C,1,S,6,S,9,0.904143,0.216793,0.196012
8,107,9,1,8,9,1,I,8,L,1,S,8,0.802186,0.270486,0.21698
8,108,1,8,2,1,1,I,7,L,1,S,9,0.353781,0.800153,0.283079
8,109,2,1,1,8,1,I,1,S,7,L,21,0.809619,0.620226,0.502147
8,110,1,2,2,9,1,C,1,S,7,L,8,0.226336,0.83301,0.18854
8,111,8,2,1,9,1,I,6,S,8,L,13,0.808521,0.561691,0.454139
8,112,9,2,1,9,1,I,7,L,8,L,13,0.819606,0.55349,0.453644
8,113,9,8,8,2,1,C,1,S,6,S,9,0.838674,0.265908,0.22301
8,114,1,2,9,8,1,I,1,S,1,S,12,0.382478,0.832349,0.318355
8,115,1,2,8,9,1,C,1,S,1,S,10,0.321495,0.806434,0.259264
8,116,1,8,2,9,1,C,7,L,7,L,7,0.15303,0.874114,0.133766
8,117,8,1,2,8,1,I,7,L,6,S,11,0.800316,0.502652,0.40228
8,118,2,8,2,1,1,I,6,S,1,S,10,0.396363,0.80369,0.318553
8,119,1,9,9,2,1,I,8,L,7,L,11,0.493458,0.816906,0.403109
8,120,9,8,8,9,1,I,1,S,1,S,15,0.832442,0.435217,0.362293
8,121,9,2,2,1,1,C,7,L,1,S,8,0.868933,0.200886,0.174556
8,122,8,9,2,9,1,C,1,S,7,L,10,0.277159,0.874119,0.242269
8,123,8,9,8,1,0,I,1,S,7,L,11,0.832931,0.365179,0.304169
8,124,8,2,2,9,1,I,6,S,7,L,13,0.825506,0.538474,0.444514
8,125,2,9,8,1,1,I,7,L,7,L,13,0.552316,0.820434,0.453139
8,126,2,1,1,2,1,I,1,S,1,S,17,0.810358,0.565307,0.458101
8,127,1,8,1,9,1,C,7,L,8,L,7,0.137697,0.897948,0.123645
8,128,9,1,2,9,1,I,8,L,7,L,11,0.807025,0.501328,0.404584
8,129,2,9,2,1,1,I,7,L,1,S,10,0.383172,0.822907,0.315315
8,130,1,2,2,8,1,C,1,S,6,S,8,0.228139,0.828249,0.188956
8,131,2,9,8,9,1,C,7,L,1,S,9,0.238469,0.890302,0.212309
8,132,2,8,8,9,1,C,6,S,1,S,9,0.251284,0.871132,0.218902
8,133,2,8,8,2,1,I,6,S,6,S,13,0.533581,0.826124,0.440804
8,134,1,9,9,1,1,I,8,L,8,L,12,0.52835,0.82804,0.437495
8,135,2,9,9,2,1,I,7,L,7,L,12,0.5285,0.8082,0.427134
8,136,9,2,9,1,1,C,7,L,8,L,7,0.87548,0.150788,0.132012
8,137,1,8,9,2,1,I,7,L,7,L,11,0.502579,0.803695,0.40392
8,138,2,1,9,8,1,C,1,S,1,S,11,0.871194,0.293729,0.255895
8,139,1,2,9,2,1,I,1,S,7,L,19,0.604272,0.814343,0.492084
8,140,2,1,9,2,1,C,1,S,7,L,8,0.805091,0.247512,0.19927
8,141,8,1,9,2,1,C,7,L,7,L,7,0.867886,0.156434,0.135767
8,142,2,9,2,9,1,C,7,L,7,L,7,0.171295,0.846204,0.144951
8,143,1,9,2,8,1,C,8,L,6,S,7,0.146599,0.882445,0.129366
8,144,8,1,9,8,1,C,7,L,1,S,8,0.829657,0.237795,0.197288
9,1,8,2,8,2,1,C,6,S,6,S,7,0.82222,0.185143,0.152228
9,2,9,1,9,2,1,C,8,L,7,L,7,0.891524,0.14202,0.126614
9,3,9,8,8,9,1,I,1,S,1,S,23,0.803862,0.583221,0.468829
9,4,1,2,2,8,1,C,1,S,6,S,8,0.216437,0.841544,0.182141
9,5,8,2,2,9,1,I,6,S,7,L,13,0.817335,0.544074,0.444691
9,6,2,1,2,8,1,I,1,S,6,S,18,0.81125,0.602611,0.488868
9,7,2,9,1,2,1,C,7,L,1,S,8,0.202936,0.871989,0.176958
9,8,2,8,2,8,1,C,6,S,6,S,7,0.179455,0.832188,0.14934
9,9,8,1,1,2,1,I,7,L,1,S,9,0.80547,0.353363,0.284623
9,10,2,8,9,8,1,I,6,S,1,S,9,0.310604,0.816727,0.253678
9,11,8,9,8,1,1,I,1,S,7,L,25,0.633029,0.805666,0.510009
9,12,2,1,1,8,1,I,1,S,7,L,19,0.81336,0.613249,0.498792
9,13,1,2,8,1,1,I,1,S,7,L,19,0.607119,0.814717,0.494631
9,14,1,9,1,2,1,C,8,L,1,S,8,0.17063,0.919524,0.156899
9,15,8,1,9,1,1,C,7,L,8,L,7,0.902891,0.136127,0.122908
9,16,8,1,2,8,1,I,7,L,6,S,11,0.812978,0.495218,0.402601
9,17,2,9,1,8,1,C,7,L,7,L,7,0.159209,0.868022,0.138197
9,18,1,9,9,1,1,I,8,L,8,L,11,0.51564,0.806097,0.415656
9,19,1,2,8,9,1,C,1,S,1,S,10,0.268456,0.866141,0.23252
9,20,2,9,2,8,1,C,7,L,6,S,7,0.175219,0.842875,0.147688
9,21,8,9,8,9,1,C,1,S,1,S,12,0.315929,0.871275,0.275261
9,22,1,2,1,8,1,C,1,S,7,L,8,0.199013,0.868248,0.172792
9,23,2,9,8,1,1,I,7,L,7,L,13,0.546692,0.828229,0.452786
9,24,2,9,2,9,1,C,7,L,7,L,7,0.168766,0.851137,0.143643
9,25,8,1,8,9,1,I,7,L,1,S,9,0.856529,0.286462,0.245363
9,26,9,8,9,1,1,C,1,S,8,L,9,0.826559,0.281943,0.233043
9,27,1,8,9,1,1,I,7,L,8,L,12,0.524595,0.829509,0.435156
9,28,9,1,2,9,1,I,8,L,7,L,11,0.817275,0.494958,0.404517
9,29,9,2,9,1,1,C,7,L,8,L,7,0.870476,0.1533,0.133444
9,30,9,8,8,1,1,C,1,S,7,L,9,0.818422,0.287764,0.235513
9,31,2,1,1,9,1,I,1,S,8,L,19,0.809829,0.617115,0.499758
9,32,2,1,1,2,1,I,1,S,1,S,14,0.805093,0.517945,0.416994
9,33,2,8,1,8,1,C,6,S,7,L,7,0.163445,0.857335,0.140127
9,34,2,1,9,2,1,C,1,S,7,L,8,0.843603,0.220172,0.185738
9,35,2,1,9,1,1,C,1,S,8,L,8,0.867543,0.205005,0.177851
9,36,1,9,8,9,1,C,8,L,1,S,8,0.211404,0.868011,0.183501
9,37,1,9,2,9,1,C,8,L,7,L,7,0.138772,0.896236,0.124373
9,38,8,2,9,1,1,C,6,S,8,L,7,0.854845,0.164349,0.140493
9,39,1,8,1,2,1,C,7,L,1,S,8,0.174143,0.910677,0.158588
9,40,1,2,1,2,1,C,1,S,1,S,9,0.253091,0.840065,0.212613
9,41,2,9,8,9,1,C,7,L,1,S,8,0.24371,0.820476,0.199958
9,42,1,8,2,8,1,C,7,L,6,S,7,0.148205,0.879644,0.130367
9,43,9,8,1,8,0,I,1,S,7,L,11,0.370562,0.827321,0.306574
9,44,2,8,1,9,1,C,6,S,8,L,7,0.15852,0.863531,0.136887
9,45,1,2,9,8,1,I,1,S,1,S,12,0.394655,0.831197,0.328036
9,46,8,1,8,1,1,C,7,L,7,L,7,0.895174,0.141411,0.126587
9,47,9,1,2,8,1,I,8,L,6,S,11,0.824327,0.486461,0.401003
9,48,8,9,1,2,1,C,1,S,1,S,11,0.28953,0.882554,0.255526
9,49,9,8,1,2,1,I,1,S,1,S,26,0.81104,0.596839,0.48406
9,50,2,9,9,8,1,I,7,L,1,S,9,0.304929,0.828905,0.252758
9,51,8,1,8,2,1,C,7,L,6,S,7,0.870266,0.156921,0.136563
9,52,2,9,8,2,1,I,7,L,6,S,12,0.520079,0.817553,0.425192
9,53,2,8,8,1,1,I,6,S,7,L,13,0.553405,0.816008,0.451583
9,54,8,2,1,2,1,I,6,S,1,S,10,0.805212,0.39588,0.318767
9,55,2,1,8,1,1,C,1,S,7,L,8,0.859482,0.21064,0.181041
9,56,9,1,2,1,1,C,8,L,1,S,8,0.908018,0.178996,0.162532
9,57,2,1,8,2,1,C,1,S,6,S,8,0.832959,0.227597,0.189579
9,58,2,9,9,1,1,I,7,L,8,L,13,0.55395,0.822662,0.455713
9,59,9,2,9,2,1,C,7,L,7,L,7,0.847803,0.167256,0.1418
9,60,1,2,8,2,1,I,1,S,6,S,18,0.595446,0.813474,0.484379
9,61,8,1,9,2,1,C,7,L,7,L,7,0.880218,0.150083,0.132106
9,62,8,2,9,8,1,C,6,S,1,S,9,0.898471,0.225385,0.202502
9,63,9,8,2,9,0,I,1,S,7,L,11,0.382229,0.809216,0.309306
9,64,1,2,1,9,1,C,1,S,8,L,8,0.193855,0.874669,0.169559
9,65,8,9,2,9,1,C,1,S,7,L,9,0.271453,0.840498,0.228156
9,66,9,1,8,9,1,I,8,L,1,S,9,0.868398,0.277661,0.241121
9,67,1,8,1,9,1,C,7,L,8,L,7,0.12727,0.910987,0.115941
9,68,8,1,2,1,1,C,7,L,1,S,8,0.896231,0.187551,0.168089
9,69,1,8,8,2,1,I,7,L,6,S,11,0.485718,0.820986,0.398768
9,70,8,2,2,8,1,I,6,S,6,S,13,0.823934,0.536411,0.441967
9,71,2,9,2,1,1,I,7,L,1,S,10,0.374504,0.834016,0.312342
9,72,1,8,1,8,1,C,7,L,7,L,7,0.132194,0.904791,0.119608
9,73,2,8,9,1,1,I,6,S,8,L,13,0.560662,0.810441,0.454384
9,74,9,2,2,9,1,I,7,L,7,L,12,0.804308,0.530305,0.426528
9,75,1,8,8,1,1,I,7,L,7,L,11,0.51229,0.802605,0.411167
9,76,8,9,9,2,1,I,1,S,7,L,25,0.622116,0.812906,0.505722
9,77,1,9,9,2,1,I,8,L,7,L,11,0.491818,0.822427,0.404484
9,78,9,1,1,8,1,I,8,L,7,L,11,0.805609,0.513063,0.413328
9,79,1,9,2,8,1,C,8,L,6,S,7,0.145226,0.887974,0.128957
9,80,9,1,1,9,1,I,8,L,8,L,11,0.800488,0.519098,0.415532
9,81,1,9,2,1,1,I,8,L,1,S,9,0.333291,0.828578,0.276158
9,82,2,9,1,9,1,C,7,L,8,L,7,0.154284,0.874218,0.134878
9,83,9,2,1,2,1,I,7,L,1,S,10,0.822439,0.383058,0.315041
9,84,2,8,2,1,1,I,6,S,1,S,10,0.380636,0.821594,0.312728
9,85,1,2,9,2,1,I,1,S,7,L,18,0.603063,0.807413,0.486921
9,86,9,8,2,8,0,I,1,S,6,S,11,0.389281,0.80072,0.311705
9,87,1,2,2,1,1,I,1,S,1,S,14,0.4994,0.818209,0.408613
9,88,2,1,9,8,1,C,1,S,1,S,10,0.853704,0.28412,0.242554
9,89,8,9,2,8,1,C,1,S,6,S,9,0.278564,0.831578,0.231648
9,90,9,1,9,1,1,C,8,L,8,L,7,0.914197,0.128065,0.117076
9,91,2,8,8,9,1,C,6,S,1,S,8,0.248755,0.80884,0.201203
9,92,9,1,8,2,1,C,8,L,6,S,7,0.881572,0.148858,0.131229
9,93,8,9,2,1,1,I,1,S,1,S,21,0.589913,0.810302,0.478008
9,94,1,9,1,8,1,C,8,L,7,L,7,0.129215,0.913121,0.117989
9,95,8,1,1,8,1,I,7,L,7,L,12,0.827445,0.526119,0.435335
9,96,2,8,9,2,1,I,6,S,7,L,13,0.538254,0.826294,0.444756
9,97,1,8,9,8,1,I,7,L,1,S,9,0.275238,0.868034,0.238916
9,98,8,9,8,2,1,I,1,S,6,S,24,0.628683,0.802463,0.504494
9,99,8,9,9,8,1,I,1,S,1,S,18,0.53762,0.815953,0.438672
9,100,9,2,8,2,1,C,7,L,6,S,7,0.837851,0.174094,0.145865
9,101,8,9,1,8,1,C,1,S,7,L,9,0.260282,0.858846,0.223542
9,102,9,2,2,1,1,C,7,L,1,S,8,0.861617,0.206728,0.17812
9,103,2,8,2,9,1,C,6,S,7,L,7,0.173002,0.84045,0.145399
9,104,9,2,8,9,1,I,7,L,1,S,9,0.820909,0.307021,0.252036
9,105,1,8,8,9,1,C,7,L,1,S,8,0.214916,0.859164,0.184648
9,106,2,1,8,9,1,I,1,S,1,S,12,0.817804,0.411635,0.336637
9,107,9,1,1,2,1,I,8,L,1,S,9,0.817339,0.344563,0.281624
9,108,1,9,8,2,1,I,8,L,6,S,11,0.481243,0.830315,0.399583
9,109,8,2,8,9,1,I,6,S,1,S,9,0.803611,0.319612,0.256844
9,110,8,1,2,9,1,I,7,L,7,L,11,0.805926,0.503714,0.405956
9,111,9,1,8,1,1,C,8,L,7,L,7,0.90648,0.133348,0.120877
9,112,9,2,2,8,1,I,7,L,6,S,12,0.811165,0.522201,0.423592
9,113,9,8,9,8,1,C,1,S,1,S,13,0.854127,0.338834,0.289407
9,114,1,9,1,9,1,C,8,L,8,L,7,0.124291,0.919317,0.114263
9,115,9,1,9,8,1,C,8,L,1,S,8,0.860983,0.217443,0.187215
9,116,1,9,9,8,1,I,8,L,1,S,8,0.278591,0.801693,0.223344
9,117,8,9,9,1,0,I,1,S,8,L,12,0.800446,0.457886,0.366513
9,118,1,2,9,1,1,I,1,S,8,L,19,0.612766,0.810322,0.496538
9,119,9,8,2,1,1,C,1,S,1,S,11,0.806232,0.343158,0.276665
9,120,8,2,8,1,1,C,6,S,7,L,7,0.847129,0.169632,0.143701
9,121,1,8,2,1,1,I,7,L,1,S,9,0.337224,0.819438,0.276334
9,122,8,9,1,9,1,C,1,S,8,L,9,0.255035,0.865266,0.220673
9,123,9,8,1,9,0,I,1,S,8,L,11,0.365441,0.833357,0.304543
9,124,1,9,8,1,1,I,8,L,7,L,11,0.507815,0.811933,0.412312
9,125,8,2,9,2,1,C,6,S,7,L,7,0.832172,0.178305,0.14838
9,126,2,8,1,2,1,C,6,S,1,S,8,0.207981,0.860353,0.178937
9,127,1,8,9,2,1,I,7,L,7,L,11,0.496294,0.813099,0.403536
9,128,2,9,9,2,1,I,7,L,7,L,12,0.530278,0.8098,0.429419
9,129,1,2,2,9,1,C,1,S,7,L,8,0.209543,0.850326,0.17818
9,130,8,1,9,8,1,C,7,L,1,S,8,0.849196,0.225998,0.191917
9,131,2,8,8,2,1,I,6,S,6,S,12,0.526703,0.805172,0.424087
9,132,9,8,8,2,1,C,1,S,6,S,10,0.8669,0.28089,0.243504
9,133,9,2,8,1,1,C,7,L,7,L,7,0.862759,0.158584,0.136819
9,134,8,2,1,8,1,I,6,S,7,L,13,0.805854,0.561279,0.452309
9,135,8,2,1,9,1,I,6,S,8,L,13,0.801084,0.566729,0.453998
9,136,8,1,1,9,1,I,7,L,8,L,12,0.822483,0.531872,0.437455
9,137,9,2,1,9,1,I,7,L,8,L,13,0.816526,0.554542,0.452798
9,138,9,2,1,8,1,I,7,L,7,L,13,0.821296,0.549092,0.450967
9,139,2,1,2,9,1,I,1,S,7,L,18,0.806199,0.608181,0.490314
9,140,1,8,2,9,1,C,7,L,7,L,7,0.141751,0.887906,0.125862
9,141,8,2,2,1,1,C,6,S,1,S,8,0.844781,0.21875,0.184796
9,142,9,8,9,2,1,C,1,S,7,L,9,0.802172,0.297854,0.23893
9,143,2,1,2,1,1,C,1,S,1,S,9,0.824268,0.270186,0.222706
9,144,9,2,9,8,1,C,7,L,1,S,8,0.814582,0.245175,0.199715
10,1,1,8,8,2,1,I,7,L,6,S,11,0.48793,0.81854,0.39939
10,2,1,9,2,9,1,C,8,L,7,L,7,0.147975,0.885473,0.131028
10,3,1,9,8,1,1,I,8,L,7,L,11,0.508386,0.81001,0.411798
10,4,9,8,9,2,1,C,1,S,7,L,9,0.826691,0.278755,0.230444
10,5,1,9,9,1,1,I,8,L,8,L,11,0.516187,0.805069,0.415566
10,6,2,1,9,2,1,C,1,S,7,L,8,0.846852,0.217389,0.184096
10,7,1,2,1,2,1,C,1,S,1,S,9,0.281133,0.807722,0.227078
10,8,8,9,9,1,0,I,1,S,8,L,11,0.834895,0.366638,0.306104
10,9,8,2,1,2,1,I,6,S,1,S,10,0.825425,0.382993,0.316132
10,10,8,1,2,8,1,I,7,L,6,S,11,0.820485,0.487063,0.399628
10,11,8,2,8,2,1,C,6,S,6,S,7,0.838461,0.174776,0.146543
10,12,9,2,9,2,1,C,7,L,7,L,7,0.858454,0.16331,0.140194
10,13,1,8,1,2,1,C,7,L,1,S,8,0.178968,0.90697,0.162318
10,14,1,2,9,1,1,I,1,S,8,L,20,0.622325,0.806705,0.502033
10,15,1,2,8,9,1,C,1,S,1,S,11,0.290082,0.880505,0.255419
10,16,9,2,8,2,1,C,7,L,6,S,7,0.849151,0.168651,0.14321
10,17,2,8,1,8,1,C,6,S,7,L,7,0.164523,0.856313,0.140884
10,18,8,1,2,9,1,I,7,L,7,L,11,0.819196,0.489643,0.401114
10,19,8,9,8,1,0,I,1,S,7,L,11,0.827094,0.37158,0.307331
10,20,1,9,9,2,1,I,8,L,7,L,11,0.491743,0.822374,0.404397
10,21,9,2,1,2,1,I,7,L,1,S,10,0.837251,0.375499,0.314387
10,22,8,2,9,1,1,C,6,S,8,L,7,0.871142,0.154435,0.134535
10,23,9,1,8,2,1,C,8,L,6,S,7,0.883245,0.147218,0.13003
10,24,1,9,2,8,1,C,8,L,6,S,7,0.14879,0.883281,0.131424
10,25,1,8,1,8,1,C,7,L,7,L,7,0.135339,0.902937,0.122202
10,26,9,8,1,9,0,I,1,S,8,L,12,0.437615,0.81085,0.35484
10,27,2,8,2,1,1,I,6,S,1,S,10,0.404413,0.802935,0.324717
10,28,8,9,2,8,1,C,1,S,6,S,10,0.284441,0.865984,0.246322
10,29,9,8,8,2,1,C,1,S,6,S,9,0.816329,0.285121,0.232753
10,30,8,2,8,1,1,C,6,S,7,L,7,0.863787,0.158509,0.136918
10,31,8,9,9,8,1,I,1,S,1,S,19,0.517943,0.804222,0.416541
10,32,1,8,8,9,1,C,7,L,1,S,8,0.235514,0.83865,0.197514
10,33,8,9,1,2,1,C,1,S,1,S,11,0.339128,0.815833,0.276672
10,34,9,2,2,9,1,I,7,L,7,L,12,0.825978,0.513841,0.424422
10,35,1,9,8,9,1,C,8,L,1,S,8,0.229716,0.849085,0.195049
10,36,1,2,9,2,1,I,1,S,7,L,19,0.614798,0.803461,0.493966
10,37,8,9,1,9,1,C,1,S,8,L,9,0.286573,0.824775,0.236358
10,38,1,8,1,9,1,C,7,L,8,L,7,0.134743,0.904694,0.121902
10,39,9,8,1,8,0,I,1,S,7,L,12,0.438579,0.808869,0.354753
10,40,2,8,2,8,1,C,6,S,6,S,7,0.183237,0.826741,0.151489
10,41,9,8,8,9,1,I,1,S,1,S,17,0.814624,0.495428,0.403587
10,42,9,2,8,9,1,I,7,L,1,S,9,0.856963,0.275904,0.23644
10,43,2,1,2,8,1,I,1,S,6,S,18,0.817382,0.595956,0.487124
10,44,8,9,1,8,1,C,1,S,7,L,9,0.287379,0.822837,0.236466
10,45,1,2,8,1,1,I,1,S,7,L,20,0.61613,0.81079,0.499552
10,46,9,1,8,9,1,I,8,L,1,S,8,0.813221,0.264954,0.215466
10,47,8,1,9,1,1,C,7,L,8,L,7,0.907485,0.131563,0.119391
10,48,9,2,9,8,1,C,7,L,1,S,8,0.808206,0.256755,0.207511
10,49,8,9,2,9,1,C,1,S,7,L,10,0.283222,0.86855,0.245992
10,50,2,9,8,2,1,I,7,L,6,S,12,0.517962,0.817483,0.423425
10,51,8,9,9,2,0,I,1,S,7,L,11,0.81045,0.383943,0.311167
10,52,2,8,2,9,1,C,6,S,7,L,7,0.182421,0.828933,0.151215
10,53,9,1,2,1,1,C,8,L,1,S,7,0.801212,0.201736,0.161633
10,54,8,2,2,8,1,I,6,S,6,S,12,0.815919,0.518843,0.423334
10,55,1,9,9,8,1,I,8,L,1,S,8,0.260599,0.817699,0.213091
10,56,2,9,1,9,1,C,7,L,8,L,7,0.156583,0.871289,0.136429
10,57,2,8,1,2,1,C,6,S,1,S,8,0.210863,0.857302,0.180773
10,58,1,2,9,8,1,I,1,S,1,S,12,0.359527,0.84677,0.304437
10,59,1,8,9,1,1,I,7,L,8,L,12,0.526927,0.827595,0.436082
10,60,2,8,8,1,1,I,6,S,7,L,13,0.554212,0.813493,0.450847
10,61,2,9,9,8,1,I,7,L,1,S,9,0.275476,0.853592,0.235144
10,62,2,1,9,1,1,C,1,S,8,L,8,0.871546,0.201149,0.175311
10,63,1,2,2,1,1,I,1,S,1,S,16,0.546443,0.81614,0.445974
10,64,1,2,2,8,1,C,1,S,6,S,8,0.242524,0.811389,0.196781
10,65,9,2,9,1,1,C,7,L,8,L,7,0.881832,0.14831,0.130784
10,66,8,9,8,2,0,I,1,S,6,S,11,0.800168,0.390642,0.312579
10,67,2,9,1,8,1,C,7,L,7,L,7,0.157178,0.869531,0.136671
10,68,9,8,1,2,1,I,1,S,1,S,22,0.800131,0.600221,0.480255
10,69,8,2,2,1,1,C,6,S,1,S,8,0.879591,0.195028,0.171545
10,70,1,8,2,9,1,C,7,L,7,L,7,0.153237,0.875556,0.134168
10,71,8,9,2,1,1,I,1,S,1,S,26,0.602304,0.809064,0.487302
10,72,2,8,8,2,1,I,6,S,6,S,12,0.527386,0.803024,0.423504
10,73,8,1,1,9,1,I,7,L,8,L,12,0.830448,0.524832,0.435846
10,74,9,2,2,8,1,I,7,L,6,S,12,0.827311,0.511273,0.422981
10,75,8,1,9,2,1,C,7,L,7,L,7,0.884106,0.146563,0.129577
10,76,2,9,9,1,1,I,7,L,8,L,13,0.552341,0.82266,0.454389
10,77,2,8,9,2,1,I,6,S,7,L,13,0.538809,0.825303,0.444681
10,78,1,9,2,1,1,I,8,L,1,S,9,0.354297,0.8125,0.287866
10,79,2,1,2,9,1,I,1,S,7,L,18,0.816064,0.598301,0.488252
10,80,1,8,9,8,1,I,7,L,1,S,8,0.266397,0.807264,0.215052
10,81,9,8,9,1,1,C,1,S,8,L,9,0.851823,0.261779,0.22299
10,82,9,1,1,8,1,I,8,L,7,L,11,0.807422,0.512776,0.414027
10,83,8,2,8,9,1,I,6,S,1,S,9,0.845173,0.283145,0.239306
10,84,1,2,2,9,1,C,1,S,7,L,8,0.241539,0.813782,0.19656
10,85,9,8,8,1,1,C,1,S,7,L,9,0.843914,0.266513,0.224914
10,86,1,8,8,1,1,I,7,L,7,L,12,0.519289,0.832529,0.432323
10,87,2,1,8,9,1,I,1,S,1,S,11,0.816395,0.36448,0.29756
10,88,2,9,2,8,1,C,7,L,6,S,7,0.175891,0.839959,0.147742
10,89,2,9,2,1,1,I,7,L,1,S,10,0.395166,0.817873,0.323195
10,90,9,8,2,1,1,C,1,S,1,S,11,0.876547,0.290263,0.254429
10,91,8,9,8,9,1,C,1,S,1,S,14,0.339949,0.870547,0.295942
10,92,2,1,1,9,1,I,1,S,8,L,19,0.815421,0.612472,0.499422
10,93,1,2,8,2,1,I,1,S,6,S,19,0.606911,0.808908,0.490936
10,94,8,1,9,8,1,C,7,L,1,S,8,0.835242,0.238691,0.199364
10,95,2,8,1,9,1,C,6,S,8,L,7,0.163928,0.858071,0.140662
10,96,1,9,1,9,1,C,8,L,8,L,7,0.129481,0.914611,0.118425
10,97,8,1,1,8,1,I,7,L,7,L,12,0.831412,0.522851,0.434704
10,98,8,1,8,1,1,C,7,L,7,L,7,0.900129,0.135637,0.122091
10,99,1,8,9,2,1,I,7,L,7,L,11,0.498212,0.811842,0.40447
10,100,9,2,2,1,1,C,7,L,1,S,8,0.891045,0.188232,0.167724
10,101,9,2,8,1,1,C,7,L,7,L,7,0.874477,0.152384,0.133256
10,102,2,9,1,2,1,C,7,L,1,S,8,0.202612,0.871606,0.176597
10,103,2,1,2,1,1,C,1,S,1,S,9,0.84954,0.250981,0.213219
10,104,2,1,8,1,1,C,1,S,7,L,8,0.863794,0.205621,0.177614
10,105,8,1,8,2,1,C,7,L,6,S,7,0.874803,0.151904,0.132886
10,106,2,9,8,1,1,I,7,L,7,L,13,0.544895,0.827538,0.450921
10,107,2,8,8,9,1,C,6,S,1,S,9,0.240077,0.883925,0.21221
10,108,1,2,1,8,1,C,1,S,7,L,8,0.222139,0.842808,0.187221
10,109,8,1,2,1,1,C,7,L,1,S,8,0.918081,0.170168,0.156228
10,110,2,1,1,2,1,I,1,S,1,S,14,0.811697,0.51266,0.416124
10,111,1,8,2,8,1,C,7,L,6,S,7,0.154052,0.873365,0.134544
10,112,8,2,9,2,1,C,6,S,7,L,7,0.847764,0.169435,0.143641
10,113,9,1,9,1,1,C,8,L,8,L,7,0.915927,0.126878,0.116211
10,114,1,2,1,9,1,C,1,S,8,L,8,0.221427,0.84468,0.187035
10,115,8,2,1,8,1,I,6,S,7,L,13,0.822973,0.550134,0.452745
10,116,9,2,1,9,1,I,7,L,8,L,12,0.804652,0.543667,0.437463
10,117,2,9,9,2,1,I,7,L,7,L,12,0.528001,0.810798,0.428102
10,118,8,2,1,9,1,I,6,S,8,L,13,0.821987,0.552105,0.453823
10,119,9,1,2,9,1,I,8,L,7,L,11,0.828082,0.484013,0.400802
10,120,2,1,1,8,1,I,1,S,7,L,19,0.816417,0.610594,0.4985
10,121,9,8,2,9,1,I,1,S,7,L,26,0.811615,0.619242,0.502586
10,122,2,9,8,9,1,C,7,L,1,S,8,0.259158,0.803285,0.208178
10,123,9,1,9,2,1,C,8,L,7,L,7,0.892549,0.141878,0.126633
10,124,9,1,8,1,1,C,8,L,7,L,7,0.908571,0.130952,0.118979
10,125,8,1,1,2,1,I,7,L,1,S,9,0.811975,0.347933,0.282513
10,126,2,8,9,1,1,I,6,S,8,L,13,0.561658,0.808615,0.454165
10,127,8,1,8,9,1,I,7,L,1,S,8,0.804359,0.270077,0.217239
10,128,9,2,1,8,1,I,7,L,7,L,12,0.805615,0.541687,0.436391
10,129,9,1,1,2,1,I,8,L,1,S,9,0.820996,0.342525,0.281212
10,130,9,1,1,9,1,I,8,L,8,L,11,0.806495,0.514759,0.41515
10,131,1,9,8,2,1,I,8,L,6,S,11,0.48146,0.829073,0.399166
10,132,1,8,2,1,1,I,7,L,1,S,9,0.360456,0.801853,0.289033
10,133,2,9,2,9,1,C,7,L,7,L,7,0.175076,0.842151,0.147441
10,134,2,1,8,2,1,C,1,S,6,S,8,0.836823,0.223343,0.186898
10,135,2,8,9,8,1,I,6,S,1,S,9,0.28435,0.838767,0.238503
10,136,8,2,2,9,1,I,6,S,7,L,12,0.814586,0.521412,0.424735
10,137,1,9,1,2,1,C,8,L,1,S,8,0.17317,0.917405,0.158867
10,138,1,9,1,8,1,C,8,L,7,L,7,0.130077,0.912854,0.118741
10,139,2,1,9,8,1,C,1,S,1,S,10,0.820937,0.312032,0.256159
10,140,8,2,9,8,1,C,6,S,1,S,9,0.889446,0.237988,0.211677
10,141,9,8,9,8,1,C,1,S,1,S,13,0.845197,0.3486,0.294636
10,142,9,1,2,8,1,I,8,L,6,S,11,0.829371,0.481432,0.399286
10,143,9,8,2,8,1,I,1,S,6,S,26,0.812789,0.6171,0.501572
10,144,9,1,9,8,1,C,8,L,1,S,8,0.844104,0.233568,0.197155
11,1,2,9,8,9,1,C,7,L,1,S,8,0.222437,0.845402,0.188048
11,2,2,8,1,8,1,C,6,S,7,L,7,0.161239,0.857987,0.138341
11,3,9,8,2,9,0,I,1,S,7,L,11,0.377853,0.81129,0.306549
11,4,1,8,2,8,1,C,7,L,6,S,7,0.152483,0.870874,0.132793
11,5,1,9,9,2,1,I,8,L,7,L,11,0.486779,0.822196,0.400227
11,6,2,1,1,9,1,I,1,S,8,L,21,0.808099,0.62364,0.503963
11,7,1,9,1,8,1,C,8,L,7,L,7,0.136943,0.899767,0.123216
11,8,8,9,1,2,1,C,1,S,1,S,11,0.327626,0.829933,0.271907
11,9,8,1,1,9,1,I,7,L,8,L,12,0.820209,0.533029,0.437196
11,10,8,1,2,1,1,C,7,L,1,S,8,0.893858,0.185112,0.165464
11,11,2,9,1,2,1,C,7,L,1,S,8,0.196887,0.877239,0.172717
11,12,1,8,2,1,1,I,7,L,1,S,9,0.343137,0.809756,0.277857
11,13,2,8,9,2,1,I,6,S,7,L,12,0.521256,0.811272,0.42288
11,14,9,1,8,1,1,C,8,L,7,L,7,0.896093,0.137935,0.123603
11,15,2,1,9,8,1,C,1,S,1,S,11,0.853971,0.308378,0.263346
11,16,8,2,2,1,1,C,6,S,1,S,8,0.847854,0.215222,0.182477
11,17,1,2,1,2,1,C,1,S,1,S,9,0.258069,0.840212,0.216833
11,18,2,1,9,1,1,C,1,S,8,L,8,0.830419,0.231069,0.191884
11,19,8,9,8,2,0,I,1,S,6,S,12,0.802545,0.421545,0.338309
11,20,1,8,8,2,1,I,7,L,6,S,11,0.474283,0.826186,0.391846
11,21,8,2,2,8,1,I,6,S,6,S,13,0.828558,0.530825,0.439819
11,22,8,2,1,8,1,I,6,S,7,L,13,0.812229,0.554881,0.45069
11,23,1,2,1,9,1,C,1,S,8,L,8,0.203396,0.870356,0.177027
11,24,8,1,8,1,1,C,7,L,7,L,7,0.887758,0.144221,0.128033
11,25,9,1,9,2,1,C,8,L,7,L,7,0.875216,0.151891,0.132938
11,26,1,8,8,9,1,C,7,L,1,S,8,0.20119,0.876674,0.176378
11,27,8,9,1,9,1,C,1,S,8,L,9,0.280856,0.83166,0.233577
11,28,8,9,8,1,0,I,1,S,7,L,11,0.816406,0.38355,0.313133
11,29,9,2,2,9,1,I,7,L,7,L,12,0.801657,0.533889,0.427996
11,30,2,1,2,1,1,C,1,S,1,S,10,0.883643,0.255029,0.225355
11,31,9,1,2,9,1,I,8,L,7,L,11,0.809635,0.499941,0.40477
11,32,1,9,8,1,1,I,8,L,7,L,11,0.508831,0.806091,0.410164
11,33,2,1,2,9,1,I,1,S,7,L,20,0.803972,0.617307,0.496298
11,34,8,9,1,8,1,C,1,S,7,L,9,0.28778,0.820345,0.236079
11,35,2,8,1,9,1,C,6,S,8,L,7,0.155237,0.868528,0.134828
11,36,8,1,1,8,1,I,7,L,7,L,12,0.827374,0.522146,0.43201
11,37,9,8,8,9,1,I,1,S,1,S,25,0.806565,0.593465,0.478668
11,38,8,2,9,1,1,C,6,S,8,L,7,0.854769,0.166157,0.142026
11,39,1,2,2,8,1,C,1,S,6,S,8,0.224908,0.83427,0.187634
11,40,8,9,9,8,1,I,1,S,1,S,19,0.531316,0.801911,0.426068
11,41,8,9,2,1,1,I,1,S,1,S,25,0.590564,0.815339,0.48151
11,42,1,9,2,9,1,C,8,L,7,L,7,0.14297,0.889346,0.12715
11,43,9,1,1,2,1,I,8,L,1,S,9,0.807142,0.352347,0.284394
11,44,9,1,8,2,1,C,8,L,6,S,7,0.861544,0.159858,0.137724
11,45,9,8,8,1,1,C,1,S,7,L,9,0.811577,0.289875,0.235256
11,46,8,9,8,9,1,C,1,S,1,S,12,0.328687,0.853414,0.280506
11,47,8,2,8,2,1,C,6,S,6,S,7,0.810153,0.193686,0.156915
11,48,8,2,1,9,1,I,6,S,8,L,13,0.805159,0.565473,0.455296
11,49,8,9,9,2,0,I,1,S,7,L,12,0.817689,0.411364,0.336368
11,50,2,9,8,2,1,I,7,L,6,S,12,0.502026,0.829172,0.416265
11,51,8,9,2,9,1,C,1,S,7,L,9,0.294796,0.809012,0.238494
11,52,1,2,8,1,1,I,1,S,7,L,18,0.613782,0.803892,0.493414
11,53,8,2,2,9,1,I,6,S,7,L,13,0.8194,0.544291,0.445992
11,54,2,8,1,2,1,C,6,S,1,S,8,0.199989,0.869985,0.173988
11,55,9,8,1,8,0,I,1,S,7,L,11,0.370547,0.822459,0.30476
11,56,8,1,9,8,1,C,7,L,1,S,8,0.829431,0.241235,0.200088
11,57,8,9,9,1,0,I,1,S,8,L,11,0.827108,0.376745,0.311609
11,58,2,1,8,9,1,I,1,S,1,S,15,0.817904,0.508337,0.415771
11,59,9,1,1,8,1,I,8,L,7,L,11,0.802329,0.51111,0.410079
11,60,2,1,8,2,1,C,1,S,6,S,9,0.891035,0.224586,0.200114
11,61,1,9,8,9,1,C,8,L,1,S,8,0.198817,0.882558,0.175468
11,62,8,2,1,2,1,I,6,S,1,S,10,0.803848,0.400392,0.321854
11,63,8,1,8,2,1,C,7,L,6,S,7,0.853209,0.166143,0.141755
11,64,2,8,2,9,1,C,6,S,7,L,7,0.167266,0.847566,0.141769
11,65,2,9,1,8,1,C,7,L,7,L,7,0.158634,0.864666,0.137165
11,66,1,2,1,8,1,C,1,S,7,L,8,0.209957,0.859254,0.180407
11,67,1,2,8,9,1,C,1,S,1,S,9,0.288769,0.800368,0.231122
11,68,1,8,1,8,1,C,7,L,7,L,7,0.138954,0.89424,0.124259
11,69,9,2,2,8,1,I,7,L,6,S,12,0.810945,0.520005,0.421695
11,70,2,8,2,1,1,I,6,S,1,S,10,0.376739,0.823842,0.310373
11,71,9,8,2,1,1,C,1,S,1,S,11,0.804018,0.3402,0.273526
11,72,1,9,8,2,1,I,8,L,6,S,11,0.471267,0.832388,0.392277
11,73,1,8,1,2,1,C,7,L,1,S,8,0.175641,0.90851,0.159571
11,74,1,9,1,2,1,C,8,L,1,S,8,0.173268,0.914394,0.158435
11,75,9,1,9,1,1,C,8,L,8,L,7,0.906161,0.132329,0.119912
11,76,9,2,9,8,1,C,7,L,1,S,9,0.890217,0.234979,0.209183
11,77,2,9,9,2,1,I,7,L,7,L,12,0.51717,0.81899,0.423557
11,78,2,9,8,1,1,I,7,L,7,L,12,0.538483,0.803133,0.432473
11,79,2,1,9,2,1,C,1,S,7,L,9,0.90657,0.214959,0.194875
11,80,2,9,2,8,1,C,7,L,6,S,7,0.172162,0.841299,0.14484
11,81,1,2,9,2,1,I,1,S,7,L,18,0.597488,0.816509,0.487854
11,82,8,2,9,2,1,C,6,S,7,L,7,0.823824,0.185719,0.153
11,83,9,8,1,2,1,I,1,S,1,S,26,0.804496,0.600867,0.483396
11,84,8,2,8,9,1,I,6,S,1,S,10,0.838804,0.35404,0.29697
11,85,1,8,1,9,1,C,7,L,8,L,7,0.132953,0.904781,0.120293
11,86,1,8,9,2,1,I,7,L,7,L,11,0.489794,0.815994,0.399669
11,87,9,8,8,2,1,C,1,S,6,S,10,0.848271,0.291421,0.247204
11,88,9,8,2,8,0,I,1,S,6,S,12,0.395895,0.822467,0.32561
11,89,1,9,1,9,1,C,8,L,8,L,7,0.130941,0.910307,0.119196
11,90,9,1,9,8,1,C,8,L,1,S,8,0.838121,0.234596,0.19662
11,91,8,1,1,2,1,I,7,L,1,S,10,0.850881,0.36795,0.313081
11,92,1,9,2,8,1,C,8,L,6,S,7,0.150471,0.8764,0.131873
11,93,1,8,2,9,1,C,7,L,7,L,7,0.144982,0.883819,0.128138
11,94,9,8,9,1,1,C,1,S,8,L,9,0.822426,0.283356,0.233039
11,95,2,8,9,1,1,I,6,S,8,L,13,0.553813,0.817543,0.452766
11,96,2,9,2,9,1,C,7,L,7,L,7,0.164661,0.854245,0.140661
11,97,1,9,2,1,1,I,8,L,1,S,9,0.340481,0.81584,0.277778
11,98,2,8,2,8,1,C,6,S,6,S,7,0.174768,0.834621,0.145865
11,99,8,1,8,9,1,I,7,L,1,S,9,0.829108,0.319304,0.264737
11,100,1,2,8,2,1,I,1,S,6,S,17,0.59375,0.806635,0.478939
11,101,9,2,9,1,1,C,7,L,8,L,7,0.866253,0.157569,0.136494
11,102,2,1,1,2,1,I,1,S,1,S,16,0.802231,0.554067,0.44449
11,103,8,1,2,8,1,I,7,L,6,S,11,0.810658,0.492428,0.399191
11,104,2,1,1,8,1,I,1,S,7,L,21,0.813796,0.615109,0.500574
11,105,1,2,2,9,1,C,1,S,7,L,8,0.216583,0.848185,0.183702
11,106,9,1,2,1,1,C,8,L,1,S,8,0.902548,0.178473,0.16108
11,107,1,2,9,8,1,I,1,S,1,S,11,0.362668,0.816455,0.296102
11,108,8,1,9,2,1,C,7,L,7,L,7,0.866881,0.158177,0.13712
11,109,9,2,1,8,1,I,7,L,7,L,13,0.823343,0.545692,0.449292
11,110,8,2,8,1,1,C,6,S,7,L,7,0.844701,0.171763,0.145089
11,111,9,2,1,9,1,I,7,L,8,L,13,0.816273,0.556285,0.45408
11,112,2,8,8,2,1,I,6,S,6,S,12,0.506112,0.821453,0.415747
11,113,1,2,9,1,1,I,1,S,8,L,19,0.612939,0.815096,0.499604
11,114,9,2,9,2,1,C,7,L,7,L,7,0.835308,0.177131,0.147959
11,115,1,9,9,8,1,I,8,L,1,S,8,0.268022,0.806808,0.216242
11,116,9,1,2,8,1,I,8,L,6,S,11,0.818947,0.48572,0.397779
11,117,2,8,9,8,1,I,6,S,1,S,9,0.282345,0.842149,0.237777
11,118,9,2,2,1,1,C,7,L,1,S,8,0.860212,0.205931,0.177144
11,119,9,2,1,2,1,I,7,L,1,S,10,0.816422,0.390584,0.318882
11,120,1,8,8,1,1,I,7,L,7,L,12,0.516381,0.832941,0.430115
11,121,9,2,8,9,1,I,7,L,1,S,10,0.851378,0.344232,0.293072
11,122,8,1,2,9,1,I,7,L,7,L,11,0.801346,0.506649,0.406002
11,123,1,8,9,8,1,I,7,L,1,S,8,0.270395,0.800924,0.216565
11,124,8,9,2,8,1,C,1,S,6,S,10,0.278055,0.871635,0.242362
11,125,2,1,8,1,1,C,1,S,7,L,8,0.819793,0.237225,0.194475
11,126,9,1,8,9,1,I,8,L,1,S,9,0.837842,0.312503,0.261829
11,127,2,9,9,1,1,I,7,L,8,L,13,0.549667,0.825171,0.453569
11,128,1,2,2,1,1,I,1,S,1,S,14,0.505094,0.814465,0.411381
11,129,9,1,1,9,1,I,8,L,8,L,12,0.828146,0.5265,0.436019
11,130,2,1,2,8,1,I,1,S,6,S,20,0.811306,0.606684,0.492207
11,131,9,8,9,8,1,C,1,S,1,S,14,0.856513,0.345018,0.295513
11,132,2,9,2,1,1,I,7,L,1,S,10,0.372965,0.831575,0.310148
11,133,1,8,9,1,1,I,7,L,8,L,12,0.526858,0.826147,0.435262
11,134,2,8,8,1,1,I,6,S,7,L,13,0.543605,0.824258,0.44807
11,135,2,8,8,9,1,C,6,S,1,S,8,0.225539,0.838148,0.189035
11,136,1,9,9,1,1,I,8,L,8,L,12,0.523743,0.832331,0.435927
11,137,9,2,8,1,1,C,7,L,7,L,7,0.856185,0.163175,0.139708
11,138,9,8,1,9,0,I,1,S,8,L,11,0.363355,0.83359,0.302889
11,139,8,1,9,1,1,C,7,L,8,L,7,0.897826,0.138615,0.124452
11,140,2,9,9,8,1,I,7,L,1,S,9,0.278855,0.849732,0.236952
11,141,8,2,9,8,1,C,6,S,1,S,9,0.87755,0.244659,0.214701
11,142,2,9,1,9,1,C,7,L,8,L,7,0.152632,0.875206,0.133585
11,143,9,8,9,2,1,C,1,S,7,L,10,0.863952,0.281397,0.243113
11,144,9,2,8,2,1,C,7,L,6,S,7,0.821636,0.185097,0.152083
12,1,2,9,9,2,1,I,7,L,7,L,12,0.527382,0.807857,0.426049
12,2,1,9,2,1,1,I,8,L,1,S,10,0.392954,0.839791,0.329999
12,3,8,1,1,2,1,I,7,L,1,S,9,0.811285,0.340838,0.276517
12,4,1,8,1,9,1,C,7,L,8,L,7,0.130754,0.908879,0.118839
12,5,2,9,8,1,1,I,7,L,7,L,13,0.551024,0.820187,0.451942
12,6,8,9,1,8,1,C,1,S,7,L,9,0.284122,0.823653,0.234018
12,7,9,8,8,2,1,C,1,S,6,S,10,0.857447,0.291248,0.24973
12,8,9,8,9,1,1,C,1,S,8,L,9,0.819774,0.289425,0.237263
12,9,8,1,2,1,1,C,7,L,1,S,7,0.804828,0.196716,0.158322
12,10,1,9,2,9,1,C,8,L,7,L,7,0.148254,0.881144,0.130633
12,11,1,9,9,2,1,I,8,L,7,L,11,0.492213,0.817999,0.40263
12,12,8,9,8,9,1,C,1,S,1,S,13,0.35817,0.831737,0.297903
12,13,2,9,2,1,1,I,7,L,1,S,11,0.432596,0.836393,0.361821
12,14,8,1,8,9,1,I,7,L,1,S,9,0.873632,0.266899,0.233172
12,15,1,2,8,1,1,I,1,S,7,L,20,0.624192,0.800822,0.499867
12,16,1,2,1,2,1,C,1,S,1,S,10,0.246305,0.893666,0.220114
12,17,2,1,8,1,1,C,1,S,7,L,8,0.842468,0.217979,0.18364
12,18,1,2,2,9,1,C,1,S,7,L,8,0.242248,0.808942,0.195965
12,19,9,1,9,8,1,C,8,L,1,S,8,0.842697,0.230405,0.194162
12,20,2,1,1,8,1,I,1,S,7,L,20,0.804699,0.618535,0.497735
12,21,8,1,8,2,1,C,7,L,6,S,7,0.872204,0.153818,0.134161
12,22,1,8,9,1,1,I,7,L,8,L,12,0.526265,0.829631,0.436606
12,23,8,1,9,8,1,C,7,L,1,S,8,0.837154,0.235328,0.197006
12,24,1,8,2,1,1,I,7,L,1,S,10,0.395407,0.837923,0.33132
12,25,9,2,1,8,1,I,7,L,7,L,12,0.804369,0.538411,0.433082
12,26,9,8,1,8,0,I,1,S,7,L,10,0.354016,0.80188,0.283879
12,27,1,9,8,2,1,I,8,L,6,S,11,0.486414,0.822332,0.399993
12,28,1,9,9,1,1,I,8,L,8,L,12,0.524089,0.83114,0.435592
12,29,2,9,8,9,1,C,7,L,1,S,8,0.254947,0.80541,0.205337
12,30,9,8,1,9,0,I,1,S,8,L,10,0.34999,0.807809,0.282725
12,31,2,9,2,8,1,C,7,L,6,S,7,0.179147,0.831744,0.149004
12,32,2,9,1,9,1,C,7,L,8,L,7,0.154036,0.869324,0.133907
12,33,9,1,8,2,1,C,8,L,6,S,7,0.877571,0.149074,0.130823
12,34,8,2,2,1,1,C,6,S,1,S,8,0.903418,0.178539,0.161296
12,35,8,9,8,1,0,I,1,S,7,L,11,0.824024,0.377678,0.311216
12,36,8,2,1,9,1,I,6,S,8,L,13,0.822731,0.550811,0.453169
12,37,9,1,2,9,1,I,8,L,7,L,11,0.81851,0.488167,0.399569
12,38,1,8,1,2,1,C,7,L,1,S,8,0.180432,0.902389,0.16282
12,39,8,2,1,8,1,I,6,S,7,L,13,0.826633,0.545351,0.450805
12,40,1,2,8,2,1,I,1,S,6,S,19,0.613378,0.800186,0.490816
12,41,1,2,1,8,1,C,1,S,7,L,8,0.224349,0.834628,0.187248
12,42,8,2,9,1,1,C,6,S,8,L,7,0.874855,0.151953,0.132937
12,43,9,8,2,8,0,I,1,S,6,S,11,0.38031,0.806467,0.306707
12,44,8,1,8,1,1,C,7,L,7,L,7,0.900125,0.135621,0.122076
12,45,8,1,2,8,1,I,7,L,6,S,11,0.819508,0.484377,0.39695
12,46,9,8,9,2,1,C,1,S,7,L,10,0.863389,0.286904,0.24771
12,47,1,2,1,9,1,C,1,S,8,L,8,0.220563,0.840513,0.185386
12,48,2,8,2,9,1,C,6,S,7,L,7,0.177695,0.836255,0.148598
12,49,1,2,2,1,1,I,1,S,1,S,17,0.567923,0.810665,0.460395
12,50,8,2,8,9,1,I,6,S,1,S,9,0.841979,0.288526,0.242933
12,51,9,2,2,9,1,I,7,L,7,L,12,0.822895,0.513989,0.422959
12,52,9,1,2,8,1,I,8,L,6,S,11,0.824587,0.479612,0.395482
12,53,8,1,1,9,1,I,7,L,8,L,12,0.823672,0.528354,0.43519
12,54,2,1,1,9,1,I,1,S,8,L,20,0.801606,0.622839,0.499271
12,55,2,8,2,8,1,C,6,S,6,S,7,0.182719,0.828489,0.151381
12,56,9,1,8,9,1,I,8,L,1,S,8,0.800428,0.273263,0.218728
12,57,2,8,1,8,1,C,6,S,7,L,7,0.161117,0.860461,0.138635
12,58,8,2,8,2,1,C,6,S,6,S,7,0.842904,0.172896,0.145735
12,59,9,1,2,1,1,C,8,L,1,S,7,0.810195,0.191972,0.155535
12,60,2,9,1,8,1,C,7,L,7,L,7,0.157545,0.863716,0.136074
12,61,2,8,2,1,1,I,6,S,1,S,11,0.43608,0.833369,0.363416
12,62,2,9,9,1,1,I,7,L,8,L,13,0.554805,0.817301,0.453443
12,63,2,1,2,8,1,I,1,S,6,S,19,0.80689,0.604982,0.488154
12,64,9,8,8,9,1,I,1,S,1,S,23,0.800719,0.580362,0.464707
12,65,8,9,8,2,0,I,1,S,6,S,12,0.81777,0.410717,0.335872
12,66,1,9,9,8,1,I,8,L,1,S,8,0.269086,0.806613,0.217048
12,67,2,1,2,9,1,I,1,S,7,L,19,0.802311,0.611026,0.490233
12,68,2,8,9,1,1,I,6,S,8,L,13,0.557895,0.814824,0.454586
12,69,2,8,8,9,1,C,6,S,1,S,8,0.258646,0.801995,0.207433
12,70,9,8,9,8,1,C,1,S,1,S,14,0.85195,0.353734,0.301364
12,71,9,1,9,1,1,C,8,L,8,L,7,0.909523,0.128132,0.116539
12,72,2,1,1,2,1,I,1,S,1,S,15,0.807341,0.524176,0.423189
12,73,1,2,9,2,1,I,1,S,7,L,20,0.607418,0.813224,0.493967
12,74,8,2,2,9,1,I,6,S,7,L,12,0.816375,0.520017,0.424528
12,75,8,9,1,9,1,C,1,S,8,L,9,0.28017,0.829623,0.232435
12,76,2,8,8,2,1,I,6,S,6,S,12,0.525089,0.809355,0.424984
12,77,1,8,8,9,1,C,7,L,1,S,8,0.229421,0.847381,0.194407
12,78,9,1,1,2,1,I,8,L,1,S,9,0.816792,0.335873,0.274339
12,79,8,1,9,1,1,C,7,L,8,L,7,0.904156,0.132875,0.12014
12,80,8,9,1,2,1,C,1,S,1,S,11,0.337615,0.812134,0.274189
12,81,9,1,9,2,1,C,8,L,7,L,7,0.883033,0.145314,0.128317
12,82,2,9,1,2,1,C,7,L,1,S,8,0.205958,0.860418,0.17721
12,83,1,2,2,8,1,C,1,S,6,S,8,0.247796,0.800528,0.198367
12,84,2,1,8,9,1,I,1,S,1,S,12,0.817004,0.392139,0.320379
12,85,8,1,2,9,1,I,7,L,7,L,11,0.81343,0.492932,0.400965
12,86,9,2,9,8,1,C,7,L,1,S,8,0.813416,0.249726,0.203131
12,87,1,8,2,8,1,C,7,L,6,S,7,0.155864,0.871299,0.135804
12,88,2,1,9,2,1,C,1,S,7,L,8,0.818742,0.233604,0.191261
12,89,9,1,8,1,1,C,8,L,7,L,7,0.905492,0.130878,0.118509
12,90,9,2,9,1,1,C,7,L,8,L,7,0.881781,0.146004,0.128744
12,91,8,9,2,8,1,C,1,S,6,S,10,0.282548,0.866386,0.244795
12,92,1,9,1,8,1,C,8,L,7,L,7,0.131676,0.905349,0.119213
12,93,2,8,1,9,1,C,6,S,8,L,7,0.157608,0.866069,0.136499
12,94,9,1,1,9,1,I,8,L,8,L,12,0.828455,0.523775,0.433924
12,95,2,1,2,1,1,C,1,S,1,S,9,0.842874,0.252111,0.212498
12,96,2,8,9,8,1,I,6,S,1,S,9,0.290394,0.837415,0.243181
12,97,1,9,8,9,1,C,8,L,1,S,8,0.226818,0.849471,0.192675
12,98,8,2,1,2,1,I,6,S,1,S,10,0.833544,0.369711,0.30817
12,99,9,2,8,9,1,I,7,L,1,S,9,0.849355,0.282114,0.239615
12,100,1,2,9,1,1,I,1,S,8,L,21,0.616974,0.813408,0.501852
12,101,8,9,9,8,1,I,1,S,1,S,20,0.551919,0.803298,0.443356
12,102,9,2,1,2,1,I,7,L,1,S,10,0.840755,0.363323,0.305466
12,103,9,2,9,2,1,C,7,L,7,L,7,0.855291,0.163187,0.139572
12,104,1,2,8,9,1,C,1,S,1,S,10,0.321895,0.800268,0.257603
12,105,9,1,1,8,1,I,8,L,7,L,12,0.832439,0.51813,0.431312
12,106,1,8,9,8,1,I,7,L,1,S,8,0.271689,0.804523,0.21858
12,107,1,9,1,2,1,C,8,L,1,S,8,0.177829,0.904479,0.160842
12,108,1,9,1,9,1,C,8,L,8,L,7,0.128167,0.910957,0.116755
12,109,2,9,2,9,1,C,7,L,7,L,7,0.174122,0.839511,0.146178
12,110,9,2,1,9,1,I,7,L,8,L,12,0.800385,0.544057,0.435455
12,111,8,1,1,8,1,I,7,L,7,L,12,0.827656,0.522709,0.432623
12,112,2,1,9,1,1,C,1,S,8,L,8,0.846667,0.215057,0.182081
12,113,1,8,9,2,1,I,7,L,7,L,11,0.494536,0.816303,0.403691
12,114,8,2,2,8,1,I,6,S,6,S,12,0.822386,0.511726,0.420837
12,115,1,9,2,8,1,C,8,L,6,S,7,0.153278,0.873378,0.13387
12,116,2,8,9,2,1,I,6,S,7,L,12,0.530681,0.805097,0.42725
12,117,9,2,2,1,1,C,7,L,1,S,8,0.910734,0.172259,0.156882
12,118,2,8,8,1,1,I,6,S,7,L,13,0.554114,0.81771,0.453104
12,119,1,2,9,8,1,I,1,S,1,S,12,0.391919,0.816215,0.31989
12,120,8,9,2,9,1,C,1,S,7,L,10,0.276504,0.875099,0.241968
12,121,8,2,9,8,1,C,6,S,1,S,8,0.806101,0.256006,0.206367
12,122,2,1,9,8,1,C,1,S,1,S,10,0.80106,0.32009,0.256411
12,123,9,8,2,9,0,I,1,S,7,L,11,0.374232,0.815021,0.305007
12,124,2,9,8,2,1,I,7,L,6,S,12,0.52179,0.812114,0.423753
12,125,8,1,9,2,1,C,7,L,7,L,7,0.877666,0.150057,0.1317
12,126,8,2,8,1,1,C,6,S,7,L,7,0.870824,0.1547,0.134716
12,127,2,9,9,8,1,I,7,L,1,S,9,0.286686,0.840809,0.241048
12,128,1,8,2,9,1,C,7,L,7,L,7,0.15084,0.879065,0.132598
12,129,9,8,8,1,1,C,1,S,7,L,9,0.815542,0.292441,0.238498
12,130,2,8,1,2,1,C,6,S,1,S,8,0.209657,0.857003,0.179677
12,131,9,8,2,1,1,C,1,S,1,S,11,0.842073,0.320811,0.270147
12,132,8,9,9,1,0,I,1,S,8,L,11,0.828093,0.374656,0.31025
12,133,8,2,9,2,1,C,6,S,7,L,7,0.848365,0.169136,0.143489
12,134,1,9,8,1,1,I,8,L,7,L,11,0.5157,0.801352,0.413257
12,135,1,8,1,8,1,C,7,L,7,L,7,0.134262,0.90327,0.121275
12,136,1,8,8,1,1,I,7,L,7,L,12,0.522333,0.832597,0.434893
12,137,9,8,1,2,1,I,1,S,1,S,27,0.811408,0.595709,0.483363
12,138,1,8,8,2,1,I,7,L,6,S,11,0.488737,0.820635,0.401075
12,139,2,1,8,2,1,C,1,S,6,S,8,0.812902,0.237685,0.193215
12,140,9,2,8,2,1,C,7,L,6,S,7,0.84983,0.166947,0.141877
12,141,9,2,2,8,1,I,7,L,6,S,12,0.828906,0.505699,0.419177
12,142,8,9,9,2,0,I,1,S,7,L,11,0.800537,0.394325,0.315672
12,143,8,9,2,1,1,I,1,S,1,S,26,0.603477,0.810648,0.489208
12,144,9,2,8,1,1,C,7,L,7,L,7,0.87775,0.148751,0.130566
13,1,2,8,1,2,1,C,6,S,1,S,8,0.200378,0.875208,0.175372
13,2,9,2,9,8,1,C,7,L,1,S,8,0.823558,0.244344,0.201231
13,3,1,9,1,2,1,C,8,L,1,S,7,0.19182,0.818363,0.156978
13,4,9,2,8,9,1,I,7,L,1,S,9,0.851688,0.28638,0.243906
13,5,9,2,8,1,1,C,7,L,7,L,7,0.887947,0.14397,0.127838
13,6,9,8,2,1,1,C,1,S,1,S,10,0.860171,0.278964,0.239957
13,7,1,8,1,9,1,C,7,L,8,L,7,0.129113,0.912448,0.117809
13,8,1,2,1,2,1,C,1,S,1,S,9,0.258341,0.836364,0.216067
13,9,8,9,8,1,0,I,1,S,7,L,10,0.800575,0.359916,0.28814
13,10,9,2,9,1,1,C,7,L,8,L,7,0.890591,0.141583,0.126092
13,11,2,9,1,2,1,C,7,L,1,S,8,0.184229,0.9004,0.16588
13,12,8,1,2,8,1,I,7,L,6,S,11,0.820412,0.487037,0.399571
13,13,8,9,1,2,1,C,1,S,1,S,11,0.329759,0.833392,0.274819
13,14,2,8,1,8,1,C,6,S,7,L,7,0.167183,0.855139,0.142965
13,15,1,2,9,8,1,I,1,S,1,S,12,0.36536,0.84211,0.307673
13,16,9,8,2,9,1,I,1,S,7,L,22,0.811855,0.618046,0.501764
13,17,8,2,1,9,1,I,6,S,8,L,12,0.802575,0.545102,0.437485
13,18,1,8,8,2,1,I,7,L,6,S,11,0.481646,0.826149,0.397911
13,19,8,9,8,2,0,I,1,S,6,S,11,0.804126,0.38713,0.311301
13,20,2,1,8,1,1,C,1,S,7,L,8,0.834022,0.228076,0.19022
13,21,9,1,8,9,1,I,8,L,1,S,9,0.875019,0.271784,0.237816
13,22,8,9,2,9,1,C,1,S,7,L,10,0.283715,0.869921,0.24681
13,23,2,9,2,9,1,C,7,L,7,L,7,0.164341,0.858472,0.141082
13,24,1,2,1,8,1,C,1,S,7,L,8,0.215408,0.84783,0.182629
13,25,2,9,9,8,1,I,7,L,1,S,9,0.27432,0.85908,0.235662
13,26,8,1,8,9,1,I,7,L,1,S,9,0.866387,0.276966,0.23996
13,27,2,8,2,1,1,I,6,S,1,S,10,0.401578,0.806474,0.323862
13,28,2,8,8,2,1,I,6,S,6,S,12,0.525041,0.807009,0.423713
13,29,2,1,8,9,1,I,1,S,1,S,13,0.824186,0.42904,0.353608
13,30,9,2,1,8,1,I,7,L,7,L,12,0.817531,0.532253,0.435133
13,31,1,9,9,8,1,I,8,L,1,S,8,0.256666,0.824757,0.211687
13,32,1,8,9,1,1,I,7,L,8,L,12,0.521734,0.832958,0.434583
13,33,8,2,9,1,1,C,6,S,8,L,7,0.881243,0.146854,0.129414
13,34,8,2,2,1,1,C,6,S,1,S,8,0.889514,0.188379,0.167565
13,35,2,8,9,1,1,I,6,S,8,L,13,0.560014,0.81078,0.454048
13,36,2,9,9,1,1,I,7,L,8,L,12,0.542113,0.805986,0.436936
13,37,9,2,8,2,1,C,7,L,6,S,7,0.856625,0.164316,0.140757
13,38,8,2,2,8,1,I,6,S,6,S,12,0.829193,0.508517,0.421659
13,39,9,1,9,2,1,C,8,L,7,L,7,0.882316,0.148208,0.130766
13,40,8,1,8,2,1,C,7,L,6,S,7,0.870326,0.156073,0.135835
13,41,9,1,8,1,1,C,8,L,7,L,7,0.909718,0.131242,0.119393
13,42,9,8,1,2,1,I,1,S,1,S,19,0.814364,0.582321,0.474222
13,43,1,2,8,9,1,C,1,S,1,S,10,0.295056,0.832356,0.245592
13,44,9,1,1,2,1,I,8,L,1,S,9,0.8055,0.36466,0.293734
13,45,1,9,9,2,1,I,8,L,7,L,10,0.465024,0.800637,0.372315
13,46,1,2,9,2,1,I,1,S,7,L,19,0.602264,0.81159,0.488792
13,47,2,1,8,2,1,C,1,S,6,S,8,0.800648,0.250232,0.200347
13,48,2,8,2,9,1,C,6,S,7,L,7,0.179008,0.835025,0.149476
13,49,1,9,9,1,1,I,8,L,8,L,11,0.505801,0.817216,0.413348
13,50,8,1,9,8,1,C,7,L,1,S,8,0.837997,0.235379,0.197247
13,51,8,1,1,2,1,I,7,L,1,S,10,0.847807,0.380514,0.322602
13,52,2,1,2,8,1,I,1,S,6,S,19,0.802185,0.613232,0.491926
13,53,8,9,9,2,0,I,1,S,7,L,11,0.808161,0.383497,0.309927
13,54,2,9,8,2,1,I,7,L,6,S,12,0.507539,0.83173,0.422136
13,55,9,2,9,2,1,C,7,L,7,L,7,0.860544,0.160936,0.138493
13,56,9,1,1,8,1,I,8,L,7,L,11,0.807162,0.512757,0.413878
13,57,8,1,1,9,1,I,7,L,8,L,12,0.826429,0.529036,0.437211
13,58,2,1,2,1,1,C,1,S,1,S,9,0.80702,0.281355,0.227059
13,59,2,8,2,8,1,C,6,S,6,S,7,0.185655,0.825878,0.153329
13,60,1,8,2,1,1,I,7,L,1,S,9,0.354004,0.80905,0.286407
13,61,2,9,2,8,1,C,7,L,6,S,7,0.170989,0.849326,0.145225
13,62,2,1,9,2,1,C,1,S,7,L,8,0.804848,0.24663,0.1985
13,63,1,2,9,1,1,I,1,S,8,L,20,0.615606,0.810111,0.498709
13,64,8,9,1,9,1,C,1,S,8,L,9,0.28789,0.825067,0.237529
13,65,8,1,2,9,1,I,7,L,7,L,11,0.812882,0.496692,0.403752
13,66,2,9,2,1,1,I,7,L,1,S,10,0.384016,0.832399,0.319654
13,67,8,2,8,2,1,C,6,S,6,S,7,0.847276,0.169587,0.143687
13,68,2,9,9,2,1,I,7,L,7,L,12,0.511353,0.82822,0.423512
13,69,9,2,1,9,1,I,7,L,8,L,12,0.81242,0.538644,0.437605
13,70,1,9,2,9,1,C,8,L,7,L,7,0.135724,0.902361,0.122472
13,71,8,9,9,8,1,I,1,S,1,S,21,0.553554,0.805727,0.446014
13,72,2,8,9,8,1,I,6,S,1,S,9,0.291406,0.833162,0.242788
13,73,1,9,2,1,1,I,8,L,1,S,9,0.342646,0.826708,0.283268
13,74,9,1,2,9,1,I,8,L,7,L,11,0.821384,0.491296,0.403543
13,75,2,9,8,9,1,C,7,L,1,S,8,0.240218,0.827665,0.19882
13,76,2,1,1,2,1,I,1,S,1,S,16,0.800144,0.563821,0.451138
13,77,9,8,1,9,1,I,1,S,8,L,23,0.812729,0.626032,0.508794
13,78,1,2,2,9,1,C,1,S,7,L,8,0.228381,0.826484,0.188753
13,79,9,1,2,1,1,C,8,L,1,S,8,0.922373,0.168687,0.155592
13,80,2,1,1,9,1,I,1,S,8,L,21,0.813846,0.619408,0.504103
13,81,1,9,1,9,1,C,8,L,8,L,7,0.119018,0.929158,0.110586
13,82,2,8,9,2,1,I,6,S,7,L,12,0.528854,0.803498,0.424934
13,83,9,2,1,2,1,I,7,L,1,S,10,0.833166,0.390152,0.325061
13,84,9,8,8,1,1,C,1,S,7,L,8,0.80027,0.257448,0.206028
13,85,9,8,9,1,1,C,1,S,8,L,8,0.802998,0.254975,0.204745
13,86,2,9,1,8,1,C,7,L,7,L,7,0.152516,0.878586,0.133999
13,87,9,2,2,8,1,I,7,L,6,S,11,0.80603,0.496725,0.400375
13,88,8,9,1,8,1,C,1,S,7,L,9,0.293181,0.818083,0.239846
13,89,1,2,1,9,1,C,1,S,8,L,8,0.210248,0.854781,0.179716
13,90,8,1,2,1,1,C,7,L,1,S,8,0.913895,0.173594,0.158647
13,91,1,9,8,1,1,I,8,L,7,L,11,0.503313,0.819596,0.412514
13,92,2,9,8,1,1,I,7,L,7,L,12,0.539776,0.80827,0.436285
13,93,8,9,8,9,1,C,1,S,1,S,13,0.355462,0.837736,0.297783
13,94,9,8,2,8,1,I,1,S,6,S,21,0.800488,0.624167,0.499639
13,95,9,8,8,2,1,C,1,S,6,S,9,0.868386,0.247172,0.214641
13,96,1,2,2,8,1,C,1,S,6,S,8,0.235563,0.816695,0.192383
13,97,2,8,8,9,1,C,6,S,1,S,8,0.256367,0.802473,0.205728
13,98,1,8,8,9,1,C,7,L,1,S,8,0.220346,0.856253,0.188672
13,99,1,9,8,9,1,C,8,L,1,S,8,0.209463,0.873694,0.183007
