ANN,trial,N1,N2,P1,P2,Succ.,Cong,Ndist,Ndist,Pdist,Pdist,rt,a1,a2,x_acc
1,1,9,1,9,2,1,C,8,L,7,L,7,0.894422,0.141109,0.126211
1,2,1,8,1,2,1,C,7,L,1,S,8,0.16057,0.932497,0.149731
1,3,8,2,1,9,1,I,6,S,8,L,15,0.85928,0.554769,0.476702
1,4,8,1,9,2,1,C,7,L,7,L,7,0.875893,0.151805,0.132965
1,5,2,8,9,2,1,I,6,S,7,L,14,0.528152,0.858465,0.4534
1,6,2,8,2,1,1,I,6,S,1,S,11,0.397737,0.859091,0.341692
1,7,9,2,2,1,1,C,7,L,1,S,8,0.890292,0.191226,0.170247
1,8,1,2,2,8,1,C,1,S,6,S,9,0.211103,0.914192,0.192988
1,9,9,2,9,2,1,C,7,L,7,L,7,0.859175,0.164236,0.141107
1,10,1,8,8,2,1,I,7,L,6,S,12,0.488501,0.856755,0.418525
1,11,9,2,9,8,1,C,7,L,1,S,9,0.914259,0.220643,0.201725
1,12,2,1,1,8,1,I,1,S,7,L,21,0.854627,0.5844,0.499444
1,13,8,9,8,9,1,C,1,S,1,S,14,0.313555,0.905911,0.284053
1,14,8,9,9,1,0,I,1,S,8,L,13,0.863276,0.399658,0.345015
1,15,8,2,2,9,1,I,6,S,7,L,14,0.860621,0.528065,0.454464
1,16,2,9,2,9,1,C,7,L,7,L,8,0.138129,0.967155,0.133592
1,17,2,9,2,8,1,C,7,L,6,S,8,0.141431,0.962249,0.136092
1,18,2,9,8,9,1,C,7,L,1,S,9,0.231966,0.894889,0.207584
1,19,2,9,9,8,1,I,7,L,1,S,10,0.273969,0.903638,0.247569
1,20,9,2,8,9,1,I,7,L,1,S,9,0.857376,0.281248,0.241136
1,21,2,8,9,1,1,I,6,S,8,L,15,0.548268,0.86186,0.47253
1,22,2,8,9,8,1,I,6,S,1,S,10,0.271149,0.906657,0.245839
1,23,9,8,8,9,1,I,1,S,1,S,22,0.859304,0.527678,0.453436
1,24,1,9,1,8,1,C,8,L,7,L,7,0.134023,0.90462,0.12124
1,25,2,9,1,9,1,C,7,L,8,L,7,0.160165,0.863109,0.138239
1,26,2,1,9,1,1,C,1,S,8,L,8,0.881556,0.19342,0.170511
1,27,1,2,8,9,1,C,1,S,1,S,11,0.28498,0.888038,0.253073
1,28,1,9,1,2,1,C,8,L,1,S,8,0.162504,0.930528,0.151215
1,29,1,8,2,8,1,C,7,L,6,S,7,0.153912,0.873036,0.134371
1,30,2,8,2,8,1,C,6,S,6,S,8,0.138653,0.965302,0.133842
1,31,8,9,9,8,1,I,1,S,1,S,23,0.523167,0.859127,0.449467
1,32,9,1,1,8,1,I,8,L,7,L,13,0.873983,0.514946,0.450054
1,33,1,8,8,1,1,I,7,L,7,L,13,0.517651,0.863776,0.447134
1,34,9,1,1,2,1,I,8,L,1,S,10,0.860541,0.376099,0.323648
1,35,1,2,8,1,1,I,1,S,7,L,24,0.583214,0.857982,0.500387
1,36,9,8,1,9,1,I,1,S,8,L,33,0.856645,0.585217,0.501324
1,37,1,9,9,8,1,I,8,L,1,S,9,0.256482,0.882951,0.226461
1,38,2,9,8,2,1,I,7,L,6,S,14,0.524733,0.861602,0.452111
1,39,1,9,2,1,1,I,8,L,1,S,10,0.359617,0.861464,0.309797
1,40,9,2,1,8,1,I,7,L,7,L,14,0.864177,0.538547,0.465401
1,41,2,8,1,2,1,C,6,S,1,S,8,0.190512,0.885996,0.168793
1,42,1,9,9,2,1,I,8,L,7,L,13,0.49912,0.87638,0.437419
1,43,8,2,1,8,1,I,6,S,7,L,15,0.861389,0.551925,0.475422
1,44,1,8,2,1,1,I,7,L,1,S,10,0.357725,0.863325,0.308833
1,45,8,9,8,1,0,I,1,S,7,L,13,0.859143,0.403623,0.34677
1,46,2,1,9,8,1,C,1,S,1,S,11,0.931262,0.252608,0.235244
1,47,2,9,2,1,1,I,7,L,1,S,11,0.400487,0.856212,0.342902
1,48,2,9,1,8,1,C,7,L,7,L,7,0.162238,0.859904,0.139509
1,49,1,2,1,2,1,C,1,S,1,S,10,0.223662,0.934526,0.209018
1,50,9,1,8,1,1,C,8,L,7,L,7,0.914368,0.129079,0.118026
1,51,1,2,9,8,1,I,1,S,1,S,13,0.371972,0.868137,0.322923
1,52,9,8,1,8,1,I,1,S,7,L,32,0.851284,0.589628,0.501941
1,53,9,1,8,9,1,I,8,L,1,S,9,0.894731,0.255487,0.228592
1,54,9,2,9,1,1,C,7,L,8,L,7,0.884009,0.147951,0.13079
1,55,9,8,9,1,1,C,1,S,8,L,10,0.91944,0.24306,0.223479
1,56,8,2,8,1,1,C,6,S,7,L,7,0.854913,0.166682,0.142499
1,57,1,8,9,2,1,I,7,L,7,L,12,0.495134,0.850766,0.421243
1,58,1,2,1,8,1,C,1,S,7,L,9,0.18634,0.950516,0.177119
1,59,2,1,8,1,1,C,1,S,7,L,8,0.876487,0.197853,0.173415
1,60,2,1,2,1,1,C,1,S,1,S,9,0.857072,0.246306,0.211102
1,61,1,8,8,9,1,C,7,L,1,S,9,0.197666,0.945496,0.186893
1,62,8,2,8,9,1,I,6,S,1,S,10,0.897043,0.28727,0.257694
1,63,8,1,8,9,1,I,7,L,1,S,9,0.875031,0.267689,0.234236
1,64,1,9,8,2,1,I,8,L,6,S,12,0.490239,0.855125,0.419216
1,65,1,8,9,8,1,I,7,L,1,S,9,0.254549,0.884891,0.225248
1,66,1,2,2,1,1,I,1,S,1,S,18,0.534079,0.854647,0.456449
1,67,9,8,2,9,1,I,1,S,7,L,31,0.85552,0.579864,0.496085
1,68,9,1,2,8,1,I,8,L,6,S,12,0.871762,0.47925,0.417792
1,69,1,8,2,9,1,C,7,L,7,L,7,0.150903,0.877584,0.13243
1,70,1,8,9,1,1,I,7,L,8,L,13,0.521784,0.859811,0.448636
1,71,8,2,2,8,1,I,6,S,6,S,14,0.86395,0.523679,0.452432
1,72,8,1,1,8,1,I,7,L,7,L,13,0.855611,0.527294,0.451158
1,73,2,1,2,9,1,I,1,S,7,L,20,0.858483,0.570971,0.490169
1,74,9,1,9,1,1,C,8,L,8,L,7,0.919257,0.124824,0.114745
1,75,9,2,1,9,1,I,7,L,8,L,14,0.861997,0.541502,0.466773
1,76,1,9,8,1,1,I,8,L,7,L,13,0.519294,0.862275,0.447775
1,77,9,2,2,9,1,I,7,L,7,L,13,0.861162,0.511555,0.440532
1,78,2,8,1,9,1,C,6,S,8,L,7,0.157537,0.865971,0.136423
1,79,9,1,8,2,1,C,8,L,6,S,7,0.887634,0.146837,0.130337
1,80,2,8,8,2,1,I,6,S,6,S,14,0.522365,0.863903,0.451273
1,81,8,2,9,2,1,C,6,S,7,L,8,0.971506,0.135565,0.131702
1,82,9,8,9,2,1,C,1,S,7,L,10,0.892746,0.261857,0.233772
1,83,2,9,8,1,1,I,7,L,7,L,15,0.546907,0.863308,0.47215
1,84,2,1,8,2,1,C,1,S,6,S,9,0.967317,0.173101,0.167444
1,85,9,1,2,1,1,C,8,L,1,S,8,0.927203,0.166413,0.154299
1,86,1,8,1,9,1,C,7,L,8,L,7,0.130068,0.909743,0.118328
1,87,9,1,1,9,1,I,8,L,8,L,13,0.871738,0.518012,0.451571
1,88,8,9,8,2,1,I,1,S,6,S,33,0.576736,0.857836,0.494745
1,89,8,9,2,1,1,I,1,S,1,S,29,0.560102,0.857022,0.48002
1,90,8,2,9,1,1,C,6,S,8,L,7,0.859801,0.162427,0.139655
1,91,2,1,8,9,1,I,1,S,1,S,12,0.870202,0.359992,0.313266
1,92,1,2,9,2,1,I,1,S,7,L,23,0.576821,0.857842,0.494821
1,93,9,8,2,1,1,C,1,S,1,S,12,0.93133,0.269096,0.250617
1,94,2,1,2,8,1,I,1,S,6,S,20,0.86103,0.567655,0.488768
1,95,2,1,1,2,1,I,1,S,1,S,16,0.850597,0.525723,0.447179
1,96,8,9,1,2,1,C,1,S,1,S,11,0.312949,0.85161,0.26651
1,97,9,8,2,8,1,I,1,S,6,S,31,0.857292,0.577399,0.495
1,98,1,9,9,1,1,I,8,L,8,L,13,0.523428,0.85831,0.449264
1,99,8,1,1,9,1,I,7,L,8,L,13,0.853366,0.53036,0.452592
1,100,8,1,8,2,1,C,7,L,6,S,7,0.869105,0.157533,0.136913
1,101,2,8,8,9,1,C,6,S,1,S,9,0.229131,0.897978,0.205755
1,102,8,9,1,8,1,C,1,S,7,L,10,0.258274,0.902475,0.233086
1,103,8,1,2,8,1,I,7,L,6,S,12,0.852885,0.491779,0.419431
1,104,8,1,1,2,1,I,7,L,1,S,11,0.881955,0.397629,0.350691
1,105,8,1,8,1,1,C,7,L,7,L,7,0.895839,0.139776,0.125216
1,106,8,1,2,1,1,C,7,L,1,S,8,0.907802,0.178033,0.161618
1,107,2,9,1,2,1,C,7,L,1,S,8,0.19329,0.882943,0.170664
1,108,8,9,9,2,1,I,1,S,7,L,33,0.578528,0.855849,0.495132
1,109,8,2,8,2,1,C,6,S,6,S,8,0.964238,0.141676,0.136609
1,110,2,8,1,8,1,C,6,S,7,L,7,0.15961,0.862766,0.137706
1,111,2,9,9,1,1,I,7,L,8,L,15,0.550486,0.859758,0.473284
1,112,8,1,2,9,1,I,7,L,7,L,13,0.876513,0.498907,0.437299
1,113,8,1,9,8,1,C,7,L,1,S,9,0.931914,0.207084,0.192984
1,114,2,8,8,1,1,I,6,S,7,L,15,0.54469,0.86541,0.47138
1,115,8,2,9,8,1,C,6,S,1,S,9,0.887614,0.237592,0.21089
1,116,9,2,2,8,1,I,7,L,6,S,13,0.864605,0.506963,0.438323
1,117,9,2,8,2,1,C,7,L,6,S,7,0.852387,0.169964,0.144875
1,118,2,1,9,2,1,C,1,S,7,L,8,0.855218,0.211065,0.180506
1,119,9,1,9,8,1,C,8,L,1,S,8,0.855903,0.223966,0.191693
1,120,9,8,1,2,1,I,1,S,1,S,28,0.859019,0.561543,0.482376
1,121,1,2,9,1,1,I,1,S,8,L,24,0.585153,0.855864,0.500811
1,122,9,8,8,1,1,C,1,S,7,L,10,0.914535,0.247496,0.226343
1,123,1,2,1,9,1,C,1,S,8,L,9,0.184035,0.953898,0.175551
1,124,2,9,9,2,1,I,7,L,7,L,14,0.530519,0.856165,0.454212
1,125,2,1,1,9,1,I,1,S,8,L,21,0.852922,0.58673,0.500435
1,126,9,8,9,8,1,C,1,S,1,S,14,0.918156,0.302432,0.27768
1,127,9,2,8,1,1,C,7,L,7,L,7,0.87912,0.152207,0.133808
1,128,9,8,8,2,1,C,1,S,6,S,10,0.885465,0.268158,0.237445
1,129,8,2,1,2,1,I,6,S,1,S,12,0.873216,0.435378,0.380179
1,130,1,9,2,8,1,C,8,L,6,S,7,0.155795,0.871117,0.135715
1,131,1,9,2,9,1,C,8,L,7,L,7,0.152785,0.875665,0.133788
1,132,1,9,1,9,1,C,8,L,8,L,7,0.13195,0.907824,0.119787
1,133,9,1,2,9,1,I,8,L,7,L,12,0.868232,0.484035,0.420255
1,134,1,2,2,9,1,C,1,S,7,L,9,0.20762,0.919244,0.190854
1,135,9,2,1,2,1,I,7,L,1,S,11,0.865139,0.411065,0.355629
1,136,1,8,1,8,1,C,7,L,7,L,7,0.132141,0.906538,0.119791
1,137,8,2,2,1,1,C,6,S,1,S,8,0.864368,0.207204,0.1791
1,138,8,9,1,9,1,C,1,S,8,L,10,0.255936,0.905824,0.231833
1,139,8,9,2,8,1,C,1,S,6,S,10,0.283535,0.866333,0.245636
1,140,1,9,8,9,1,C,8,L,1,S,9,0.199599,0.943556,0.188333
1,141,1,2,8,2,1,I,1,S,6,S,23,0.573905,0.860904,0.494077
1,142,2,8,2,9,1,C,6,S,7,L,8,0.135351,0.970207,0.131319
1,143,8,1,9,1,1,C,7,L,8,L,7,0.900728,0.13552,0.122067
1,144,8,9,2,9,1,C,1,S,7,L,10,0.279968,0.871381,0.243959
2,1,1,2,9,2,1,I,1,S,7,L,24,0.575694,0.856935,0.493332
2,2,2,9,2,8,1,C,7,L,6,S,8,0.124941,0.984452,0.122998
2,3,9,1,9,2,1,C,8,L,7,L,7,0.879178,0.149933,0.131817
2,4,2,1,8,2,1,C,1,S,6,S,9,0.91598,0.204329,0.187161
2,5,1,8,1,9,1,C,7,L,8,L,7,0.130811,0.907592,0.118723
2,6,9,1,1,9,1,I,8,L,8,L,13,0.86027,0.524378,0.451107
2,7,8,1,9,1,1,C,7,L,8,L,7,0.892461,0.140502,0.125393
2,8,2,1,9,2,1,C,1,S,7,L,9,0.927339,0.197238,0.182907
2,9,9,2,1,8,1,I,7,L,7,L,14,0.859172,0.538685,0.462823
2,10,2,9,1,2,1,C,7,L,1,S,8,0.17848,0.901946,0.160979
2,11,8,9,1,2,1,C,1,S,1,S,10,0.27221,0.863667,0.235099
2,12,9,2,9,1,1,C,7,L,8,L,7,0.879132,0.151689,0.133355
2,13,1,9,8,1,1,I,8,L,7,L,13,0.514784,0.867472,0.446561
2,14,9,8,8,2,1,C,1,S,6,S,11,0.916042,0.271312,0.248533
2,15,8,1,1,8,1,I,7,L,7,L,14,0.870049,0.528462,0.459788
2,16,2,9,2,9,1,C,7,L,7,L,7,0.162728,0.85687,0.139437
2,17,1,9,1,8,1,C,8,L,7,L,7,0.13128,0.906151,0.118959
2,18,2,1,9,8,1,C,1,S,1,S,11,0.864821,0.301883,0.261075
2,19,1,8,8,2,1,I,7,L,6,S,12,0.481111,0.859977,0.413745
2,20,1,2,8,2,1,I,1,S,6,S,23,0.57637,0.851701,0.490895
2,21,2,8,1,9,1,C,6,S,8,L,7,0.15195,0.87429,0.132849
2,22,2,1,1,9,1,I,1,S,8,L,24,0.853097,0.585626,0.499596
2,23,9,1,8,9,1,I,8,L,1,S,9,0.856868,0.293291,0.251311
2,24,1,2,8,9,1,C,1,S,1,S,11,0.2545,0.922383,0.234746
2,25,9,1,8,1,1,C,8,L,7,L,7,0.90348,0.134407,0.121434
2,26,1,9,1,9,1,C,8,L,8,L,7,0.126811,0.913584,0.115852
2,27,8,2,8,2,1,C,6,S,6,S,8,0.949021,0.149011,0.141414
2,28,9,8,9,2,1,C,1,S,7,L,10,0.856816,0.293522,0.251495
2,29,8,2,9,1,1,C,6,S,8,L,7,0.855937,0.165154,0.141361
2,30,9,2,9,2,1,C,7,L,7,L,8,0.984895,0.127444,0.125519
2,31,2,1,2,9,1,I,1,S,7,L,23,0.856099,0.575714,0.492868
2,32,1,2,1,8,1,C,1,S,7,L,9,0.195965,0.931662,0.182573
2,33,2,8,2,1,1,I,6,S,1,S,11,0.376948,0.877823,0.330894
2,34,1,9,8,9,1,C,8,L,1,S,8,0.206171,0.873449,0.18008
2,35,1,2,1,2,1,C,1,S,1,S,10,0.231959,0.916515,0.212594
2,36,2,1,2,8,1,I,1,S,6,S,22,0.850679,0.576434,0.49036
2,37,1,2,1,9,1,C,1,S,8,L,9,0.190902,0.939572,0.179366
2,38,8,1,8,2,1,C,7,L,6,S,7,0.850827,0.16604,0.141271
2,39,1,9,9,8,1,I,8,L,1,S,9,0.243048,0.899078,0.218519
2,40,2,8,8,1,1,I,6,S,7,L,14,0.541722,0.853074,0.462129
2,41,2,1,8,1,1,C,1,S,7,L,9,0.953931,0.17938,0.171116
2,42,8,1,8,1,1,C,7,L,7,L,7,0.885107,0.144651,0.128032
2,43,1,8,2,9,1,C,7,L,7,L,7,0.146721,0.882554,0.129489
2,44,9,8,2,1,1,C,1,S,1,S,12,0.86317,0.322592,0.278452
2,45,9,1,9,8,1,C,8,L,1,S,9,0.931598,0.211181,0.196736
2,46,8,9,2,8,1,C,1,S,6,S,9,0.250289,0.858186,0.214794
2,47,8,9,2,9,1,C,1,S,7,L,9,0.243301,0.868912,0.211407
2,48,2,8,9,2,1,I,6,S,7,L,14,0.518433,0.870253,0.451168
2,49,9,1,8,2,1,C,8,L,6,S,7,0.8692,0.155795,0.135417
2,50,8,1,9,2,1,C,7,L,7,L,7,0.860805,0.160177,0.137881
2,51,2,9,9,2,1,I,7,L,7,L,13,0.512908,0.854136,0.438093
2,52,1,8,2,1,1,I,7,L,1,S,10,0.345672,0.86982,0.300672
2,53,8,9,9,2,1,I,1,S,7,L,27,0.575902,0.858851,0.494614
2,54,9,1,1,8,1,I,8,L,7,L,13,0.865335,0.517065,0.447435
2,55,1,9,2,9,1,C,8,L,7,L,7,0.14272,0.888546,0.126813
2,56,9,2,8,9,1,I,7,L,1,S,10,0.882152,0.316274,0.279001
2,57,9,8,1,9,0,I,1,S,8,L,12,0.361377,0.872593,0.315335
2,58,9,8,2,8,0,I,1,S,6,S,13,0.397573,0.854333,0.33966
2,59,2,1,1,8,1,I,1,S,7,L,24,0.856799,0.58018,0.497098
2,60,1,8,9,2,1,I,7,L,7,L,12,0.49217,0.852492,0.419571
2,61,8,2,8,9,1,I,6,S,1,S,10,0.856275,0.332821,0.284986
2,62,1,8,1,2,1,C,7,L,1,S,8,0.161081,0.929112,0.149662
2,63,9,1,2,9,1,I,8,L,7,L,12,0.850963,0.49775,0.423566
2,64,9,2,1,2,1,I,7,L,1,S,11,0.856758,0.414053,0.354743
2,65,2,9,9,8,1,I,7,L,1,S,9,0.265724,0.865065,0.229868
2,66,9,8,1,2,1,I,1,S,1,S,30,0.850179,0.568833,0.48361
2,67,2,1,1,2,1,I,1,S,1,S,19,0.859203,0.538261,0.462476
2,68,9,8,9,1,1,C,1,S,8,L,10,0.891253,0.270279,0.240887
2,69,8,9,9,1,1,I,1,S,8,L,28,0.588943,0.85304,0.502392
2,70,1,9,9,1,1,I,8,L,8,L,13,0.522203,0.862541,0.450422
2,71,1,9,8,2,1,I,8,L,6,S,12,0.476731,0.865878,0.412791
2,72,1,9,9,2,1,I,8,L,7,L,12,0.487789,0.858394,0.418715
2,73,8,9,8,2,1,I,1,S,6,S,26,0.576916,0.854374,0.492902
2,74,8,2,8,1,1,C,6,S,7,L,8,0.98588,0.125447,0.123675
2,75,9,2,8,1,1,C,7,L,7,L,7,0.871777,0.155839,0.135857
2,76,9,1,2,8,1,I,8,L,6,S,12,0.858148,0.48749,0.418339
2,77,1,8,9,1,1,I,7,L,8,L,13,0.526472,0.85686,0.451112
2,78,8,2,1,2,1,I,6,S,1,S,12,0.86575,0.437456,0.378727
2,79,1,9,1,2,1,C,8,L,1,S,8,0.156805,0.935372,0.146671
2,80,2,9,2,1,1,I,7,L,1,S,11,0.371014,0.885901,0.328682
2,81,9,8,8,1,1,C,1,S,7,L,10,0.883339,0.275242,0.243132
2,82,9,8,8,9,1,I,1,S,1,S,28,0.853498,0.559666,0.477674
2,83,2,9,1,9,1,C,7,L,8,L,7,0.146819,0.881908,0.129481
2,84,8,1,2,8,1,I,7,L,6,S,13,0.866455,0.502224,0.435154
2,85,8,2,1,8,1,I,6,S,7,L,15,0.856982,0.551447,0.47258
2,86,9,1,9,1,1,C,8,L,8,L,7,0.910834,0.130258,0.118644
2,87,9,2,2,9,1,I,7,L,7,L,14,0.871446,0.522209,0.455077
2,88,2,9,1,8,1,C,7,L,7,L,7,0.151288,0.874475,0.132298
2,89,8,9,8,9,1,C,1,S,1,S,11,0.299347,0.862684,0.258242
2,90,9,8,2,9,0,I,1,S,7,L,13,0.390526,0.864236,0.337507
2,91,8,1,1,9,1,I,7,L,8,L,14,0.865103,0.535544,0.463301
2,92,2,1,2,1,1,C,1,S,1,S,10,0.906083,0.237959,0.215611
2,93,2,9,8,1,1,I,7,L,7,L,14,0.536229,0.86022,0.461275
2,94,2,1,9,1,1,C,1,S,8,L,9,0.961854,0.174563,0.167904
2,95,2,8,9,8,1,I,6,S,1,S,9,0.271556,0.856752,0.232656
2,96,1,9,2,8,1,C,8,L,6,S,7,0.148712,0.878837,0.130694
2,97,8,9,8,1,1,I,1,S,7,L,28,0.583609,0.856444,0.499828
2,98,9,2,2,8,1,I,7,L,6,S,13,0.854813,0.512983,0.438504
2,99,8,2,2,1,1,C,6,S,1,S,9,0.963452,0.174407,0.168033
2,100,8,9,1,9,1,C,1,S,8,L,9,0.225321,0.895751,0.201832
2,101,8,1,2,9,1,I,7,L,7,L,13,0.859408,0.512127,0.440126
2,102,9,2,9,8,1,C,7,L,1,S,9,0.89785,0.23503,0.211022
2,103,8,2,2,9,1,I,6,S,7,L,15,0.868828,0.535647,0.465385
2,104,9,2,8,2,1,C,7,L,6,S,8,0.973991,0.134038,0.130551
2,105,8,1,2,1,1,C,7,L,1,S,8,0.886995,0.189563,0.168141
2,106,8,9,9,8,1,I,1,S,1,S,14,0.388621,0.853102,0.331533
2,107,1,2,8,1,1,I,1,S,7,L,25,0.584053,0.854725,0.499205
2,108,9,1,2,1,1,C,8,L,1,S,8,0.906355,0.178334,0.161634
2,109,8,2,9,8,1,C,6,S,1,S,9,0.872081,0.251008,0.218899
2,110,9,2,2,1,1,C,7,L,1,S,8,0.873044,0.20132,0.175761
2,111,2,8,1,8,1,C,6,S,7,L,7,0.156419,0.866857,0.135593
2,112,1,8,8,1,1,I,7,L,7,L,13,0.519053,0.861791,0.447315
2,113,8,2,9,2,1,C,6,S,7,L,8,0.959925,0.142417,0.13671
2,114,9,1,1,2,1,I,8,L,1,S,11,0.889327,0.390018,0.346854
2,115,9,8,9,8,1,C,1,S,1,S,15,0.872114,0.349223,0.304562
2,116,2,8,8,2,1,I,6,S,6,S,13,0.507894,0.854027,0.433755
2,117,1,2,2,8,1,C,1,S,6,S,9,0.215869,0.902006,0.194715
2,118,8,2,2,8,1,I,6,S,6,S,14,0.854993,0.528771,0.452095
2,119,9,8,1,8,0,I,1,S,7,L,12,0.366531,0.865058,0.31707
2,120,8,2,1,9,1,I,6,S,8,L,15,0.852171,0.558302,0.475768
2,121,2,9,8,9,1,C,7,L,1,S,9,0.190993,0.947174,0.180904
2,122,1,2,9,1,1,I,1,S,8,L,25,0.589587,0.851135,0.501818
2,123,2,8,2,9,1,C,6,S,7,L,8,0.123914,0.986746,0.122271
2,124,8,1,9,8,1,C,7,L,1,S,9,0.911851,0.223058,0.203396
2,125,1,8,2,8,1,C,7,L,6,S,7,0.152713,0.872846,0.133295
2,126,2,8,2,8,1,C,6,S,6,S,8,0.130513,0.976322,0.127423
2,127,1,2,2,1,1,I,1,S,1,S,19,0.528556,0.86198,0.455605
2,128,2,8,1,2,1,C,6,S,1,S,8,0.184052,0.893817,0.164509
2,129,1,8,8,9,1,C,7,L,1,S,8,0.210447,0.86719,0.182497
2,130,1,2,9,8,1,I,1,S,1,S,13,0.352805,0.875991,0.309054
2,131,2,8,8,9,1,C,6,S,1,S,9,0.196826,0.938862,0.184792
2,132,1,8,9,8,1,I,7,L,1,S,9,0.247475,0.892755,0.220934
2,133,2,1,8,9,1,I,1,S,1,S,15,0.861243,0.463259,0.398978
2,134,8,1,1,2,1,I,7,L,1,S,11,0.869853,0.402404,0.350033
2,135,8,1,8,9,1,I,7,L,1,S,10,0.895817,0.304363,0.272653
2,136,8,9,1,8,1,C,1,S,7,L,9,0.230385,0.887841,0.204545
2,137,1,8,1,8,1,C,7,L,7,L,7,0.13528,0.900159,0.121774
2,138,1,2,2,9,1,C,1,S,7,L,9,0.208881,0.912732,0.190652
2,139,2,8,9,1,1,I,6,S,8,L,15,0.546012,0.868707,0.474325
2,140,9,2,1,9,1,I,7,L,8,L,14,0.854225,0.545767,0.466208
2,141,2,9,8,2,1,I,7,L,6,S,13,0.502209,0.861509,0.432657
2,142,2,9,9,1,1,I,7,L,8,L,14,0.543429,0.855388,0.464843
2,143,8,9,2,1,1,I,1,S,1,S,22,0.544896,0.860423,0.468841
2,144,1,9,2,1,1,I,8,L,1,S,10,0.341193,0.876073,0.29891
3,1,9,8,9,1,1,C,1,S,8,L,10,0.888851,0.275156,0.244573
3,2,8,1,9,8,1,C,7,L,1,S,9,0.913639,0.221479,0.202352
3,3,9,1,8,1,1,C,8,L,7,L,7,0.901633,0.135764,0.122409
3,4,9,8,2,9,0,I,1,S,7,L,12,0.369456,0.853916,0.315484
3,5,1,8,9,1,1,I,7,L,8,L,13,0.53083,0.852891,0.45274
3,6,2,9,2,9,1,C,7,L,7,L,8,0.123969,0.986736,0.122325
3,7,1,8,8,1,1,I,7,L,7,L,13,0.523274,0.857852,0.448892
3,8,9,2,1,8,1,I,7,L,7,L,15,0.865956,0.549853,0.476149
3,9,2,1,1,8,1,I,1,S,7,L,23,0.856838,0.583677,0.500117
3,10,8,2,9,8,1,C,6,S,1,S,9,0.876756,0.246535,0.216151
3,11,9,8,8,9,1,I,1,S,1,S,28,0.860367,0.550081,0.473271
3,12,8,2,8,9,1,I,6,S,1,S,10,0.888817,0.291547,0.259132
3,13,8,9,1,2,1,C,1,S,1,S,10,0.265651,0.870487,0.231246
3,14,2,1,9,8,1,C,1,S,1,S,11,0.895556,0.280746,0.251424
3,15,9,1,8,2,1,C,8,L,6,S,7,0.885057,0.146138,0.129341
3,16,9,1,2,8,1,I,8,L,6,S,12,0.851549,0.491946,0.418916
3,17,1,9,9,2,1,I,8,L,7,L,12,0.50233,0.852661,0.428317
3,18,2,9,9,8,1,I,7,L,1,S,9,0.268825,0.863207,0.232052
3,19,8,1,8,1,1,C,7,L,7,L,7,0.88999,0.141117,0.125592
3,20,8,2,1,9,1,I,6,S,8,L,16,0.86788,0.556425,0.48291
3,21,9,8,2,1,1,C,1,S,1,S,12,0.874313,0.317232,0.27736
3,22,2,8,1,2,1,C,6,S,1,S,8,0.207514,0.859608,0.178381
3,23,8,2,9,1,1,C,6,S,8,L,7,0.863687,0.158862,0.137207
3,24,9,1,2,9,1,I,8,L,7,L,13,0.876462,0.497472,0.436015
3,25,1,9,1,2,1,C,8,L,1,S,8,0.1599,0.929632,0.148648
3,26,1,2,9,1,1,I,1,S,8,L,25,0.584964,0.854916,0.500095
3,27,2,9,8,1,1,I,7,L,7,L,14,0.541582,0.856684,0.463965
3,28,1,9,9,1,1,I,8,L,8,L,13,0.519424,0.868674,0.45121
3,29,1,2,2,9,1,C,1,S,7,L,9,0.195342,0.925445,0.180779
3,30,8,9,2,1,1,I,1,S,1,S,21,0.547711,0.857504,0.469665
3,31,2,8,1,9,1,C,6,S,8,L,7,0.159489,0.863615,0.137737
3,32,8,9,9,1,1,I,1,S,8,L,27,0.587967,0.855871,0.503224
3,33,8,2,1,8,1,I,6,S,7,L,15,0.851231,0.559039,0.475871
3,34,2,1,1,2,1,I,1,S,1,S,17,0.863409,0.514725,0.444418
3,35,1,8,8,2,1,I,7,L,6,S,13,0.506912,0.869587,0.440805
3,36,9,1,8,9,1,I,8,L,1,S,9,0.873245,0.269364,0.235221
3,37,2,1,9,2,1,C,1,S,7,L,8,0.856561,0.209722,0.17964
3,38,1,8,8,9,1,C,7,L,1,S,9,0.195301,0.945957,0.184746
3,39,8,9,2,8,1,C,1,S,6,S,9,0.232761,0.880759,0.205006
3,40,9,2,9,1,1,C,7,L,8,L,7,0.87781,0.152017,0.133442
3,41,2,1,9,1,1,C,1,S,8,L,8,0.872643,0.19938,0.173988
3,42,1,8,2,8,1,C,7,L,6,S,7,0.151464,0.872676,0.132179
3,43,9,1,2,1,1,C,8,L,1,S,8,0.916849,0.169785,0.155667
3,44,8,9,1,9,1,C,1,S,8,L,9,0.203663,0.924589,0.188304
3,45,9,1,9,8,1,C,8,L,1,S,9,0.926364,0.214902,0.199077
3,46,1,2,8,2,1,I,1,S,6,S,24,0.574692,0.858224,0.493214
3,47,1,9,8,1,1,I,8,L,7,L,13,0.511867,0.873636,0.447186
3,48,1,8,9,2,1,I,7,L,7,L,13,0.515907,0.863558,0.445516
3,49,8,1,2,9,1,I,7,L,7,L,13,0.864021,0.504735,0.436102
3,50,2,9,2,1,1,I,7,L,1,S,11,0.397668,0.86662,0.344627
3,51,2,8,2,9,1,C,6,S,7,L,8,0.140685,0.961751,0.135304
3,52,1,9,1,9,1,C,8,L,8,L,7,0.115412,0.92976,0.107306
3,53,9,1,1,8,1,I,8,L,7,L,13,0.851259,0.532429,0.453235
3,54,9,8,2,8,0,I,1,S,6,S,12,0.371756,0.850652,0.316235
3,55,9,8,1,9,0,I,1,S,8,L,11,0.339813,0.863093,0.29329
3,56,8,9,8,2,1,I,1,S,6,S,26,0.578606,0.858821,0.496918
3,57,2,9,8,2,1,I,7,L,6,S,14,0.525832,0.868091,0.45647
3,58,1,2,1,8,1,C,1,S,7,L,8,0.210429,0.850875,0.179049
3,59,1,8,1,2,1,C,7,L,1,S,8,0.171116,0.912495,0.156143
3,60,8,2,2,1,1,C,6,S,1,S,8,0.868436,0.199716,0.17344
3,61,8,1,9,1,1,C,7,L,8,L,7,0.8975,0.13694,0.122904
3,62,1,8,2,9,1,C,7,L,7,L,7,0.149555,0.875741,0.130972
3,63,2,9,1,9,1,C,7,L,8,L,7,0.144234,0.886846,0.127914
3,64,1,9,2,1,1,I,8,L,1,S,10,0.357024,0.869285,0.310355
3,65,9,1,9,2,1,C,8,L,7,L,7,0.893839,0.141153,0.126168
3,66,9,1,1,2,1,I,8,L,1,S,10,0.855665,0.364659,0.312026
3,67,1,2,9,2,1,I,1,S,7,L,24,0.581302,0.853864,0.496353
3,68,1,8,2,1,1,I,7,L,1,S,10,0.368853,0.852115,0.314305
3,69,8,9,1,8,1,C,1,S,7,L,9,0.205062,0.922403,0.18915
3,70,8,9,9,8,1,I,1,S,1,S,14,0.37019,0.883059,0.3269
3,71,1,8,9,8,1,I,7,L,1,S,9,0.24842,0.891495,0.221465
3,72,9,2,8,1,1,C,7,L,7,L,7,0.870301,0.156194,0.135936
3,73,2,8,8,9,1,C,6,S,1,S,9,0.233319,0.891977,0.208115
3,74,9,2,9,8,1,C,7,L,1,S,9,0.892668,0.237967,0.212425
3,75,2,8,9,2,1,I,6,S,7,L,15,0.548327,0.860873,0.47204
3,76,1,2,9,8,1,I,1,S,1,S,13,0.338185,0.895616,0.302884
3,77,9,8,9,8,1,C,1,S,1,S,15,0.854739,0.364427,0.31149
3,78,1,9,8,2,1,I,8,L,6,S,12,0.493069,0.858774,0.423435
3,79,9,8,1,2,1,I,1,S,1,S,31,0.857562,0.560656,0.480798
3,80,8,1,1,8,1,I,7,L,7,L,14,0.862299,0.538536,0.464379
3,81,9,2,1,9,1,I,7,L,8,L,15,0.864627,0.551757,0.477064
3,82,2,1,2,8,1,I,1,S,6,S,21,0.85612,0.570808,0.48868
3,83,9,2,8,9,1,I,7,L,1,S,10,0.904935,0.282496,0.255641
3,84,2,1,2,9,1,I,1,S,7,L,21,0.854458,0.573096,0.489687
3,85,9,2,2,8,1,I,7,L,6,S,14,0.871928,0.516502,0.450353
3,86,1,2,8,9,1,C,1,S,1,S,11,0.269306,0.899939,0.242359
3,87,8,1,8,9,1,I,7,L,1,S,9,0.860521,0.275941,0.237453
3,88,1,8,1,9,1,C,7,L,8,L,7,0.125876,0.913336,0.114967
3,89,2,8,8,2,1,I,6,S,6,S,15,0.539904,0.866617,0.46789
3,90,2,8,9,1,1,I,6,S,8,L,15,0.562191,0.850825,0.478327
3,91,2,9,9,2,1,I,7,L,7,L,14,0.534541,0.862191,0.460877
3,92,9,1,9,1,1,C,8,L,8,L,7,0.909142,0.131588,0.119632
3,93,8,9,9,2,1,I,1,S,7,L,26,0.585001,0.854656,0.499975
3,94,8,1,1,9,1,I,7,L,8,L,14,0.860934,0.540499,0.465334
3,95,8,9,8,1,1,I,1,S,7,L,26,0.589534,0.851199,0.50181
3,96,1,9,2,9,1,C,8,L,7,L,7,0.139092,0.892165,0.124093
3,97,2,8,2,1,1,I,6,S,1,S,12,0.422188,0.876548,0.370068
3,98,8,2,8,2,1,C,6,S,6,S,8,0.976321,0.130109,0.127028
3,99,8,9,2,9,1,C,1,S,7,L,9,0.230526,0.884168,0.203824
3,100,9,1,1,9,1,I,8,L,8,L,14,0.873151,0.533273,0.465627
3,101,2,1,8,1,1,C,1,S,7,L,8,0.864746,0.203955,0.176369
3,102,9,8,9,2,1,C,1,S,7,L,10,0.872632,0.286169,0.24972
3,103,9,8,8,1,1,C,1,S,7,L,10,0.880818,0.280136,0.246749
3,104,9,2,8,2,1,C,7,L,6,S,7,0.853725,0.166568,0.142203
3,105,1,2,8,1,1,I,1,S,7,L,24,0.586063,0.850192,0.498266
3,106,1,9,2,8,1,C,8,L,6,S,7,0.141001,0.8891,0.125364
3,107,9,8,8,2,1,C,1,S,6,S,10,0.863017,0.292226,0.252196
3,108,2,9,9,1,1,I,7,L,8,L,14,0.548932,0.851815,0.467588
3,109,2,8,9,8,1,I,6,S,1,S,10,0.268499,0.909579,0.244221
3,110,9,2,9,2,1,C,7,L,7,L,7,0.862507,0.161583,0.139366
3,111,2,1,1,9,1,I,1,S,8,L,23,0.855774,0.585242,0.500835
3,112,2,9,2,8,1,C,7,L,6,S,8,0.126077,0.983431,0.123987
3,113,1,2,1,2,1,C,1,S,1,S,10,0.226194,0.918394,0.207735
3,114,2,9,1,8,1,C,7,L,7,L,7,0.14548,0.884774,0.128717
3,115,8,2,2,9,1,I,6,S,7,L,14,0.85462,0.528867,0.45198
3,116,8,1,2,8,1,I,7,L,6,S,13,0.866277,0.501587,0.434513
3,117,8,2,1,2,1,I,6,S,1,S,12,0.883717,0.412014,0.364104
3,118,2,9,8,9,1,C,7,L,1,S,9,0.215706,0.917669,0.197947
3,119,2,8,2,8,1,C,6,S,6,S,8,0.142792,0.958446,0.136859
3,120,8,1,8,2,1,C,7,L,6,S,7,0.873415,0.151491,0.132314
3,121,1,8,1,8,1,C,7,L,7,L,7,0.127122,0.911264,0.115842
3,122,8,2,2,8,1,I,6,S,6,S,14,0.856813,0.525844,0.45055
3,123,9,2,1,2,1,I,7,L,1,S,11,0.864999,0.396054,0.342586
3,124,2,1,8,2,1,C,1,S,6,S,9,0.964384,0.172367,0.166228
3,125,2,1,8,9,1,I,1,S,1,S,13,0.880831,0.377398,0.332424
3,126,9,2,2,9,1,I,7,L,7,L,14,0.869736,0.519526,0.45185
3,127,8,1,9,2,1,C,7,L,7,L,7,0.882197,0.146505,0.129246
3,128,2,1,2,1,1,C,1,S,1,S,10,0.955627,0.20333,0.194307
3,129,2,8,8,1,1,I,6,S,7,L,15,0.555049,0.855583,0.47489
3,130,8,2,9,2,1,C,6,S,7,L,8,0.985679,0.124596,0.122812
3,131,9,2,2,1,1,C,7,L,1,S,8,0.883736,0.191875,0.169567
3,132,1,9,9,8,1,I,8,L,1,S,9,0.23677,0.908821,0.215181
3,133,2,8,1,8,1,C,6,S,7,L,7,0.160735,0.861543,0.13848
3,134,8,1,1,2,1,I,7,L,1,S,11,0.884938,0.379733,0.33604
3,135,9,8,1,8,0,I,1,S,7,L,11,0.341245,0.86096,0.293799
3,136,1,2,2,1,1,I,1,S,1,S,19,0.530875,0.861768,0.457491
3,137,8,1,2,1,1,C,7,L,1,S,8,0.904483,0.175845,0.159049
3,138,2,9,1,2,1,C,7,L,1,S,8,0.190799,0.884592,0.168779
3,139,1,2,1,9,1,C,1,S,8,L,8,0.209088,0.853035,0.178359
3,140,1,9,1,8,1,C,8,L,7,L,7,0.116658,0.927687,0.108223
3,141,1,2,2,8,1,C,1,S,6,S,9,0.197577,0.922036,0.182173
3,142,1,9,8,9,1,C,8,L,1,S,8,0.215722,0.863694,0.186318
3,143,8,9,8,9,1,C,1,S,1,S,12,0.266332,0.934319,0.248839
3,144,8,2,8,1,1,C,6,S,7,L,7,0.856178,0.163039,0.13959
4,1,8,1,9,8,1,C,7,L,1,S,8,0.866446,0.20686,0.179233
4,2,1,8,8,2,1,I,7,L,6,S,13,0.49858,0.8719,0.434712
4,3,8,2,1,9,1,I,6,S,8,L,16,0.864549,0.56115,0.485142
4,4,9,2,9,2,1,C,7,L,7,L,7,0.873558,0.155247,0.135617
4,5,1,8,9,8,1,I,7,L,1,S,10,0.31453,0.88927,0.279702
4,6,9,8,1,9,1,I,1,S,8,L,26,0.852027,0.592656,0.504959
4,7,9,1,8,1,1,C,8,L,7,L,7,0.915838,0.12579,0.115203
4,8,2,9,2,1,1,I,7,L,1,S,12,0.427181,0.880752,0.376241
4,9,8,9,9,2,0,I,1,S,7,L,13,0.8634,0.391728,0.338217
4,10,9,1,9,1,1,C,8,L,8,L,7,0.9312,0.116489,0.108475
4,11,2,9,8,2,1,I,7,L,6,S,14,0.519612,0.868415,0.451239
4,12,9,1,9,2,1,C,8,L,7,L,7,0.907821,0.131993,0.119826
4,13,1,2,8,1,1,I,1,S,7,L,22,0.58082,0.8571,0.497821
4,14,2,8,1,9,1,C,6,S,8,L,7,0.156527,0.867725,0.135823
4,15,1,2,1,9,1,C,1,S,8,L,8,0.193696,0.881682,0.170779
4,16,9,8,8,1,1,C,1,S,7,L,9,0.919012,0.208141,0.191284
4,17,2,8,8,1,1,I,6,S,7,L,15,0.550617,0.858197,0.472538
4,18,1,2,2,1,1,I,1,S,1,S,17,0.529952,0.855428,0.453336
4,19,2,8,2,9,1,C,6,S,7,L,8,0.133821,0.9722,0.130101
4,20,8,2,2,1,1,C,6,S,1,S,8,0.87524,0.197092,0.172502
4,21,8,9,8,2,0,I,1,S,6,S,14,0.850281,0.42451,0.360953
4,22,8,1,2,8,1,I,7,L,6,S,13,0.870506,0.499213,0.434568
4,23,9,2,9,1,1,C,7,L,8,L,7,0.896938,0.139743,0.125341
4,24,1,9,1,9,1,C,8,L,8,L,7,0.124897,0.916043,0.114411
4,25,8,2,9,1,1,C,6,S,8,L,7,0.865961,0.157472,0.136365
4,26,9,1,2,8,1,I,8,L,6,S,12,0.868205,0.480738,0.417379
4,27,9,1,1,8,1,I,8,L,7,L,13,0.869419,0.51821,0.450542
4,28,2,1,1,9,1,I,1,S,8,L,25,0.855684,0.587527,0.502737
4,29,9,2,1,9,1,I,7,L,8,L,14,0.856013,0.548332,0.469379
4,30,2,9,2,8,1,C,7,L,6,S,8,0.133883,0.97293,0.130259
4,31,2,9,8,1,1,I,7,L,7,L,15,0.54297,0.868956,0.471817
4,32,8,1,2,1,1,C,7,L,1,S,8,0.919265,0.166819,0.153351
4,33,9,8,1,8,1,I,1,S,7,L,26,0.855514,0.587644,0.502737
4,34,9,2,8,2,1,C,7,L,6,S,7,0.853329,0.167873,0.143251
4,35,1,9,9,8,1,I,8,L,1,S,10,0.308702,0.898452,0.277354
4,36,1,2,8,2,1,I,1,S,6,S,21,0.569086,0.860934,0.489946
4,37,9,2,8,1,1,C,7,L,7,L,7,0.881575,0.149044,0.131393
4,38,2,8,2,8,1,C,6,S,6,S,8,0.141311,0.960859,0.13578
4,39,1,9,2,1,1,I,8,L,1,S,11,0.392067,0.885259,0.347081
4,40,8,2,9,2,1,C,6,S,7,L,8,0.979434,0.129501,0.126838
4,41,1,2,9,2,1,I,1,S,7,L,21,0.584093,0.850076,0.496523
4,42,8,1,8,9,1,I,7,L,1,S,10,0.900342,0.297328,0.267697
4,43,1,9,1,8,1,C,8,L,7,L,7,0.129566,0.908649,0.11773
4,44,1,9,2,9,1,C,8,L,7,L,7,0.145301,0.884029,0.128451
4,45,2,9,9,1,1,I,7,L,8,L,15,0.557062,0.859038,0.478538
4,46,2,1,2,1,1,C,1,S,1,S,10,0.933792,0.220675,0.206064
4,47,9,2,1,2,1,I,7,L,1,S,11,0.869354,0.403533,0.350813
4,48,2,1,9,2,1,C,1,S,7,L,9,0.939322,0.191249,0.179644
4,49,8,2,8,9,1,I,6,S,1,S,10,0.85558,0.329576,0.281978
4,50,8,2,8,2,1,C,6,S,6,S,8,0.957806,0.143346,0.137297
4,51,8,9,1,9,1,C,1,S,8,L,10,0.25453,0.904911,0.230327
4,52,9,1,1,9,1,I,8,L,8,L,13,0.864319,0.525322,0.454046
4,53,1,9,2,8,1,C,8,L,6,S,7,0.152127,0.873483,0.132881
4,54,1,9,8,9,1,C,8,L,1,S,8,0.208338,0.866744,0.180575
4,55,2,1,9,8,1,C,1,S,1,S,10,0.859461,0.274846,0.23622
4,56,1,8,2,8,1,C,7,L,6,S,7,0.157055,0.864907,0.135838
4,57,2,9,9,8,1,I,7,L,1,S,10,0.337128,0.858883,0.289554
4,58,1,8,1,8,1,C,7,L,7,L,7,0.134493,0.900072,0.121054
4,59,8,9,9,1,0,I,1,S,8,L,12,0.870876,0.361897,0.315167
4,60,9,1,8,9,1,I,8,L,1,S,9,0.866523,0.284219,0.246282
4,61,1,2,1,2,1,C,1,S,1,S,9,0.24333,0.860345,0.209348
4,62,1,2,2,9,1,C,1,S,7,L,9,0.172597,0.965649,0.166669
4,63,8,1,1,2,1,I,7,L,1,S,11,0.878925,0.393548,0.345899
4,64,9,2,2,1,1,C,7,L,1,S,8,0.908593,0.177334,0.161124
4,65,8,1,8,1,1,C,7,L,7,L,7,0.891876,0.138871,0.123855
4,66,8,1,1,9,1,I,7,L,8,L,14,0.863438,0.539901,0.466171
4,67,9,1,8,2,1,C,8,L,6,S,7,0.887592,0.144619,0.128363
4,68,9,8,9,8,1,C,1,S,1,S,11,0.921789,0.256285,0.236241
4,69,2,1,1,8,1,I,1,S,7,L,24,0.850362,0.589748,0.501499
4,70,8,2,9,8,1,C,6,S,1,S,9,0.931527,0.199366,0.185714
4,71,8,9,8,1,0,I,1,S,7,L,12,0.855397,0.372526,0.318658
4,72,2,1,9,1,1,C,1,S,8,L,8,0.851924,0.214263,0.182536
4,73,9,8,8,9,1,I,1,S,1,S,17,0.863604,0.492633,0.425439
4,74,2,9,8,9,1,C,7,L,1,S,9,0.1994,0.933308,0.186101
4,75,8,1,2,9,1,I,7,L,7,L,13,0.862657,0.50986,0.439834
4,76,2,9,9,2,1,I,7,L,7,L,14,0.539208,0.854207,0.460595
4,77,2,8,1,2,1,C,6,S,1,S,8,0.198332,0.8747,0.173481
4,78,9,1,1,2,1,I,8,L,1,S,10,0.863303,0.368911,0.318482
4,79,8,9,8,9,1,C,1,S,1,S,13,0.32027,0.876819,0.280819
4,80,2,8,9,8,1,I,6,S,1,S,11,0.348248,0.893023,0.310993
4,81,1,2,9,1,1,I,1,S,8,L,23,0.584954,0.859023,0.502489
4,82,2,9,1,8,1,C,7,L,7,L,7,0.154509,0.871509,0.134656
4,83,1,2,2,8,1,C,1,S,6,S,9,0.180499,0.953984,0.172193
4,84,9,1,9,8,1,C,8,L,1,S,8,0.891657,0.192504,0.171647
4,85,1,9,8,1,1,I,8,L,7,L,13,0.520406,0.859715,0.447401
4,86,9,2,2,9,1,I,7,L,7,L,13,0.854505,0.518848,0.443358
4,87,1,2,9,8,1,I,1,S,1,S,14,0.457313,0.853924,0.390511
4,88,8,9,1,8,1,C,1,S,7,L,10,0.259811,0.89719,0.2331
4,89,9,8,9,1,1,C,1,S,8,L,9,0.935285,0.197662,0.18487
4,90,9,8,1,2,1,I,1,S,1,S,21,0.860976,0.549448,0.473062
4,91,2,8,2,1,1,I,6,S,1,S,12,0.435419,0.86873,0.378261
4,92,9,8,8,2,1,C,1,S,6,S,9,0.888405,0.229451,0.203845
4,93,1,9,9,2,1,I,8,L,7,L,13,0.513192,0.865881,0.444364
4,94,2,9,1,2,1,C,7,L,1,S,8,0.190904,0.886771,0.169288
4,95,1,2,8,9,1,C,1,S,1,S,10,0.259085,0.882901,0.228747
4,96,9,1,2,9,1,I,8,L,7,L,12,0.86017,0.49181,0.42304
4,97,1,9,9,1,1,I,8,L,8,L,14,0.534335,0.872422,0.466165
4,98,1,8,8,1,1,I,7,L,7,L,13,0.52618,0.851114,0.44784
4,99,9,2,1,8,1,I,7,L,7,L,14,0.860978,0.541462,0.466187
4,100,8,2,1,2,1,I,6,S,1,S,12,0.869798,0.432524,0.376209
4,101,2,9,2,9,1,C,7,L,7,L,8,0.126393,0.98427,0.124405
4,102,1,8,1,9,1,C,7,L,8,L,7,0.129824,0.907467,0.117811
4,103,1,8,9,2,1,I,7,L,7,L,13,0.518967,0.85728,0.4449
4,104,1,8,9,1,1,I,7,L,8,L,14,0.539992,0.864073,0.466592
4,105,2,8,8,2,1,I,6,S,6,S,14,0.527505,0.85722,0.452188
4,106,9,2,9,8,1,C,7,L,1,S,8,0.855774,0.217374,0.186023
4,107,8,2,2,8,1,I,6,S,6,S,14,0.854352,0.52948,0.452362
4,108,1,8,2,1,1,I,7,L,1,S,11,0.397948,0.876214,0.348687
4,109,9,8,9,2,1,C,1,S,7,L,9,0.910594,0.214842,0.195634
4,110,8,9,9,8,1,I,1,S,1,S,29,0.551714,0.859015,0.47393
4,111,2,1,1,2,1,I,1,S,1,S,19,0.856104,0.542706,0.464612
4,112,1,9,8,2,1,I,8,L,6,S,12,0.49017,0.853603,0.41841
4,113,9,1,2,1,1,C,8,L,1,S,8,0.944476,0.152464,0.143998
4,114,2,1,8,9,1,I,1,S,1,S,15,0.855172,0.464735,0.397428
4,115,2,1,2,8,1,I,1,S,6,S,23,0.857732,0.57376,0.492133
4,116,8,2,2,9,1,I,6,S,7,L,15,0.867511,0.537037,0.465885
4,117,1,9,1,2,1,C,8,L,1,S,8,0.164019,0.926014,0.151884
4,118,8,9,2,8,1,C,1,S,6,S,10,0.28607,0.859236,0.245802
4,119,9,2,2,8,1,I,7,L,6,S,13,0.862354,0.508202,0.43825
4,120,8,2,8,1,1,C,6,S,7,L,7,0.850598,0.166772,0.141856
4,121,8,1,8,2,1,C,7,L,6,S,7,0.86363,0.1577,0.136195
4,122,1,8,1,2,1,C,7,L,1,S,8,0.169398,0.916984,0.155336
4,123,8,1,9,1,1,C,7,L,8,L,7,0.907239,0.12957,0.117551
4,124,2,8,1,8,1,C,6,S,7,L,7,0.161196,0.86033,0.138682
4,125,2,1,8,1,1,C,1,S,7,L,9,0.94774,0.184548,0.174903
4,126,9,2,8,9,1,I,7,L,1,S,10,0.890177,0.307675,0.273885
4,127,2,8,8,9,1,C,6,S,1,S,9,0.207316,0.920835,0.190904
4,128,8,1,1,8,1,I,7,L,7,L,14,0.868403,0.533031,0.462886
4,129,9,8,2,1,1,C,1,S,1,S,10,0.900463,0.247259,0.222648
4,130,2,1,2,9,1,I,1,S,7,L,23,0.852505,0.580827,0.495158
4,131,8,2,1,8,1,I,6,S,7,L,15,0.85106,0.559282,0.475983
4,132,2,1,8,2,1,C,1,S,6,S,9,0.917133,0.205858,0.188799
4,133,2,8,9,2,1,I,6,S,7,L,15,0.544184,0.863819,0.470077
4,134,9,8,2,8,1,I,1,S,6,S,24,0.852961,0.580632,0.495256
4,135,8,9,1,2,1,C,1,S,1,S,12,0.287061,0.906217,0.260139
4,136,8,1,9,2,1,C,7,L,7,L,7,0.883859,0.145074,0.128225
4,137,2,9,1,9,1,C,7,L,8,L,7,0.14984,0.878903,0.131695
4,138,1,2,1,8,1,C,1,S,7,L,8,0.198702,0.873975,0.17366
4,139,8,9,2,9,1,C,1,S,7,L,10,0.27797,0.870892,0.242081
4,140,8,9,2,1,1,I,1,S,1,S,31,0.559137,0.857728,0.479587
4,141,2,8,9,1,1,I,6,S,8,L,16,0.559981,0.866466,0.485204
4,142,9,8,2,9,1,I,1,S,7,L,25,0.857968,0.579223,0.496955
4,143,1,8,2,9,1,C,7,L,7,L,7,0.150229,0.875453,0.131518
4,144,1,8,8,9,1,C,7,L,1,S,8,0.213717,0.857713,0.183308
5,1,8,2,1,2,1,I,6,S,1,S,12,0.873293,0.43228,0.377507
5,2,8,9,9,1,1,I,1,S,8,L,33,0.587186,0.851854,0.500196
5,3,1,2,9,8,1,I,1,S,1,S,13,0.388352,0.862068,0.334786
5,4,9,8,8,1,1,C,1,S,7,L,10,0.929225,0.231193,0.21483
5,5,9,8,9,1,1,C,1,S,8,L,10,0.931202,0.230517,0.214658
5,6,8,1,1,8,1,I,7,L,7,L,13,0.854694,0.523587,0.447507
5,7,8,2,8,9,1,I,6,S,1,S,9,0.851649,0.273624,0.233032
5,8,9,2,2,1,1,C,7,L,1,S,8,0.859187,0.20915,0.179699
5,9,9,2,1,2,1,I,7,L,1,S,12,0.880026,0.427492,0.376204
5,10,9,1,2,9,1,I,8,L,7,L,13,0.870413,0.507214,0.441486
5,11,9,1,9,2,1,C,8,L,7,L,7,0.877924,0.150078,0.131757
5,12,9,8,9,8,1,C,1,S,1,S,13,0.880334,0.316079,0.278255
5,13,2,9,2,9,1,C,7,L,7,L,7,0.163067,0.856635,0.139689
5,14,1,9,8,9,1,C,8,L,1,S,9,0.215136,0.927845,0.199613
5,15,2,8,9,8,1,I,6,S,1,S,10,0.288754,0.887056,0.256141
5,16,9,8,8,2,1,C,1,S,6,S,10,0.896826,0.253514,0.227358
5,17,2,9,1,2,1,C,7,L,1,S,8,0.180542,0.898082,0.162141
5,18,2,9,2,1,1,I,7,L,1,S,11,0.36885,0.884662,0.326307
5,19,9,1,1,8,1,I,8,L,7,L,13,0.859491,0.520214,0.447119
5,20,2,1,8,9,1,I,1,S,1,S,12,0.863792,0.338987,0.292814
5,21,8,1,2,8,1,I,7,L,6,S,13,0.873036,0.498552,0.435253
5,22,1,9,8,2,1,I,8,L,6,S,12,0.489506,0.857672,0.419835
5,23,9,8,9,2,1,C,1,S,7,L,10,0.899298,0.252602,0.227164
5,24,2,8,1,8,1,C,6,S,7,L,7,0.164393,0.850172,0.139762
5,25,2,8,8,2,1,I,6,S,6,S,14,0.531312,0.850696,0.451985
5,26,8,2,8,2,1,C,6,S,6,S,8,0.969457,0.135558,0.131417
5,27,2,9,1,9,1,C,7,L,8,L,7,0.148055,0.879822,0.130262
5,28,2,8,9,2,1,I,6,S,7,L,15,0.531734,0.869863,0.462536
5,29,2,8,2,9,1,C,6,S,7,L,8,0.132186,0.972282,0.128522
5,30,2,9,8,2,1,I,7,L,6,S,14,0.516795,0.871595,0.450436
5,31,2,1,9,2,1,C,1,S,7,L,9,0.929097,0.196764,0.182813
5,32,1,2,2,9,1,C,1,S,7,L,9,0.19212,0.941535,0.180888
5,33,9,1,2,1,1,C,8,L,1,S,8,0.897634,0.183268,0.164507
5,34,8,2,9,2,1,C,6,S,7,L,8,0.971715,0.134916,0.1311
5,35,2,1,9,1,1,C,1,S,8,L,9,0.961169,0.175119,0.168319
5,36,1,8,9,2,1,I,7,L,7,L,13,0.505411,0.867245,0.438315
5,37,8,9,9,2,1,I,1,S,7,L,32,0.576066,0.857236,0.493824
5,38,9,1,8,9,1,I,8,L,1,S,9,0.897832,0.241943,0.217224
5,39,2,1,2,1,1,C,1,S,1,S,10,0.898706,0.2434,0.218745
5,40,9,1,8,2,1,C,8,L,6,S,7,0.875869,0.150546,0.131859
5,41,1,2,2,1,1,I,1,S,1,S,17,0.513767,0.860369,0.44203
5,42,1,2,9,1,1,I,1,S,8,L,24,0.584697,0.859294,0.502427
5,43,2,8,8,9,1,C,6,S,1,S,9,0.254163,0.865534,0.219987
5,44,8,2,2,9,1,I,6,S,7,L,14,0.852801,0.537317,0.458224
5,45,2,8,1,9,1,C,6,S,8,L,7,0.160188,0.859122,0.137621
5,46,1,9,9,2,1,I,8,L,7,L,12,0.492042,0.856591,0.421479
5,47,2,1,9,8,1,C,1,S,1,S,11,0.895748,0.274286,0.245691
5,48,1,8,9,1,1,I,7,L,8,L,14,0.533644,0.869258,0.463874
5,49,2,1,1,8,1,I,1,S,7,L,24,0.855994,0.580816,0.497175
5,50,8,9,8,9,1,C,1,S,1,S,14,0.34209,0.867045,0.296608
5,51,1,2,1,8,1,C,1,S,7,L,9,0.180351,0.956594,0.172523
5,52,2,9,9,2,1,I,7,L,7,L,14,0.519331,0.870424,0.452038
5,53,2,1,8,1,1,C,1,S,7,L,9,0.959246,0.175703,0.168543
5,54,9,8,2,1,1,C,1,S,1,S,12,0.922826,0.269133,0.248363
5,55,1,9,2,8,1,C,8,L,6,S,7,0.147271,0.881769,0.129859
5,56,1,8,1,9,1,C,7,L,8,L,7,0.136012,0.899898,0.122397
5,57,2,9,9,1,1,I,7,L,8,L,15,0.54453,0.870018,0.473751
5,58,8,1,8,9,1,I,7,L,1,S,9,0.892618,0.245334,0.21899
5,59,8,9,1,8,1,C,1,S,7,L,10,0.240255,0.917967,0.220546
5,60,8,2,9,1,1,C,6,S,8,L,7,0.864863,0.159017,0.137528
5,61,1,9,9,1,1,I,8,L,8,L,13,0.523713,0.862152,0.45152
5,62,8,9,8,2,1,I,1,S,6,S,31,0.580579,0.851047,0.4941
5,63,2,1,1,9,1,I,1,S,8,L,24,0.851287,0.58879,0.501229
5,64,8,1,2,9,1,I,7,L,7,L,13,0.865616,0.510588,0.441973
5,65,8,1,8,2,1,C,7,L,6,S,7,0.870975,0.153545,0.133734
5,66,8,1,9,2,1,C,7,L,7,L,7,0.87303,0.153077,0.133641
5,67,1,9,1,8,1,C,8,L,7,L,7,0.130944,0.907138,0.118785
5,68,2,9,9,8,1,I,7,L,1,S,10,0.273817,0.910281,0.249251
5,69,8,9,9,8,1,I,1,S,1,S,22,0.522664,0.859074,0.449007
5,70,1,9,2,1,1,I,8,L,1,S,10,0.337084,0.879946,0.296616
5,71,9,1,9,8,1,C,8,L,1,S,9,0.943454,0.197063,0.18592
5,72,9,2,8,2,1,C,7,L,6,S,8,0.976315,0.131136,0.12803
5,73,9,1,2,8,1,I,8,L,6,S,12,0.850757,0.492774,0.419231
5,74,2,9,2,8,1,C,7,L,6,S,8,0.124959,0.982628,0.122788
5,75,1,8,9,8,1,I,7,L,1,S,9,0.27144,0.865597,0.234957
5,76,1,8,8,9,1,C,7,L,1,S,9,0.225819,0.910476,0.205602
5,77,8,9,1,2,1,C,1,S,1,S,11,0.287841,0.877085,0.252461
5,78,1,2,8,1,1,I,1,S,7,L,23,0.590437,0.850468,0.502148
5,79,9,1,9,1,1,C,8,L,8,L,7,0.907602,0.131043,0.118935
5,80,2,1,2,9,1,I,1,S,7,L,23,0.853107,0.580662,0.495366
5,81,8,2,1,8,1,I,6,S,7,L,15,0.863226,0.546427,0.47169
5,82,8,2,1,9,1,I,6,S,8,L,15,0.857757,0.555527,0.476507
5,83,9,8,1,2,1,I,1,S,1,S,28,0.858973,0.556269,0.47782
5,84,1,8,2,8,1,C,7,L,6,S,7,0.156543,0.865578,0.1355
5,85,8,1,9,1,1,C,7,L,8,L,7,0.902709,0.134042,0.121001
5,86,2,9,8,1,1,I,7,L,7,L,14,0.545306,0.850627,0.463852
5,87,1,9,8,1,1,I,8,L,7,L,13,0.521665,0.863006,0.4502
5,88,1,2,1,9,1,C,1,S,8,L,8,0.216367,0.852609,0.184477
5,89,9,2,2,9,1,I,7,L,7,L,14,0.859026,0.532765,0.457659
5,90,9,8,2,9,1,I,1,S,7,L,32,0.855022,0.578757,0.49485
5,91,9,1,8,1,1,C,8,L,7,L,7,0.90589,0.131389,0.119024
5,92,8,9,8,1,1,I,1,S,7,L,33,0.585128,0.852846,0.499024
5,93,9,2,9,2,1,C,7,L,7,L,8,0.978573,0.130495,0.127699
5,94,8,9,2,8,1,C,1,S,6,S,10,0.259231,0.890594,0.230869
5,95,2,1,8,2,1,C,1,S,6,S,9,0.926706,0.197554,0.183075
5,96,2,8,8,1,1,I,6,S,7,L,15,0.556563,0.850808,0.473528
5,97,1,8,2,9,1,C,7,L,7,L,7,0.151024,0.876711,0.132404
5,98,8,1,1,9,1,I,7,L,8,L,14,0.872282,0.532105,0.464146
5,99,9,1,1,9,1,I,8,L,8,L,13,0.853926,0.529658,0.452288
5,100,8,1,8,1,1,C,7,L,7,L,7,0.900997,0.134388,0.121083
5,101,9,8,1,8,1,I,1,S,7,L,33,0.856078,0.57897,0.495643
5,102,1,8,8,1,1,I,7,L,7,L,14,0.531588,0.870148,0.46256
5,103,8,1,1,2,1,I,7,L,1,S,11,0.878806,0.396767,0.348681
5,104,1,2,9,2,1,I,1,S,7,L,22,0.580191,0.853524,0.495207
5,105,1,8,8,2,1,I,7,L,6,S,13,0.50287,0.868378,0.436681
5,106,8,1,9,8,1,C,7,L,1,S,9,0.938239,0.200455,0.188075
5,107,1,2,1,2,1,C,1,S,1,S,10,0.214601,0.94522,0.202846
5,108,8,1,2,1,1,C,7,L,1,S,8,0.892498,0.186511,0.16646
5,109,9,2,9,1,1,C,7,L,8,L,7,0.871239,0.155,0.135042
5,110,8,2,2,1,1,C,6,S,1,S,8,0.852329,0.213571,0.182033
5,111,2,8,2,1,1,I,6,S,1,S,11,0.383986,0.86174,0.330896
5,112,1,9,9,8,1,I,8,L,1,S,9,0.260758,0.882965,0.23024
5,113,1,2,8,2,1,I,1,S,6,S,22,0.577756,0.854742,0.493832
5,114,9,8,2,8,1,I,1,S,6,S,31,0.853231,0.576529,0.491913
5,115,8,2,8,1,1,C,6,S,7,L,7,0.863151,0.159363,0.137554
5,116,9,2,8,1,1,C,7,L,7,L,7,0.869527,0.155346,0.135077
5,117,9,8,8,9,1,I,1,S,1,S,17,0.865105,0.418356,0.361922
5,118,8,9,2,1,1,I,1,S,1,S,27,0.551647,0.859444,0.47411
5,119,2,1,2,8,1,I,1,S,6,S,23,0.859004,0.571119,0.490593
5,120,9,1,1,2,1,I,8,L,1,S,11,0.883893,0.393295,0.347631
5,121,2,9,1,8,1,C,7,L,7,L,7,0.152259,0.870872,0.132598
5,122,8,2,9,8,1,C,6,S,1,S,9,0.897271,0.228745,0.205246
5,123,1,9,2,9,1,C,8,L,7,L,7,0.141752,0.892901,0.12657
5,124,2,8,1,2,1,C,6,S,1,S,8,0.194043,0.875732,0.16993
5,125,9,2,2,8,1,I,7,L,6,S,14,0.866359,0.521028,0.451398
5,126,1,8,2,1,1,I,7,L,1,S,10,0.348065,0.862614,0.300246
5,127,9,2,1,8,1,I,7,L,7,L,15,0.869189,0.542032,0.471128
5,128,8,2,2,8,1,I,6,S,6,S,14,0.860133,0.525581,0.452069
5,129,8,9,2,9,1,C,1,S,7,L,10,0.252059,0.903166,0.227651
5,130,1,8,1,8,1,C,7,L,7,L,7,0.140216,0.890947,0.124925
5,131,2,9,8,9,1,C,7,L,1,S,9,0.239747,0.888641,0.213049
5,132,1,8,1,2,1,C,7,L,1,S,8,0.167347,0.91942,0.153862
5,133,8,9,1,9,1,C,1,S,8,L,10,0.234911,0.927731,0.217934
5,134,1,9,1,9,1,C,8,L,8,L,7,0.12674,0.916088,0.116105
5,135,1,2,2,8,1,C,1,S,6,S,9,0.198938,0.929094,0.184832
5,136,2,8,9,1,1,I,6,S,8,L,16,0.554357,0.867776,0.481058
5,137,9,2,1,9,1,I,7,L,8,L,15,0.86372,0.551132,0.476024
5,138,1,2,8,9,1,C,1,S,1,S,11,0.312169,0.857767,0.267768
5,139,9,8,1,9,1,I,1,S,8,L,33,0.851746,0.586536,0.49958
5,140,9,2,9,8,1,C,7,L,1,S,9,0.90433,0.224068,0.202632
5,141,9,2,8,9,1,I,7,L,1,S,9,0.858709,0.268948,0.230948
5,142,2,1,1,2,1,I,1,S,1,S,19,0.857277,0.540686,0.463517
5,143,1,9,1,2,1,C,8,L,1,S,8,0.157217,0.936467,0.147228
5,144,2,8,2,8,1,C,6,S,6,S,8,0.13846,0.960279,0.132961
6,1,1,2,8,9,1,C,1,S,1,S,11,0.268962,0.902442,0.242723
6,2,2,1,1,9,1,I,1,S,8,L,21,0.851216,0.586394,0.499148
6,3,1,2,1,9,1,C,1,S,8,L,8,0.208915,0.856372,0.178909
6,4,1,9,8,2,1,I,8,L,6,S,12,0.487141,0.857117,0.417536
6,5,2,8,9,1,1,I,6,S,8,L,16,0.560011,0.865697,0.4848
6,6,2,8,8,1,1,I,6,S,7,L,15,0.54844,0.858851,0.471028
6,7,1,9,2,8,1,C,8,L,6,S,7,0.156897,0.86627,0.135915
6,8,8,1,8,9,1,I,7,L,1,S,9,0.877682,0.260421,0.228567
6,9,8,2,8,9,1,I,6,S,1,S,10,0.878493,0.29209,0.256599
6,10,2,9,2,1,1,I,7,L,1,S,11,0.407181,0.856024,0.348557
6,11,2,9,9,2,1,I,7,L,7,L,14,0.537064,0.858667,0.461159
6,12,2,9,1,9,1,C,7,L,8,L,7,0.155865,0.871939,0.135905
6,13,2,1,9,1,1,C,1,S,8,L,8,0.89274,0.185256,0.165385
6,14,1,9,2,9,1,C,8,L,7,L,7,0.152924,0.872589,0.13344
6,15,1,8,8,9,1,C,7,L,1,S,9,0.20883,0.92526,0.193222
6,16,8,2,9,2,1,C,6,S,7,L,8,0.965976,0.137248,0.132578
6,17,1,9,1,2,1,C,8,L,1,S,8,0.169261,0.921944,0.156049
6,18,9,8,1,8,0,I,1,S,7,L,12,0.369866,0.861344,0.318582
6,19,2,8,2,8,1,C,6,S,6,S,8,0.145396,0.952268,0.138456
6,20,1,2,2,1,1,I,1,S,1,S,18,0.526173,0.860503,0.452773
6,21,8,9,2,9,1,C,1,S,7,L,10,0.241822,0.916228,0.221564
6,22,2,1,1,2,1,I,1,S,1,S,16,0.855135,0.517907,0.44288
6,23,2,8,1,2,1,C,6,S,1,S,8,0.202449,0.869811,0.176093
6,24,9,8,2,9,0,I,1,S,7,L,14,0.418803,0.856218,0.358587
6,25,1,8,8,1,1,I,7,L,7,L,14,0.525465,0.872247,0.458335
6,26,9,1,2,1,1,C,8,L,1,S,8,0.929614,0.159866,0.148614
6,27,1,8,1,9,1,C,7,L,8,L,7,0.139393,0.893236,0.124511
6,28,8,1,2,1,1,C,7,L,1,S,8,0.918938,0.165486,0.152071
6,29,2,8,9,2,1,I,6,S,7,L,15,0.544497,0.863363,0.470098
6,30,1,8,9,2,1,I,7,L,7,L,13,0.521541,0.854023,0.445408
6,31,2,9,1,2,1,C,7,L,1,S,8,0.193503,0.88641,0.171523
6,32,9,2,2,9,1,I,7,L,7,L,14,0.857094,0.526075,0.450896
6,33,9,8,8,2,1,C,1,S,6,S,10,0.853945,0.293543,0.250669
6,34,8,1,9,1,1,C,7,L,8,L,7,0.914583,0.125424,0.114711
6,35,1,8,9,8,1,I,7,L,1,S,10,0.342685,0.866863,0.297061
6,36,8,9,8,9,1,C,1,S,1,S,13,0.300367,0.907321,0.272529
6,37,9,8,1,2,1,I,1,S,1,S,30,0.851931,0.567667,0.483613
6,38,8,2,9,8,1,C,6,S,1,S,9,0.938973,0.19164,0.179945
6,39,1,8,8,2,1,I,7,L,6,S,13,0.497624,0.871144,0.433503
6,40,1,2,8,2,1,I,1,S,6,S,22,0.568862,0.859749,0.489078
6,41,2,9,2,9,1,C,7,L,7,L,8,0.13204,0.975736,0.128837
6,42,2,9,9,8,1,I,7,L,1,S,11,0.366479,0.889031,0.325811
6,43,1,8,2,8,1,C,7,L,6,S,7,0.162896,0.853938,0.139103
6,44,1,8,2,1,1,I,7,L,1,S,11,0.389377,0.877597,0.341716
6,45,9,1,9,1,1,C,8,L,8,L,7,0.924708,0.12037,0.111307
6,46,8,9,2,1,1,I,1,S,1,S,25,0.555696,0.857983,0.476778
6,47,8,9,8,2,1,I,1,S,6,S,28,0.581983,0.852308,0.496029
6,48,1,2,8,1,1,I,1,S,7,L,23,0.580007,0.855159,0.495998
6,49,9,1,2,8,1,I,8,L,6,S,12,0.866617,0.477196,0.413546
6,50,1,9,2,1,1,I,8,L,1,S,11,0.381604,0.891011,0.340013
6,51,9,8,8,1,1,C,1,S,7,L,10,0.885805,0.270129,0.239281
6,52,8,2,8,2,1,C,6,S,6,S,8,0.940713,0.153365,0.144273
6,53,1,2,1,8,1,C,1,S,7,L,8,0.211962,0.851575,0.180501
6,54,2,9,8,9,1,C,7,L,1,S,9,0.226838,0.902553,0.204733
6,55,8,1,1,9,1,I,7,L,8,L,13,0.855116,0.526462,0.450186
6,56,8,1,9,8,1,C,7,L,1,S,8,0.89087,0.190035,0.169296
6,57,9,1,2,9,1,I,8,L,7,L,12,0.861765,0.48404,0.417129
6,58,8,1,8,2,1,C,7,L,6,S,7,0.867373,0.15645,0.135701
6,59,9,2,8,1,1,C,7,L,7,L,7,0.850676,0.166293,0.141461
6,60,9,1,1,2,1,I,8,L,1,S,10,0.860964,0.368871,0.317585
6,61,2,1,1,8,1,I,1,S,7,L,21,0.853658,0.582939,0.49763
6,62,9,2,2,1,1,C,7,L,1,S,8,0.869794,0.19837,0.172541
6,63,2,1,9,8,1,C,1,S,1,S,10,0.938331,0.219343,0.205816
6,64,1,9,9,8,1,I,8,L,1,S,10,0.335101,0.880366,0.295011
6,65,2,1,8,1,1,C,1,S,7,L,8,0.874207,0.19671,0.171965
6,66,1,2,9,2,1,I,1,S,7,L,23,0.578255,0.857736,0.49599
6,67,8,1,2,9,1,I,7,L,7,L,12,0.851058,0.490482,0.417429
6,68,8,9,8,1,1,I,1,S,7,L,30,0.5823,0.857218,0.499159
6,69,9,2,9,1,1,C,7,L,8,L,7,0.868373,0.155704,0.135209
6,70,9,2,9,8,1,C,7,L,1,S,9,0.955523,0.182033,0.173937
6,71,2,8,8,9,1,C,6,S,1,S,9,0.236553,0.885306,0.209422
6,72,8,2,2,1,1,C,6,S,1,S,8,0.853967,0.207201,0.176942
6,73,8,2,1,8,1,I,6,S,7,L,16,0.862138,0.556286,0.479595
6,74,9,2,9,2,1,C,7,L,7,L,8,0.981803,0.128418,0.126081
6,75,9,1,8,9,1,I,8,L,1,S,9,0.888601,0.254407,0.226066
6,76,9,2,8,2,1,C,7,L,6,S,8,0.95654,0.144535,0.138254
6,77,2,8,2,1,1,I,6,S,1,S,12,0.424013,0.873703,0.370462
6,78,2,1,2,1,1,C,1,S,1,S,9,0.866615,0.235262,0.203882
6,79,2,1,2,9,1,I,1,S,7,L,20,0.857405,0.568017,0.487021
6,80,8,2,8,1,1,C,6,S,7,L,8,0.972146,0.131268,0.127611
6,81,8,9,1,8,1,C,1,S,7,L,9,0.256865,0.858162,0.220431
6,82,9,2,2,8,1,I,7,L,6,S,14,0.861714,0.519751,0.447877
6,83,2,8,1,8,1,C,6,S,7,L,7,0.166551,0.852056,0.141911
6,84,8,9,9,8,1,I,1,S,1,S,24,0.551311,0.860515,0.474411
6,85,1,9,8,9,1,C,8,L,1,S,9,0.201583,0.938682,0.189222
6,86,8,2,1,2,1,I,6,S,1,S,12,0.860634,0.436269,0.375468
6,87,9,2,8,9,1,I,7,L,1,S,10,0.895275,0.281991,0.25246
6,88,1,2,2,9,1,C,1,S,7,L,9,0.189528,0.93578,0.177356
6,89,9,8,9,8,1,C,1,S,1,S,12,0.854562,0.32873,0.28092
6,90,2,9,1,8,1,C,7,L,7,L,7,0.158683,0.86737,0.137637
6,91,9,8,2,1,1,C,1,S,1,S,12,0.895844,0.294938,0.264219
6,92,1,8,9,1,1,I,7,L,8,L,14,0.542349,0.860509,0.466696
6,93,8,1,1,8,1,I,7,L,7,L,13,0.858275,0.521992,0.448013
6,94,2,8,9,8,1,I,6,S,1,S,11,0.376944,0.871714,0.328587
6,95,1,2,9,8,1,I,1,S,1,S,16,0.501396,0.855399,0.428893
6,96,8,9,1,2,1,C,1,S,1,S,11,0.272305,0.903738,0.246093
6,97,9,1,9,8,1,C,8,L,1,S,8,0.901545,0.184415,0.166259
6,98,8,9,9,1,1,I,1,S,8,L,31,0.587815,0.856355,0.503378
6,99,2,1,8,2,1,C,1,S,6,S,9,0.96146,0.175248,0.168494
6,100,1,9,1,9,1,C,8,L,8,L,7,0.133395,0.905567,0.120798
6,101,8,2,9,1,1,C,6,S,8,L,7,0.853929,0.163446,0.139572
6,102,8,2,1,9,1,I,6,S,8,L,16,0.85925,0.560308,0.481444
6,103,1,9,8,1,1,I,8,L,7,L,13,0.518453,0.861863,0.446835
6,104,9,8,1,9,0,I,1,S,8,L,12,0.366643,0.86596,0.317499
6,105,1,8,2,9,1,C,7,L,7,L,7,0.158922,0.860257,0.136714
6,106,8,1,9,2,1,C,7,L,7,L,7,0.890921,0.141799,0.126332
6,107,8,2,2,8,1,I,6,S,6,S,15,0.867142,0.527685,0.457578
6,108,8,9,9,2,1,I,1,S,7,L,29,0.588656,0.85108,0.500993
6,109,2,8,1,9,1,C,6,S,8,L,7,0.163734,0.856624,0.140258
6,110,8,9,2,8,1,C,1,S,6,S,10,0.246666,0.909072,0.224237
6,111,1,2,1,2,1,C,1,S,1,S,10,0.211667,0.946177,0.200275
6,112,9,8,2,8,1,I,1,S,6,S,33,0.853595,0.576937,0.49247
6,113,2,8,2,9,1,C,6,S,7,L,8,0.140987,0.959137,0.135226
6,114,1,2,9,1,1,I,1,S,8,L,24,0.58597,0.855383,0.501229
6,115,9,2,1,9,1,I,7,L,8,L,15,0.855691,0.555061,0.47496
6,116,9,1,1,9,1,I,8,L,8,L,13,0.865619,0.520041,0.450158
6,117,1,9,9,2,1,I,8,L,7,L,13,0.513707,0.866999,0.445383
6,118,8,9,1,9,1,C,1,S,8,L,9,0.25368,0.863032,0.218934
6,119,2,8,8,2,1,I,6,S,6,S,14,0.52441,0.859175,0.45056
6,120,2,9,2,8,1,C,7,L,6,S,8,0.136449,0.968867,0.132201
6,121,9,1,9,2,1,C,8,L,7,L,7,0.901046,0.136745,0.123213
6,122,9,1,8,1,1,C,8,L,7,L,7,0.90701,0.130959,0.118781
6,123,1,2,2,8,1,C,1,S,6,S,9,0.19422,0.928659,0.180364
6,124,1,8,1,8,1,C,7,L,7,L,7,0.14221,0.888667,0.126377
6,125,2,1,2,8,1,I,1,S,6,S,20,0.861011,0.563136,0.484866
6,126,2,1,8,9,1,I,1,S,1,S,12,0.87399,0.348485,0.304572
6,127,8,1,8,1,1,C,7,L,7,L,7,0.896886,0.136013,0.121988
6,128,9,2,1,8,1,I,7,L,7,L,15,0.858676,0.550895,0.47304
6,129,8,1,2,8,1,I,7,L,6,S,12,0.85591,0.483638,0.41395
6,130,8,2,2,9,1,I,6,S,7,L,15,0.862682,0.533734,0.460442
6,131,2,9,9,1,1,I,7,L,8,L,15,0.554685,0.863079,0.478737
6,132,9,1,8,2,1,C,8,L,6,S,7,0.877498,0.151396,0.13285
6,133,1,9,9,1,1,I,8,L,8,L,14,0.534586,0.873214,0.466808
6,134,2,1,9,2,1,C,1,S,7,L,8,0.868037,0.20269,0.175942
6,135,9,1,1,8,1,I,8,L,7,L,13,0.868778,0.515572,0.447918
6,136,9,8,8,9,1,I,1,S,1,S,25,0.854796,0.540291,0.461839
6,137,2,9,8,2,1,I,7,L,6,S,13,0.514292,0.851632,0.437987
6,138,1,9,1,8,1,C,8,L,7,L,7,0.136212,0.900999,0.122727
6,139,9,8,9,1,1,C,1,S,8,L,10,0.904517,0.257875,0.233252
6,140,2,9,8,1,1,I,7,L,7,L,14,0.5414,0.853842,0.46227
6,141,9,2,1,2,1,I,7,L,1,S,12,0.876997,0.425852,0.373471
6,142,1,8,1,2,1,C,7,L,1,S,8,0.17599,0.908869,0.159952
6,143,9,8,9,2,1,C,1,S,7,L,10,0.879925,0.276021,0.242878
6,144,8,1,1,2,1,I,7,L,1,S,10,0.850004,0.375136,0.318867
7,1,2,9,1,8,1,C,7,L,7,L,7,0.148696,0.8793,0.130749
7,2,9,8,8,2,1,C,1,S,6,S,10,0.858903,0.294048,0.252558
7,3,2,1,2,1,1,C,1,S,1,S,10,0.916693,0.233258,0.213826
7,4,8,2,2,9,1,I,6,S,7,L,14,0.853395,0.535682,0.457148
7,5,2,1,2,8,1,I,1,S,6,S,22,0.854609,0.576701,0.492854
7,6,2,9,8,2,1,I,7,L,6,S,13,0.512902,0.854068,0.438053
7,7,2,8,8,2,1,I,6,S,6,S,14,0.534078,0.850121,0.454031
7,8,1,9,1,9,1,C,8,L,8,L,7,0.116851,0.931684,0.108868
7,9,2,8,8,1,1,I,6,S,7,L,15,0.556975,0.852057,0.474575
7,10,9,1,9,1,1,C,8,L,8,L,7,0.907284,0.132802,0.120489
7,11,1,8,8,2,1,I,7,L,6,S,12,0.489382,0.857244,0.41952
7,12,9,8,1,8,0,I,1,S,7,L,12,0.366314,0.870031,0.318704
7,13,8,9,2,8,1,C,1,S,6,S,9,0.257091,0.853075,0.219318
7,14,8,9,1,9,1,C,1,S,8,L,9,0.236004,0.885672,0.209022
7,15,1,2,8,1,1,I,1,S,7,L,21,0.580826,0.855039,0.496628
7,16,9,2,2,1,1,C,7,L,1,S,8,0.85161,0.215742,0.183728
7,17,1,2,9,8,1,I,1,S,1,S,13,0.412591,0.86364,0.35633
7,18,9,1,2,8,1,I,8,L,6,S,13,0.870646,0.504527,0.439265
7,19,8,9,2,1,1,I,1,S,1,S,23,0.549331,0.861556,0.473279
7,20,2,8,1,2,1,C,6,S,1,S,8,0.203489,0.868032,0.176635
7,21,9,1,9,2,1,C,8,L,7,L,7,0.883649,0.14774,0.13055
7,22,1,9,2,1,1,I,8,L,1,S,10,0.330397,0.894601,0.295574
7,23,2,8,9,1,1,I,6,S,8,L,16,0.563163,0.862233,0.485577
7,24,1,8,9,1,1,I,7,L,8,L,13,0.531396,0.855206,0.454453
7,25,9,2,8,2,1,C,7,L,6,S,8,0.962305,0.141411,0.136081
7,26,9,2,1,9,1,I,7,L,8,L,15,0.854555,0.558507,0.477275
7,27,2,1,1,8,1,I,1,S,7,L,23,0.851274,0.587602,0.50021
7,28,1,8,1,8,1,C,7,L,7,L,7,0.130633,0.909415,0.118799
7,29,2,9,1,2,1,C,7,L,1,S,8,0.182194,0.898803,0.163757
7,30,1,2,9,2,1,I,1,S,7,L,21,0.572334,0.860972,0.492763
7,31,2,1,9,2,1,C,1,S,7,L,9,0.953342,0.180578,0.172153
7,32,8,1,9,1,1,C,7,L,8,L,7,0.908673,0.13142,0.119418
7,33,8,9,8,1,1,I,1,S,7,L,29,0.584024,0.857807,0.50098
7,34,1,8,9,8,1,I,7,L,1,S,9,0.291896,0.855837,0.249815
7,35,1,8,1,2,1,C,7,L,1,S,8,0.162485,0.930649,0.151216
7,36,9,1,8,2,1,C,8,L,6,S,7,0.867159,0.15873,0.137644
7,37,9,8,9,8,1,C,1,S,1,S,13,0.872092,0.331648,0.289228
7,38,1,2,8,9,1,C,1,S,1,S,10,0.285089,0.855244,0.243821
7,39,2,9,8,9,1,C,7,L,1,S,9,0.224893,0.908499,0.204315
7,40,9,2,2,9,1,I,7,L,7,L,14,0.851811,0.537343,0.457715
7,41,8,1,2,9,1,I,7,L,7,L,13,0.869523,0.507775,0.441521
7,42,9,2,9,8,1,C,7,L,1,S,9,0.921708,0.207956,0.191675
7,43,2,9,2,8,1,C,7,L,6,S,7,0.166192,0.852255,0.141638
7,44,2,1,8,9,1,I,1,S,1,S,13,0.886965,0.362701,0.321703
7,45,9,8,8,9,1,I,1,S,1,S,25,0.860133,0.541835,0.46605
7,46,9,1,1,2,1,I,8,L,1,S,11,0.881686,0.395507,0.348713
7,47,2,8,2,9,1,C,6,S,7,L,8,0.141866,0.963315,0.136662
7,48,8,9,8,9,1,C,1,S,1,S,12,0.326765,0.857828,0.280308
7,49,9,8,1,2,1,I,1,S,1,S,30,0.85505,0.567604,0.48533
7,50,2,8,1,8,1,C,6,S,7,L,7,0.168207,0.8507,0.143094
7,51,2,8,8,9,1,C,6,S,1,S,9,0.247257,0.876878,0.216814
7,52,9,8,9,1,1,C,1,S,8,L,10,0.901982,0.264054,0.238172
7,53,2,9,9,2,1,I,7,L,7,L,14,0.52861,0.865353,0.457434
7,54,2,1,8,2,1,C,1,S,6,S,9,0.935247,0.193156,0.180649
7,55,1,9,2,9,1,C,8,L,7,L,7,0.134046,0.905297,0.121351
7,56,2,9,9,1,1,I,7,L,8,L,15,0.547772,0.869566,0.476324
7,57,8,9,1,2,1,C,1,S,1,S,11,0.243774,0.939944,0.229134
7,58,2,9,9,8,1,I,7,L,1,S,10,0.310598,0.883146,0.274304
7,59,2,1,9,1,1,C,1,S,8,L,8,0.863184,0.205984,0.177802
7,60,9,8,2,8,0,I,1,S,6,S,13,0.39765,0.859445,0.341758
7,61,8,1,1,9,1,I,7,L,8,L,13,0.850618,0.533357,0.453684
7,62,8,2,1,8,1,I,6,S,7,L,15,0.857735,0.553381,0.474654
7,63,9,1,1,9,1,I,8,L,8,L,14,0.87281,0.533545,0.465684
7,64,1,9,1,2,1,C,8,L,1,S,8,0.148788,0.950524,0.141427
7,65,1,9,2,8,1,C,8,L,6,S,7,0.135237,0.90151,0.121917
7,66,8,1,8,9,1,I,7,L,1,S,9,0.879824,0.262537,0.230986
7,67,8,2,8,9,1,I,6,S,1,S,10,0.904456,0.277568,0.251049
7,68,8,2,1,2,1,I,6,S,1,S,12,0.874347,0.430533,0.376435
7,69,8,1,8,2,1,C,7,L,6,S,7,0.868549,0.157348,0.136664
7,70,9,1,8,1,1,C,8,L,7,L,7,0.894741,0.141057,0.12621
7,71,9,8,8,1,1,C,1,S,7,L,10,0.88888,0.273329,0.242957
7,72,2,1,8,1,1,C,1,S,7,L,8,0.850081,0.214819,0.182613
7,73,1,8,9,2,1,I,7,L,7,L,13,0.50839,0.871788,0.443208
7,74,8,2,8,1,1,C,6,S,7,L,7,0.856031,0.16446,0.140783
7,75,1,9,1,8,1,C,8,L,7,L,7,0.117742,0.928555,0.10933
7,76,9,1,2,1,1,C,8,L,1,S,8,0.895008,0.188088,0.16834
7,77,9,8,2,9,0,I,1,S,7,L,13,0.395445,0.863896,0.341624
7,78,9,2,9,2,1,C,7,L,7,L,8,0.97996,0.129428,0.126835
7,79,1,2,8,2,1,I,1,S,6,S,20,0.567775,0.858639,0.487514
7,80,2,1,2,9,1,I,1,S,7,L,22,0.852451,0.580776,0.495083
7,81,1,8,1,9,1,C,7,L,8,L,7,0.129742,0.912544,0.118395
7,82,9,2,1,2,1,I,7,L,1,S,12,0.872477,0.432393,0.377253
7,83,1,8,2,8,1,C,7,L,6,S,7,0.148128,0.882369,0.130704
7,84,2,8,9,8,1,I,6,S,1,S,10,0.333429,0.851615,0.283953
7,85,2,9,2,9,1,C,7,L,7,L,7,0.165001,0.856042,0.141248
7,86,8,9,2,9,1,C,1,S,7,L,9,0.255365,0.857399,0.21895
7,87,9,2,8,9,1,I,7,L,1,S,10,0.902358,0.279558,0.252261
7,88,1,8,8,9,1,C,7,L,1,S,9,0.204148,0.940988,0.192101
7,89,9,2,9,1,1,C,7,L,8,L,7,0.866578,0.158066,0.136976
7,90,9,1,9,8,1,C,8,L,1,S,8,0.859788,0.215573,0.185347
7,91,1,8,2,1,1,I,7,L,1,S,10,0.344647,0.874853,0.301515
7,92,8,2,1,9,1,I,6,S,8,L,15,0.855997,0.556953,0.47675
7,93,2,9,1,9,1,C,7,L,8,L,7,0.147806,0.882429,0.130428
7,94,2,1,9,8,1,C,1,S,1,S,10,0.861372,0.273946,0.23597
7,95,1,2,2,9,1,C,1,S,7,L,8,0.203863,0.863703,0.176077
7,96,9,8,1,9,0,I,1,S,8,L,12,0.364701,0.873623,0.318611
7,97,8,1,2,1,1,C,7,L,1,S,8,0.896437,0.186667,0.167335
7,98,9,2,8,1,1,C,7,L,7,L,7,0.854035,0.166321,0.142044
7,99,9,8,2,1,1,C,1,S,1,S,12,0.868331,0.322158,0.279739
7,100,8,1,1,2,1,I,7,L,1,S,11,0.882955,0.394168,0.348033
7,101,8,2,9,8,1,C,6,S,1,S,9,0.923859,0.205954,0.190272
7,102,1,2,9,1,1,I,1,S,8,L,22,0.582461,0.858796,0.500216
7,103,8,2,2,1,1,C,6,S,1,S,8,0.853737,0.213777,0.18251
7,104,1,9,8,1,1,I,8,L,7,L,12,0.503952,0.855365,0.431063
7,105,9,2,2,8,1,I,7,L,6,S,14,0.854051,0.532931,0.45515
7,106,8,2,9,2,1,C,6,S,7,L,8,0.982087,0.127464,0.125181
7,107,2,9,2,1,1,I,7,L,1,S,11,0.372927,0.885818,0.330346
7,108,8,1,1,8,1,I,7,L,7,L,13,0.852289,0.529765,0.451513
7,109,1,2,1,9,1,C,1,S,8,L,8,0.185297,0.891525,0.165197
7,110,1,2,1,8,1,C,1,S,7,L,8,0.186404,0.888188,0.165562
7,111,8,9,8,2,1,I,1,S,6,S,27,0.582091,0.853078,0.496569
7,112,8,9,9,8,1,I,1,S,1,S,20,0.527589,0.858178,0.452766
7,113,8,9,9,1,1,I,1,S,8,L,29,0.591646,0.852382,0.504308
7,114,1,8,8,1,1,I,7,L,7,L,13,0.519453,0.864073,0.448845
7,115,1,9,9,1,1,I,8,L,8,L,13,0.517853,0.87316,0.452169
7,116,8,9,1,8,1,C,1,S,7,L,9,0.237288,0.882206,0.209337
7,117,8,1,9,2,1,C,7,L,7,L,7,0.885039,0.146357,0.129532
7,118,9,1,8,9,1,I,8,L,1,S,9,0.878416,0.263957,0.231864
7,119,1,2,2,1,1,I,1,S,1,S,15,0.486567,0.861065,0.418966
7,120,9,1,1,8,1,I,8,L,7,L,13,0.851208,0.530969,0.451965
7,121,8,2,2,8,1,I,6,S,6,S,14,0.855635,0.531269,0.454572
7,122,1,2,2,8,1,C,1,S,6,S,8,0.205348,0.859581,0.176513
7,123,1,9,9,8,1,I,8,L,1,S,9,0.277773,0.875844,0.243286
7,124,1,9,8,2,1,I,8,L,6,S,12,0.475482,0.875876,0.416463
7,125,8,9,9,2,1,I,1,S,7,L,28,0.583763,0.854879,0.499047
7,126,1,9,8,9,1,C,8,L,1,S,8,0.219711,0.864429,0.189924
7,127,8,1,9,8,1,C,7,L,1,S,8,0.861217,0.214152,0.184431
7,128,2,8,1,9,1,C,6,S,8,L,7,0.167316,0.853828,0.142859
7,129,1,9,9,2,1,I,8,L,7,L,12,0.492526,0.863223,0.42516
7,130,2,1,1,2,1,I,1,S,1,S,18,0.855045,0.537472,0.459563
7,131,2,1,1,9,1,I,1,S,8,L,24,0.858763,0.583774,0.501323
7,132,9,2,1,8,1,I,7,L,7,L,15,0.856293,0.554935,0.475187
7,133,8,2,8,2,1,C,6,S,6,S,8,0.964433,0.139447,0.134487
7,134,2,8,9,2,1,I,6,S,7,L,15,0.546674,0.859353,0.469786
7,135,2,8,2,1,1,I,6,S,1,S,11,0.395751,0.854993,0.338364
7,136,9,1,2,9,1,I,8,L,7,L,13,0.868442,0.508978,0.442018
7,137,9,8,9,2,1,C,1,S,7,L,10,0.876932,0.281207,0.246599
7,138,8,1,8,1,1,C,7,L,7,L,7,0.89613,0.139675,0.125167
7,139,1,8,2,9,1,C,7,L,7,L,7,0.146937,0.886157,0.130209
7,140,8,2,9,1,1,C,6,S,8,L,7,0.868574,0.156205,0.135675
7,141,8,1,2,8,1,I,7,L,6,S,13,0.871727,0.503324,0.438761
7,142,1,2,1,2,1,C,1,S,1,S,9,0.226848,0.880905,0.199831
7,143,2,8,2,8,1,C,6,S,6,S,8,0.143352,0.959193,0.137502
7,144,2,9,8,1,1,I,7,L,7,L,14,0.539291,0.857833,0.462621
8,1,2,1,2,1,1,C,1,S,1,S,10,0.890287,0.251865,0.224232
8,2,1,8,1,8,1,C,7,L,7,L,7,0.138829,0.894278,0.124152
8,3,1,8,9,2,1,I,7,L,7,L,13,0.509702,0.864203,0.440486
8,4,8,1,1,8,1,I,7,L,7,L,14,0.867162,0.532708,0.461944
8,5,1,9,2,9,1,C,8,L,7,L,7,0.145129,0.886827,0.128704
8,6,9,2,2,9,1,I,7,L,7,L,14,0.860398,0.529674,0.45573
8,7,8,2,8,9,1,I,6,S,1,S,10,0.908378,0.270266,0.245504
8,8,8,9,9,1,0,I,1,S,8,L,12,0.864538,0.368759,0.318806
8,9,8,9,2,9,1,C,1,S,7,L,10,0.277159,0.874119,0.242269
8,10,9,2,2,8,1,I,7,L,6,S,14,0.863026,0.524611,0.452753
8,11,8,1,2,9,1,I,7,L,7,L,13,0.858585,0.514755,0.441961
8,12,8,2,1,9,1,I,6,S,8,L,15,0.854339,0.556599,0.475524
8,13,1,8,8,9,1,C,7,L,1,S,9,0.217706,0.920581,0.200416
8,14,9,2,2,1,1,C,7,L,1,S,8,0.868933,0.200886,0.174556
8,15,2,9,8,1,1,I,7,L,7,L,15,0.547595,0.865672,0.474038
8,16,8,9,9,8,1,I,1,S,1,S,25,0.542446,0.852964,0.462687
8,17,8,1,2,8,1,I,7,L,6,S,13,0.861178,0.509644,0.438894
8,18,8,1,8,9,1,I,7,L,1,S,9,0.874125,0.262462,0.229425
8,19,1,2,1,2,1,C,1,S,1,S,10,0.208552,0.950674,0.198265
8,20,2,8,9,2,1,I,6,S,7,L,15,0.53913,0.864843,0.466263
8,21,2,8,8,1,1,I,6,S,7,L,16,0.555034,0.867829,0.481675
8,22,1,8,2,1,1,I,7,L,1,S,10,0.362001,0.853025,0.308796
8,23,8,9,1,8,1,C,1,S,7,L,10,0.261276,0.89536,0.233936
8,24,9,1,9,1,1,C,8,L,8,L,7,0.906136,0.131776,0.119407
8,25,9,1,2,1,1,C,8,L,1,S,8,0.901476,0.180153,0.162403
8,26,9,2,9,8,1,C,7,L,1,S,9,0.903584,0.223026,0.201523
8,27,2,1,2,9,1,I,1,S,7,L,24,0.855897,0.580195,0.496587
8,28,8,1,2,1,1,C,7,L,1,S,8,0.892213,0.186254,0.166178
8,29,9,8,8,2,1,C,1,S,6,S,10,0.93174,0.228639,0.213032
8,30,2,1,9,8,1,C,1,S,1,S,11,0.871194,0.293729,0.255895
8,31,2,1,8,1,1,C,1,S,7,L,9,0.938935,0.193098,0.181306
8,32,2,1,9,2,1,C,1,S,7,L,9,0.914427,0.209745,0.191796
8,33,8,2,1,2,1,I,6,S,1,S,12,0.87204,0.430262,0.375206
8,34,9,2,8,2,1,C,7,L,6,S,8,0.973298,0.132732,0.129188
8,35,2,1,2,8,1,I,1,S,6,S,24,0.858347,0.575617,0.494079
8,36,9,1,1,2,1,I,8,L,1,S,11,0.882053,0.39254,0.346241
8,37,9,2,8,1,1,C,7,L,7,L,7,0.86878,0.155092,0.134741
8,38,8,9,8,9,1,C,1,S,1,S,15,0.309219,0.920925,0.284767
8,39,1,2,8,1,1,I,1,S,7,L,23,0.586125,0.853293,0.500137
8,40,8,1,9,8,1,C,7,L,1,S,9,0.927425,0.207589,0.192523
8,41,1,8,9,1,1,I,7,L,8,L,14,0.537197,0.866679,0.465577
8,42,8,1,9,1,1,C,7,L,8,L,7,0.897335,0.13743,0.123321
8,43,8,2,9,2,1,C,6,S,7,L,8,0.971491,0.133871,0.130055
8,44,1,2,8,9,1,C,1,S,1,S,11,0.286405,0.887245,0.254111
8,45,2,9,9,1,1,I,7,L,8,L,15,0.553563,0.861273,0.476769
8,46,2,1,8,2,1,C,1,S,6,S,9,0.904143,0.216793,0.196012
8,47,1,2,9,8,1,I,1,S,1,S,13,0.377256,0.872568,0.329182
8,48,2,1,9,1,1,C,1,S,8,L,9,0.946009,0.188306,0.17814
8,49,1,9,1,8,1,C,8,L,7,L,7,0.130929,0.906991,0.118751
8,50,9,1,8,2,1,C,8,L,6,S,7,0.867391,0.156882,0.136078
8,51,2,1,1,2,1,I,1,S,1,S,20,0.859884,0.544705,0.468383
8,52,9,1,9,2,1,C,8,L,7,L,7,0.876686,0.15078,0.132187
8,53,2,1,1,8,1,I,1,S,7,L,25,0.855894,0.584347,0.500139
8,54,2,9,8,2,1,I,7,L,6,S,14,0.520423,0.867536,0.451486
8,55,2,9,2,8,1,C,7,L,6,S,8,0.129262,0.978798,0.126522
8,56,9,2,8,9,1,I,7,L,1,S,9,0.850284,0.277899,0.236293
8,57,2,8,1,8,1,C,6,S,7,L,8,0.124349,0.986235,0.122637
8,58,9,8,2,9,1,I,1,S,7,L,29,0.858044,0.578078,0.496017
8,59,9,1,1,8,1,I,8,L,7,L,13,0.852157,0.527541,0.449548
8,60,1,8,8,1,1,I,7,L,7,L,14,0.531002,0.871224,0.462622
8,61,1,2,1,8,1,C,1,S,7,L,8,0.211142,0.854234,0.180365
8,62,2,8,2,1,1,I,6,S,1,S,12,0.410094,0.882886,0.362067
8,63,8,2,2,9,1,I,6,S,7,L,15,0.870259,0.535169,0.465735
8,64,2,1,1,9,1,I,1,S,8,L,25,0.853849,0.588313,0.50233
8,65,9,8,9,1,1,C,1,S,8,L,9,0.88054,0.237421,0.209059
8,66,1,8,2,9,1,C,7,L,7,L,7,0.15303,0.874114,0.133766
8,67,2,8,9,1,1,I,6,S,8,L,16,0.560786,0.863581,0.484284
8,68,1,9,9,2,1,I,8,L,7,L,13,0.500864,0.876627,0.439071
8,69,1,9,8,1,1,I,8,L,7,L,13,0.52311,0.860284,0.450023
8,70,2,8,8,2,1,I,6,S,6,S,14,0.532899,0.850657,0.453314
8,71,1,8,1,9,1,C,7,L,8,L,7,0.137697,0.897948,0.123645
8,72,1,8,1,2,1,C,7,L,1,S,8,0.170641,0.915717,0.156259
8,73,9,8,9,8,1,C,1,S,1,S,12,0.858103,0.320288,0.27484
8,74,8,9,2,8,1,C,1,S,6,S,10,0.279436,0.869012,0.242834
8,75,1,2,9,1,1,I,1,S,8,L,24,0.583399,0.859284,0.501305
8,76,8,1,9,2,1,C,7,L,7,L,7,0.867886,0.156434,0.135767
8,77,8,2,1,8,1,I,6,S,7,L,15,0.856417,0.552446,0.473124
8,78,9,8,9,2,1,C,1,S,7,L,10,0.94201,0.22142,0.20858
8,79,8,9,8,2,1,I,1,S,6,S,33,0.581881,0.85007,0.494639
8,80,1,2,9,2,1,I,1,S,7,L,22,0.578239,0.854389,0.494041
8,81,9,2,9,1,1,C,7,L,8,L,7,0.87548,0.150788,0.132012
8,82,1,9,9,1,1,I,8,L,8,L,13,0.529536,0.855606,0.453074
8,83,9,8,8,1,1,C,1,S,7,L,9,0.873465,0.242213,0.211564
8,84,8,2,2,8,1,I,6,S,6,S,14,0.852417,0.532556,0.45396
8,85,9,1,2,8,1,I,8,L,6,S,13,0.869723,0.503402,0.437821
8,86,9,1,8,9,1,I,8,L,1,S,9,0.883532,0.256098,0.226271
8,87,8,2,9,8,1,C,6,S,1,S,9,0.891434,0.231284,0.206174
8,88,8,1,1,2,1,I,7,L,1,S,11,0.872916,0.399013,0.348305
8,89,1,8,8,2,1,I,7,L,6,S,13,0.500349,0.871174,0.435891
8,90,9,8,2,1,1,C,1,S,1,S,11,0.901099,0.268374,0.241832
8,91,1,9,2,1,1,I,8,L,1,S,10,0.352896,0.866502,0.305785
8,92,1,2,2,8,1,C,1,S,6,S,9,0.187076,0.94285,0.176385
8,93,8,2,8,1,1,C,6,S,7,L,7,0.857811,0.162227,0.13916
8,94,8,1,8,1,1,C,7,L,7,L,7,0.890635,0.141734,0.126233
8,95,2,9,1,9,1,C,7,L,8,L,7,0.155962,0.870038,0.135693
8,96,9,1,9,8,1,C,8,L,1,S,9,0.936832,0.201225,0.188514
8,97,2,8,1,2,1,C,6,S,1,S,8,0.202556,0.86751,0.175719
8,98,9,2,1,8,1,I,7,L,7,L,15,0.866548,0.544794,0.472091
8,99,2,9,9,2,1,I,7,L,7,L,14,0.529366,0.86079,0.455674
8,100,1,9,1,9,1,C,8,L,8,L,7,0.129796,0.910661,0.1182
8,101,9,8,1,8,1,I,1,S,7,L,30,0.857095,0.582047,0.498869
8,102,8,9,2,1,1,I,1,S,1,S,30,0.554337,0.860081,0.476775
8,103,1,8,9,8,1,I,7,L,1,S,9,0.271006,0.865708,0.234612
8,104,2,9,2,9,1,C,7,L,7,L,8,0.127459,0.983559,0.125364
8,105,1,9,1,2,1,C,8,L,1,S,8,0.1621,0.929074,0.150603
8,106,1,2,2,9,1,C,1,S,7,L,9,0.185004,0.947838,0.175354
8,107,8,1,1,9,1,I,7,L,8,L,14,0.865109,0.536882,0.464461
8,108,2,8,1,9,1,C,6,S,8,L,7,0.166898,0.85291,0.142349
8,109,2,8,8,9,1,C,6,S,1,S,9,0.251284,0.871132,0.218902
8,110,2,1,8,9,1,I,1,S,1,S,13,0.863983,0.372608,0.321927
8,111,9,8,8,9,1,I,1,S,1,S,16,0.860916,0.432035,0.371946
8,112,9,1,2,9,1,I,8,L,7,L,13,0.86713,0.508514,0.440948
8,113,2,8,9,8,1,I,6,S,1,S,10,0.293299,0.882951,0.258969
8,114,8,2,2,1,1,C,6,S,1,S,8,0.857128,0.208713,0.178894
8,115,1,9,8,9,1,C,8,L,1,S,9,0.208778,0.934143,0.195029
8,116,2,9,8,9,1,C,7,L,1,S,9,0.238469,0.890302,0.212309
8,117,8,9,1,2,1,C,1,S,1,S,12,0.284197,0.910378,0.258727
8,118,8,2,9,1,1,C,6,S,8,L,7,0.864511,0.157924,0.136527
8,119,8,9,1,9,1,C,1,S,8,L,10,0.259532,0.899506,0.233451
8,120,2,9,2,1,1,I,7,L,1,S,11,0.390579,0.866271,0.338347
8,121,1,2,1,9,1,C,1,S,8,L,8,0.20976,0.85815,0.180006
8,122,9,1,8,1,1,C,8,L,7,L,7,0.899436,0.13608,0.122395
8,123,2,9,1,2,1,C,7,L,1,S,8,0.190472,0.886057,0.168769
8,124,9,1,1,9,1,I,8,L,8,L,13,0.850145,0.531731,0.452049
8,125,2,9,1,8,1,C,7,L,7,L,7,0.157095,0.866368,0.136102
8,126,8,2,8,2,1,C,6,S,6,S,8,0.961492,0.140559,0.135147
8,127,8,9,8,1,0,I,1,S,7,L,12,0.857886,0.373544,0.320458
8,128,9,8,1,2,1,I,1,S,1,S,24,0.850328,0.562716,0.478493
8,129,1,9,2,8,1,C,8,L,6,S,7,0.146599,0.882445,0.129366
8,130,9,8,1,9,1,I,1,S,8,L,30,0.855084,0.58597,0.501054
8,131,1,9,9,8,1,I,8,L,1,S,9,0.262079,0.879271,0.230438
8,132,9,2,9,2,1,C,7,L,7,L,8,0.983297,0.126044,0.123938
8,133,9,2,1,2,1,I,7,L,1,S,12,0.883572,0.421866,0.372749
8,134,2,8,2,8,1,C,6,S,6,S,8,0.141346,0.960251,0.135727
8,135,1,2,8,2,1,I,1,S,6,S,22,0.571915,0.859158,0.491365
8,136,1,2,2,1,1,I,1,S,1,S,17,0.518424,0.85731,0.44445
8,137,8,9,9,2,0,I,1,S,7,L,13,0.850498,0.40339,0.343082
8,138,8,1,8,2,1,C,7,L,6,S,7,0.858591,0.162536,0.139552
8,139,9,8,2,8,1,I,1,S,6,S,28,0.852354,0.580886,0.49512
8,140,1,9,8,2,1,I,8,L,6,S,12,0.488867,0.856702,0.418813
8,141,1,8,2,8,1,C,7,L,6,S,7,0.1545,0.869733,0.134373
8,142,2,8,2,9,1,C,6,S,7,L,8,0.139543,0.965012,0.13466
8,143,2,9,9,8,1,I,7,L,1,S,10,0.280109,0.902168,0.252706
8,144,9,2,1,9,1,I,7,L,8,L,15,0.86447,0.548947,0.474549
9,1,1,2,1,2,1,C,1,S,1,S,10,0.20792,0.947438,0.196991
9,2,2,9,8,9,1,C,7,L,1,S,9,0.21007,0.923133,0.193922
9,3,9,2,1,8,1,I,7,L,7,L,15,0.865862,0.545079,0.471963
9,4,1,9,9,2,1,I,8,L,7,L,12,0.496799,0.854991,0.424759
9,5,8,9,9,1,1,I,1,S,8,L,30,0.589781,0.856055,0.504885
9,6,8,2,8,9,1,I,6,S,1,S,10,0.865747,0.314583,0.272349
9,7,8,9,8,1,1,I,1,S,7,L,29,0.593002,0.851057,0.504678
9,8,2,1,9,2,1,C,1,S,7,L,9,0.960165,0.177705,0.170626
9,9,8,9,1,2,1,C,1,S,1,S,11,0.28953,0.882554,0.255526
9,10,8,1,1,9,1,I,7,L,8,L,13,0.850451,0.532836,0.453151
9,11,8,2,9,1,1,C,6,S,8,L,7,0.854845,0.164349,0.140493
9,12,2,8,1,2,1,C,6,S,1,S,8,0.207981,0.860353,0.178937
9,13,2,8,9,8,1,I,6,S,1,S,10,0.304168,0.87977,0.267598
9,14,2,1,8,9,1,I,1,S,1,S,13,0.854318,0.411725,0.351744
9,15,8,2,2,1,1,C,6,S,1,S,9,0.960457,0.176789,0.169798
9,16,1,9,2,8,1,C,8,L,6,S,7,0.145226,0.887974,0.128957
9,17,8,2,2,8,1,I,6,S,6,S,15,0.868923,0.53338,0.463466
9,18,8,2,9,2,1,C,6,S,7,L,8,0.968266,0.135501,0.131201
9,19,2,9,1,2,1,C,7,L,1,S,8,0.202936,0.871989,0.176958
9,20,9,8,8,9,1,I,1,S,1,S,27,0.860308,0.545237,0.469072
9,21,2,1,8,1,1,C,1,S,7,L,8,0.859482,0.21064,0.181041
9,22,2,9,9,8,1,I,7,L,1,S,10,0.298036,0.892192,0.265905
9,23,2,8,2,1,1,I,6,S,1,S,11,0.387754,0.865298,0.335523
9,24,1,9,2,9,1,C,8,L,7,L,7,0.138772,0.896236,0.124373
9,25,9,2,9,2,1,C,7,L,7,L,8,0.985103,0.123479,0.12164
9,26,1,2,1,8,1,C,1,S,7,L,8,0.199013,0.868248,0.172792
9,27,8,1,1,2,1,I,7,L,1,S,10,0.858238,0.361655,0.310386
9,28,2,8,2,9,1,C,6,S,7,L,8,0.129644,0.977237,0.126693
9,29,8,9,8,9,1,C,1,S,1,S,12,0.315929,0.871275,0.275261
9,30,9,2,2,8,1,I,7,L,6,S,14,0.863007,0.523975,0.452194
9,31,1,2,9,2,1,I,1,S,7,L,22,0.57133,0.859951,0.491316
9,32,8,9,1,8,1,C,1,S,7,L,9,0.260282,0.858846,0.223542
9,33,2,1,1,8,1,I,1,S,7,L,22,0.85325,0.586762,0.500654
9,34,8,9,9,8,1,I,1,S,1,S,20,0.528652,0.852554,0.450705
9,35,1,9,8,2,1,I,8,L,6,S,12,0.4866,0.862744,0.419811
9,36,1,9,9,1,1,I,8,L,8,L,13,0.521329,0.866117,0.451532
9,37,1,2,2,8,1,C,1,S,6,S,9,0.173613,0.95892,0.166481
9,38,2,9,2,8,1,C,7,L,6,S,8,0.131493,0.980091,0.128875
9,39,8,1,2,8,1,I,7,L,6,S,13,0.873301,0.502517,0.438849
9,40,2,9,1,9,1,C,7,L,8,L,7,0.154284,0.874218,0.134878
9,41,2,9,2,9,1,C,7,L,7,L,7,0.168766,0.851137,0.143643
9,42,2,1,1,9,1,I,1,S,8,L,22,0.850189,0.590106,0.501701
9,43,2,1,9,1,1,C,1,S,8,L,8,0.867543,0.205005,0.177851
9,44,2,1,2,9,1,I,1,S,7,L,21,0.850797,0.581389,0.494644
9,45,9,8,2,8,1,I,1,S,6,S,34,0.856551,0.576261,0.493597
9,46,2,1,1,2,1,I,1,S,1,S,16,0.850319,0.515846,0.438633
9,47,9,8,9,1,1,C,1,S,8,L,10,0.902013,0.256713,0.231559
9,48,2,8,2,8,1,C,6,S,6,S,8,0.136538,0.968455,0.132231
9,49,9,8,8,2,1,C,1,S,6,S,10,0.8669,0.28089,0.243504
9,50,2,9,1,8,1,C,7,L,7,L,7,0.159209,0.868022,0.138197
9,51,8,2,1,2,1,I,6,S,1,S,12,0.883657,0.410276,0.362543
9,52,1,9,9,8,1,I,8,L,1,S,9,0.271305,0.877174,0.237982
9,53,8,2,1,9,1,I,6,S,8,L,16,0.865846,0.556571,0.481905
9,54,1,2,8,9,1,C,1,S,1,S,10,0.268456,0.866141,0.23252
9,55,1,8,8,9,1,C,7,L,1,S,8,0.214916,0.859164,0.184648
9,56,9,8,9,2,1,C,1,S,7,L,10,0.877735,0.272983,0.239607
9,57,9,8,1,2,1,I,1,S,1,S,29,0.85076,0.563316,0.479247
9,58,9,1,9,2,1,C,8,L,7,L,7,0.891524,0.14202,0.126614
9,59,9,2,1,2,1,I,7,L,1,S,11,0.865346,0.390936,0.338295
9,60,8,2,8,2,1,C,6,S,6,S,8,0.957622,0.142926,0.13687
9,61,9,8,2,1,1,C,1,S,1,S,12,0.879924,0.306245,0.269472
9,62,1,9,8,1,1,I,8,L,7,L,13,0.514072,0.871683,0.448108
9,63,9,2,8,1,1,C,7,L,7,L,7,0.862759,0.158584,0.136819
9,64,9,2,1,9,1,I,7,L,8,L,15,0.861521,0.549931,0.473777
9,65,1,9,1,9,1,C,8,L,8,L,7,0.124291,0.919317,0.114263
9,66,8,1,1,8,1,I,7,L,7,L,13,0.855221,0.527386,0.451032
9,67,8,2,1,8,1,I,6,S,7,L,15,0.851976,0.556303,0.473956
9,68,9,1,8,1,1,C,8,L,7,L,7,0.90648,0.133348,0.120877
9,69,8,9,1,9,1,C,1,S,8,L,9,0.255035,0.865266,0.220673
9,70,8,9,2,9,1,C,1,S,7,L,10,0.23704,0.929119,0.220238
9,71,9,2,8,2,1,C,7,L,6,S,8,0.974459,0.130904,0.127561
9,72,2,1,2,1,1,C,1,S,1,S,10,0.930172,0.225944,0.210167
9,73,2,8,1,9,1,C,6,S,8,L,7,0.15852,0.863531,0.136887
9,74,8,2,8,1,1,C,6,S,7,L,8,0.984145,0.125969,0.123972
9,75,2,8,1,8,1,C,6,S,7,L,7,0.163445,0.857335,0.140127
9,76,9,8,1,8,0,I,1,S,7,L,12,0.380024,0.851553,0.323611
9,77,2,1,8,2,1,C,1,S,6,S,9,0.949271,0.185473,0.176064
9,78,2,9,8,1,1,I,7,L,7,L,14,0.545218,0.852609,0.464858
9,79,8,2,2,9,1,I,6,S,7,L,15,0.862937,0.540143,0.466109
9,80,9,2,2,1,1,C,7,L,1,S,8,0.861617,0.206728,0.17812
9,81,9,8,1,9,0,I,1,S,8,L,12,0.375061,0.857305,0.321542
9,82,9,1,2,9,1,I,8,L,7,L,12,0.850002,0.499863,0.424885
9,83,1,2,9,8,1,I,1,S,1,S,13,0.39467,0.86731,0.342302
9,84,1,2,2,9,1,C,1,S,7,L,8,0.209543,0.850326,0.17818
9,85,1,8,1,9,1,C,7,L,8,L,7,0.12727,0.910987,0.115941
9,86,1,8,2,1,1,I,7,L,1,S,10,0.344616,0.87259,0.300708
9,87,2,1,9,8,1,C,1,S,1,S,10,0.853704,0.28412,0.242554
9,88,8,1,9,2,1,C,7,L,7,L,7,0.880218,0.150083,0.132106
9,89,9,2,8,9,1,I,7,L,1,S,10,0.882974,0.30176,0.266446
9,90,9,8,2,9,0,I,1,S,7,L,14,0.426314,0.854096,0.364113
9,91,8,9,8,2,1,I,1,S,6,S,28,0.585614,0.852656,0.499327
9,92,1,9,2,1,1,I,8,L,1,S,10,0.340367,0.881873,0.300161
9,93,2,8,9,2,1,I,6,S,7,L,14,0.537284,0.850643,0.457037
9,94,2,8,8,9,1,C,6,S,1,S,9,0.215744,0.910955,0.196533
9,95,1,9,1,8,1,C,8,L,7,L,7,0.129215,0.913121,0.117989
9,96,1,9,1,2,1,C,8,L,1,S,8,0.17063,0.919524,0.156899
9,97,2,1,2,8,1,I,1,S,6,S,21,0.855062,0.576731,0.49314
9,98,1,2,2,1,1,I,1,S,1,S,16,0.500162,0.860659,0.430469
9,99,8,9,2,8,1,C,1,S,6,S,10,0.244189,0.920326,0.224734
9,100,8,1,9,8,1,C,7,L,1,S,9,0.951389,0.192234,0.182889
9,101,8,1,9,1,1,C,7,L,8,L,7,0.902891,0.136127,0.122908
9,102,2,9,8,2,1,I,7,L,6,S,14,0.521253,0.869934,0.453455
9,103,9,1,1,2,1,I,8,L,1,S,10,0.869927,0.352804,0.306914
9,104,8,1,2,9,1,I,7,L,7,L,13,0.866703,0.510181,0.442175
9,105,2,8,9,1,1,I,6,S,8,L,15,0.555563,0.856214,0.47568
9,106,1,8,9,2,1,I,7,L,7,L,13,0.50365,0.872706,0.439539
9,107,9,8,9,8,1,C,1,S,1,S,13,0.854127,0.338834,0.289407
9,108,9,8,8,1,1,C,1,S,7,L,10,0.893977,0.262591,0.23475
9,109,1,9,8,9,1,C,8,L,1,S,8,0.211404,0.868011,0.183501
9,110,1,2,8,1,1,I,1,S,7,L,22,0.582894,0.852127,0.4967
9,111,9,2,2,9,1,I,7,L,7,L,14,0.856706,0.531184,0.455069
9,112,9,1,1,9,1,I,8,L,8,L,13,0.860908,0.524539,0.451579
9,113,8,9,9,2,1,I,1,S,7,L,29,0.582657,0.857764,0.499783
9,114,9,1,1,8,1,I,8,L,7,L,13,0.865678,0.519089,0.449363
9,115,8,1,8,2,1,C,7,L,6,S,7,0.870266,0.156921,0.136563
9,116,1,8,8,1,1,I,7,L,7,L,13,0.518801,0.86242,0.447424
9,117,1,2,9,1,1,I,1,S,8,L,23,0.580855,0.857805,0.49826
9,118,9,2,9,1,1,C,7,L,8,L,7,0.870476,0.1533,0.133444
9,119,1,8,2,8,1,C,7,L,6,S,7,0.148205,0.879644,0.130367
9,120,2,9,9,2,1,I,7,L,7,L,14,0.530555,0.862665,0.457691
9,121,8,1,8,9,1,I,7,L,1,S,9,0.856529,0.286462,0.245363
9,122,8,2,9,8,1,C,6,S,1,S,9,0.898471,0.225385,0.202502
9,123,8,1,8,1,1,C,7,L,7,L,7,0.895174,0.141411,0.126587
9,124,2,8,8,2,1,I,6,S,6,S,14,0.527981,0.857912,0.452962
9,125,9,1,9,8,1,C,8,L,1,S,8,0.860983,0.217443,0.187215
9,126,9,1,8,2,1,C,8,L,6,S,7,0.881572,0.148858,0.131229
9,127,1,8,9,8,1,I,7,L,1,S,9,0.275238,0.868034,0.238916
9,128,2,9,2,1,1,I,7,L,1,S,11,0.381315,0.877763,0.334704
9,129,1,8,8,2,1,I,7,L,6,S,12,0.491231,0.85343,0.419231
9,130,1,2,1,9,1,C,1,S,8,L,8,0.193855,0.874669,0.169559
9,131,1,8,1,2,1,C,7,L,1,S,8,0.174143,0.910677,0.158588
9,132,8,1,2,1,1,C,7,L,1,S,8,0.896231,0.187551,0.168089
9,133,9,1,2,8,1,I,8,L,6,S,12,0.856859,0.49176,0.421369
9,134,1,8,9,1,1,I,7,L,8,L,13,0.526058,0.856853,0.450755
9,135,9,1,2,1,1,C,8,L,1,S,8,0.908018,0.178996,0.162532
9,136,9,1,9,1,1,C,8,L,8,L,7,0.914197,0.128065,0.117076
9,137,1,8,1,8,1,C,7,L,7,L,7,0.132194,0.904791,0.119608
9,138,9,1,8,9,1,I,8,L,1,S,9,0.868398,0.277661,0.241121
9,139,2,8,8,1,1,I,6,S,7,L,15,0.548907,0.861393,0.472825
9,140,1,8,2,9,1,C,7,L,7,L,7,0.141751,0.887906,0.125862
9,141,2,9,9,1,1,I,7,L,8,L,15,0.548869,0.868019,0.476429
9,142,1,2,8,2,1,I,1,S,6,S,21,0.571968,0.854614,0.488812
9,143,8,9,2,1,1,I,1,S,1,S,24,0.558529,0.856689,0.478485
9,144,9,2,9,8,1,C,7,L,1,S,9,0.915769,0.212793,0.194869
10,1,8,9,9,2,0,I,1,S,7,L,13,0.850629,0.406802,0.346038
10,2,8,1,2,9,1,I,7,L,7,L,12,0.851775,0.495005,0.421633
10,3,1,2,2,1,1,I,1,S,1,S,18,0.536961,0.852918,0.457984
10,4,2,8,1,9,1,C,6,S,8,L,7,0.163928,0.858071,0.140662
10,5,9,2,8,2,1,C,7,L,6,S,8,0.986619,0.124702,0.123033
10,6,8,1,9,8,1,C,7,L,1,S,9,0.9287,0.211917,0.196807
10,7,8,9,1,2,1,C,1,S,1,S,12,0.302227,0.889348,0.268785
10,8,9,1,9,1,1,C,8,L,8,L,7,0.915927,0.126878,0.116211
10,9,9,1,1,8,1,I,8,L,7,L,13,0.86736,0.518732,0.449927
10,10,9,8,8,2,1,C,1,S,6,S,10,0.901618,0.253212,0.228301
10,11,9,1,9,2,1,C,8,L,7,L,7,0.892549,0.141878,0.126633
10,12,8,2,2,1,1,C,6,S,1,S,8,0.879591,0.195028,0.171545
10,13,9,2,9,1,1,C,7,L,8,L,7,0.881832,0.14831,0.130784
10,14,9,8,1,9,1,I,1,S,8,L,32,0.856393,0.585531,0.501445
10,15,8,9,8,1,0,I,1,S,7,L,12,0.851641,0.380675,0.324199
10,16,2,8,9,8,1,I,6,S,1,S,10,0.26702,0.910216,0.243046
10,17,8,2,9,2,1,C,6,S,7,L,8,0.985194,0.125543,0.123684
10,18,1,2,2,9,1,C,1,S,7,L,9,0.201926,0.926124,0.187008
10,19,1,9,2,9,1,C,8,L,7,L,7,0.147975,0.885473,0.131028
10,20,1,8,2,1,1,I,7,L,1,S,10,0.370008,0.853658,0.31586
10,21,8,2,1,8,1,I,6,S,7,L,15,0.867776,0.545745,0.473585
10,22,1,2,1,9,1,C,1,S,8,L,9,0.180834,0.957651,0.173176
10,23,1,8,2,8,1,C,7,L,6,S,7,0.154052,0.873365,0.134544
10,24,1,2,1,2,1,C,1,S,1,S,10,0.23815,0.911885,0.217165
10,25,8,2,1,2,1,I,6,S,1,S,11,0.868411,0.390745,0.339327
10,26,1,8,9,1,1,I,7,L,8,L,13,0.52817,0.855256,0.451721
10,27,8,2,9,1,1,C,6,S,8,L,7,0.871142,0.154435,0.134535
10,28,8,1,1,8,1,I,7,L,7,L,13,0.85887,0.524287,0.450295
10,29,8,1,8,9,1,I,7,L,1,S,9,0.884427,0.257074,0.227363
10,30,1,9,9,8,1,I,8,L,1,S,9,0.244611,0.900257,0.220213
10,31,9,2,1,8,1,I,7,L,7,L,14,0.857948,0.541411,0.464503
10,32,9,2,2,8,1,I,7,L,6,S,13,0.855251,0.513338,0.439033
10,33,9,8,2,1,1,C,1,S,1,S,11,0.876547,0.290263,0.254429
10,34,9,8,2,8,1,I,1,S,6,S,30,0.855033,0.57949,0.495482
10,35,2,9,8,2,1,I,7,L,6,S,14,0.519324,0.869773,0.451694
10,36,9,1,2,9,1,I,8,L,7,L,12,0.860478,0.489386,0.421106
10,37,9,1,8,2,1,C,8,L,6,S,7,0.883245,0.147218,0.13003
10,38,9,2,2,9,1,I,7,L,7,L,13,0.853895,0.515878,0.440506
10,39,9,2,8,1,1,C,7,L,7,L,7,0.874477,0.152384,0.133256
10,40,8,1,2,8,1,I,7,L,6,S,12,0.853107,0.492437,0.420102
10,41,2,8,8,2,1,I,6,S,6,S,14,0.528453,0.856184,0.452453
10,42,8,9,8,9,1,C,1,S,1,S,14,0.339949,0.870547,0.295942
10,43,2,9,9,2,1,I,7,L,7,L,14,0.528729,0.863329,0.456467
10,44,2,8,2,8,1,C,6,S,6,S,8,0.140664,0.962585,0.135401
10,45,1,2,9,8,1,I,1,S,1,S,13,0.345427,0.893349,0.308587
10,46,2,8,8,1,1,I,6,S,7,L,15,0.549357,0.85939,0.472112
10,47,9,8,9,8,1,C,1,S,1,S,14,0.920105,0.302759,0.27857
10,48,1,8,1,8,1,C,7,L,7,L,7,0.135339,0.902937,0.122202
10,49,2,8,8,9,1,C,6,S,1,S,9,0.240077,0.883925,0.21221
10,50,1,8,1,2,1,C,7,L,1,S,8,0.178968,0.90697,0.162318
10,51,2,1,8,9,1,I,1,S,1,S,12,0.866352,0.353765,0.306485
10,52,1,8,2,9,1,C,7,L,7,L,7,0.153237,0.875556,0.134168
10,53,9,8,9,1,1,C,1,S,8,L,9,0.851823,0.261779,0.22299
10,54,9,8,8,1,1,C,1,S,7,L,10,0.929102,0.234192,0.217588
10,55,1,9,8,9,1,C,8,L,1,S,9,0.200338,0.945415,0.189403
10,56,8,1,9,1,1,C,7,L,8,L,7,0.907485,0.131563,0.119391
10,57,2,1,1,9,1,I,1,S,8,L,22,0.854275,0.586777,0.501269
10,58,2,8,2,1,1,I,6,S,1,S,12,0.41948,0.88045,0.369332
10,59,1,8,1,9,1,C,7,L,8,L,7,0.134743,0.904694,0.121902
10,60,8,2,8,2,1,C,6,S,6,S,8,0.975165,0.131497,0.128232
10,61,2,9,2,9,1,C,7,L,7,L,8,0.131427,0.979282,0.128704
10,62,1,9,1,8,1,C,8,L,7,L,7,0.130077,0.912854,0.118741
10,63,8,1,2,1,1,C,7,L,1,S,8,0.918081,0.170168,0.156228
10,64,2,1,9,1,1,C,1,S,8,L,8,0.871546,0.201149,0.175311
10,65,8,9,2,8,1,C,1,S,6,S,10,0.284441,0.865984,0.246322
10,66,8,2,1,9,1,I,6,S,8,L,15,0.866769,0.547686,0.474718
10,67,2,1,9,2,1,C,1,S,7,L,9,0.964334,0.174356,0.168138
10,68,2,1,8,1,1,C,1,S,7,L,8,0.863794,0.205621,0.177614
10,69,9,1,1,2,1,I,8,L,1,S,10,0.87351,0.350784,0.306413
10,70,1,8,8,1,1,I,7,L,7,L,13,0.520724,0.860134,0.447892
10,71,8,9,2,1,1,I,1,S,1,S,29,0.567174,0.850354,0.482298
10,72,1,2,8,2,1,I,1,S,6,S,22,0.579259,0.851198,0.493065
10,73,1,9,2,1,1,I,8,L,1,S,10,0.363636,0.864311,0.314295
10,74,2,1,9,8,1,C,1,S,1,S,11,0.900969,0.277404,0.249932
10,75,8,1,8,1,1,C,7,L,7,L,7,0.900129,0.135637,0.122091
10,76,1,2,1,8,1,C,1,S,7,L,9,0.181639,0.955713,0.173595
10,77,8,9,1,9,1,C,1,S,8,L,10,0.261677,0.899932,0.235491
10,78,9,8,2,9,1,I,1,S,7,L,30,0.853903,0.581582,0.496615
10,79,9,1,2,1,1,C,8,L,1,S,8,0.926943,0.165045,0.152987
10,80,9,2,1,9,1,I,7,L,8,L,14,0.856948,0.543368,0.465639
10,81,2,9,1,8,1,C,7,L,7,L,7,0.157178,0.869531,0.136671
10,82,2,1,2,9,1,I,1,S,7,L,21,0.858512,0.573524,0.492377
10,83,8,2,9,8,1,C,6,S,1,S,9,0.889446,0.237988,0.211677
10,84,8,9,8,2,1,I,1,S,6,S,33,0.57863,0.854972,0.494712
10,85,2,8,2,9,1,C,6,S,7,L,8,0.139679,0.964977,0.134787
10,86,2,8,1,2,1,C,6,S,1,S,8,0.210863,0.857302,0.180773
10,87,9,8,9,2,1,C,1,S,7,L,10,0.912032,0.246609,0.224915
10,88,1,8,8,2,1,I,7,L,6,S,12,0.493188,0.851357,0.419879
10,89,8,1,9,2,1,C,7,L,7,L,7,0.884106,0.146563,0.129577
10,90,2,1,1,2,1,I,1,S,1,S,16,0.855876,0.511219,0.43754
10,91,8,2,2,8,1,I,6,S,6,S,14,0.867869,0.520518,0.451741
10,92,1,9,1,2,1,C,8,L,1,S,8,0.17317,0.917405,0.158867
10,93,2,8,9,2,1,I,6,S,7,L,15,0.535312,0.870353,0.46591
10,94,9,8,1,2,1,I,1,S,1,S,26,0.85779,0.557454,0.478178
10,95,9,1,9,8,1,C,8,L,1,S,9,0.937721,0.206508,0.193647
10,96,1,8,9,8,1,I,7,L,1,S,9,0.25077,0.889611,0.223088
10,97,2,1,2,1,1,C,1,S,1,S,10,0.95833,0.204751,0.196219
10,98,1,2,9,2,1,I,1,S,7,L,23,0.578284,0.857236,0.495726
10,99,2,8,9,1,1,I,6,S,8,L,15,0.556397,0.854709,0.475557
10,100,9,8,8,9,1,I,1,S,1,S,19,0.855698,0.492838,0.42172
10,101,2,9,1,2,1,C,7,L,1,S,8,0.202612,0.871606,0.176597
10,102,9,1,1,9,1,I,8,L,8,L,13,0.866373,0.520703,0.451123
10,103,8,1,1,9,1,I,7,L,8,L,13,0.857884,0.526258,0.451469
10,104,8,9,9,1,0,I,1,S,8,L,12,0.85928,0.375741,0.322867
10,105,9,8,1,8,1,I,1,S,7,L,31,0.85044,0.590217,0.501944
10,106,9,2,9,8,1,C,7,L,1,S,9,0.901236,0.230747,0.207958
10,107,2,1,2,8,1,I,1,S,6,S,21,0.85977,0.571276,0.491166
10,108,1,2,9,1,1,I,1,S,8,L,24,0.586398,0.855565,0.501702
10,109,9,2,8,9,1,I,7,L,1,S,9,0.856963,0.275904,0.23644
10,110,1,9,2,8,1,C,8,L,6,S,7,0.14879,0.883281,0.131424
10,111,2,8,1,8,1,C,6,S,7,L,7,0.164523,0.856313,0.140884
10,112,2,9,2,1,1,I,7,L,1,S,11,0.403386,0.860479,0.347105
10,113,2,9,2,8,1,C,7,L,6,S,8,0.132412,0.976889,0.129352
10,114,1,9,8,2,1,I,8,L,6,S,12,0.486709,0.861695,0.419395
10,115,1,9,9,1,1,I,8,L,8,L,13,0.521744,0.865361,0.451497
10,116,9,2,9,2,1,C,7,L,7,L,7,0.858454,0.16331,0.140194
10,117,1,8,9,2,1,I,7,L,7,L,13,0.505321,0.871944,0.440612
10,118,2,1,8,2,1,C,1,S,6,S,9,0.953973,0.180722,0.172404
10,119,1,9,9,2,1,I,8,L,7,L,12,0.496748,0.85501,0.424725
10,120,1,8,8,9,1,C,7,L,1,S,9,0.206497,0.934769,0.193027
10,121,8,1,8,2,1,C,7,L,6,S,7,0.874803,0.151904,0.132886
10,122,9,2,1,2,1,I,7,L,1,S,11,0.880078,0.383154,0.337205
10,123,8,2,8,1,1,C,6,S,7,L,7,0.863787,0.158509,0.136918
10,124,1,9,8,1,1,I,8,L,7,L,13,0.514298,0.870239,0.447562
10,125,9,1,2,8,1,I,8,L,6,S,12,0.86181,0.486817,0.419544
10,126,8,1,1,2,1,I,7,L,1,S,10,0.864503,0.356353,0.308068
10,127,8,9,2,9,1,C,1,S,7,L,10,0.283222,0.86855,0.245992
10,128,9,1,8,1,1,C,8,L,7,L,7,0.908571,0.130952,0.118979
10,129,2,9,8,1,1,I,7,L,7,L,14,0.543448,0.851924,0.462976
10,130,1,2,2,8,1,C,1,S,6,S,9,0.203046,0.923615,0.187536
10,131,1,2,8,9,1,C,1,S,1,S,11,0.290082,0.880505,0.255419
10,132,8,2,2,9,1,I,6,S,7,L,14,0.866504,0.523022,0.453201
10,133,2,9,8,9,1,C,7,L,1,S,9,0.231202,0.898749,0.207793
10,134,8,9,1,8,1,C,1,S,7,L,10,0.262553,0.89796,0.235762
10,135,2,9,9,1,1,I,7,L,8,L,15,0.547509,0.867834,0.475147
10,136,1,9,1,9,1,C,8,L,8,L,7,0.129481,0.914611,0.118425
10,137,2,9,9,8,1,I,7,L,1,S,9,0.275476,0.853592,0.235144
10,138,1,2,8,1,1,I,1,S,7,L,24,0.580633,0.85928,0.498927
10,139,8,9,9,8,1,I,1,S,1,S,22,0.50967,0.858999,0.437806
10,140,9,1,8,9,1,I,8,L,1,S,9,0.893448,0.251665,0.22485
10,141,2,1,1,8,1,I,1,S,7,L,22,0.855251,0.584936,0.500267
10,142,8,2,8,9,1,I,6,S,1,S,10,0.913771,0.269048,0.245848
10,143,2,9,1,9,1,C,7,L,8,L,7,0.156583,0.871289,0.136429
10,144,9,2,2,1,1,C,7,L,1,S,8,0.891045,0.188232,0.167724
11,1,9,2,8,9,1,I,7,L,1,S,10,0.851378,0.344232,0.293072
11,2,8,9,1,9,1,C,1,S,8,L,10,0.254511,0.908675,0.231268
11,3,2,8,8,9,1,C,6,S,1,S,9,0.186755,0.948484,0.177134
11,4,9,8,8,1,1,C,1,S,7,L,10,0.886519,0.265273,0.235169
11,5,8,2,1,8,1,I,6,S,7,L,15,0.858616,0.549707,0.471987
11,6,9,2,1,2,1,I,7,L,1,S,11,0.859436,0.398455,0.342446
11,7,1,2,2,1,1,I,1,S,1,S,16,0.503174,0.859756,0.432607
11,8,9,2,2,8,1,I,7,L,6,S,14,0.863785,0.521016,0.450046
11,9,9,2,9,2,1,C,7,L,7,L,8,0.971804,0.134028,0.130249
11,10,2,1,9,8,1,C,1,S,1,S,11,0.853971,0.308378,0.263346
11,11,9,8,8,2,1,C,1,S,6,S,11,0.921049,0.2602,0.239657
11,12,9,8,1,9,0,I,1,S,8,L,12,0.372165,0.85814,0.319369
11,13,2,8,2,9,1,C,6,S,7,L,8,0.123523,0.984824,0.121649
11,14,9,1,8,1,1,C,8,L,7,L,7,0.896093,0.137935,0.123603
11,15,9,1,8,9,1,I,8,L,1,S,10,0.89441,0.314788,0.281549
11,16,2,1,2,9,1,I,1,S,7,L,24,0.855647,0.579469,0.495821
11,17,1,2,9,8,1,I,1,S,1,S,12,0.350278,0.867682,0.30393
11,18,9,2,1,9,1,I,7,L,8,L,15,0.861731,0.551306,0.475078
11,19,8,9,2,8,1,C,1,S,6,S,10,0.278055,0.871635,0.242362
11,20,1,2,8,9,1,C,1,S,1,S,10,0.247457,0.901702,0.223132
11,21,2,8,9,1,1,I,6,S,8,L,15,0.54915,0.862723,0.473764
11,22,8,2,2,1,1,C,6,S,1,S,9,0.963982,0.172871,0.166644
11,23,2,9,1,8,1,C,7,L,7,L,7,0.158634,0.864666,0.137165
11,24,9,8,9,2,1,C,1,S,7,L,10,0.863952,0.281397,0.243113
11,25,1,9,8,1,1,I,8,L,7,L,13,0.514748,0.866671,0.446117
11,26,2,8,2,8,1,C,6,S,6,S,8,0.131849,0.970909,0.128013
11,27,9,1,2,1,1,C,8,L,1,S,8,0.902548,0.178473,0.16108
11,28,9,2,2,1,1,C,7,L,1,S,8,0.860212,0.205931,0.177144
11,29,1,2,1,2,1,C,1,S,1,S,10,0.212501,0.948054,0.201462
11,30,1,9,1,2,1,C,8,L,1,S,8,0.173268,0.914394,0.158435
11,31,1,8,1,2,1,C,7,L,1,S,8,0.175641,0.90851,0.159571
11,32,8,2,1,9,1,I,6,S,8,L,15,0.851856,0.559689,0.476774
11,33,8,2,8,9,1,I,6,S,1,S,11,0.885269,0.357488,0.316473
11,34,1,2,2,9,1,C,1,S,7,L,9,0.173803,0.965228,0.167759
11,35,9,1,9,8,1,C,8,L,1,S,9,0.933432,0.206169,0.192445
11,36,9,2,9,1,1,C,7,L,8,L,7,0.866253,0.157569,0.136494
11,37,1,8,8,2,1,I,7,L,6,S,12,0.479924,0.858979,0.412245
11,38,1,8,2,8,1,C,7,L,6,S,7,0.152483,0.870874,0.132793
11,39,2,8,9,8,1,I,6,S,1,S,10,0.267332,0.911487,0.24367
11,40,8,1,2,9,1,I,7,L,7,L,13,0.862445,0.512856,0.44231
11,41,1,9,8,2,1,I,8,L,6,S,12,0.47681,0.865162,0.412518
11,42,8,2,8,2,1,C,6,S,6,S,8,0.944525,0.152273,0.143826
11,43,1,8,2,1,1,I,7,L,1,S,10,0.350452,0.863143,0.30249
11,44,1,8,9,8,1,I,7,L,1,S,9,0.256705,0.881544,0.226297
11,45,9,8,8,9,1,I,1,S,1,S,29,0.859069,0.551374,0.473669
11,46,8,9,9,1,0,I,1,S,8,L,13,0.861643,0.406095,0.349909
11,47,8,9,9,8,1,I,1,S,1,S,22,0.519537,0.856151,0.444802
11,48,2,1,8,2,1,C,1,S,6,S,9,0.891035,0.224586,0.200114
11,49,8,9,2,1,1,I,1,S,1,S,28,0.556048,0.857306,0.476704
11,50,9,1,8,2,1,C,8,L,6,S,7,0.861544,0.159858,0.137724
11,51,1,8,2,9,1,C,7,L,7,L,7,0.144982,0.883819,0.128138
11,52,9,2,8,1,1,C,7,L,7,L,7,0.856185,0.163175,0.139708
11,53,8,2,8,1,1,C,6,S,7,L,8,0.981668,0.128184,0.125834
11,54,2,1,9,1,1,C,1,S,8,L,9,0.940115,0.192609,0.181075
11,55,8,1,8,2,1,C,7,L,6,S,7,0.853209,0.166143,0.141755
11,56,2,1,2,1,1,C,1,S,1,S,10,0.883643,0.255029,0.225355
11,57,2,9,2,8,1,C,7,L,6,S,8,0.128746,0.978163,0.125935
11,58,2,8,8,2,1,I,6,S,6,S,14,0.508633,0.873352,0.444216
11,59,9,8,1,8,0,I,1,S,7,L,13,0.393167,0.862048,0.338929
11,60,1,9,2,8,1,C,8,L,6,S,7,0.150471,0.8764,0.131873
11,61,1,9,2,1,1,I,8,L,1,S,10,0.347585,0.869321,0.302163
11,62,8,1,9,8,1,C,7,L,1,S,9,0.924698,0.212969,0.196932
11,63,9,1,2,8,1,I,8,L,6,S,12,0.851875,0.490827,0.418124
11,64,9,8,9,8,1,C,1,S,1,S,14,0.856513,0.345018,0.295513
11,65,1,2,8,2,1,I,1,S,6,S,20,0.56883,0.855176,0.48645
11,66,9,1,9,2,1,C,8,L,7,L,7,0.875216,0.151891,0.132938
11,67,2,8,8,1,1,I,6,S,7,L,15,0.53951,0.869161,0.468921
11,68,2,9,1,9,1,C,7,L,8,L,7,0.152632,0.875206,0.133585
11,69,2,1,2,8,1,I,1,S,6,S,23,0.851758,0.577997,0.492314
11,70,2,1,1,8,1,I,1,S,7,L,24,0.850442,0.58727,0.499439
11,71,9,2,1,8,1,I,7,L,7,L,15,0.868492,0.541324,0.470135
11,72,8,9,1,8,1,C,1,S,7,L,10,0.261634,0.897379,0.234785
11,73,2,9,8,2,1,I,7,L,6,S,13,0.504333,0.857374,0.432402
11,74,8,1,8,1,1,C,7,L,7,L,7,0.887758,0.144221,0.128033
11,75,2,1,8,9,1,I,1,S,1,S,17,0.859079,0.50612,0.434797
11,76,1,8,8,1,1,I,7,L,7,L,13,0.517923,0.860531,0.445689
11,77,2,9,8,1,1,I,7,L,7,L,14,0.538173,0.856119,0.46074
11,78,1,9,9,8,1,I,8,L,1,S,9,0.254049,0.887629,0.225501
11,79,9,8,2,1,1,C,1,S,1,S,12,0.876597,0.304153,0.26662
11,80,8,1,8,9,1,I,7,L,1,S,10,0.885837,0.321597,0.284883
11,81,8,2,2,8,1,I,6,S,6,S,14,0.853291,0.529819,0.45209
11,82,1,9,9,1,1,I,8,L,8,L,13,0.524956,0.859956,0.451439
11,83,9,1,9,1,1,C,8,L,8,L,7,0.906161,0.132329,0.119912
11,84,2,9,9,8,1,I,7,L,1,S,10,0.263558,0.919221,0.242268
11,85,9,8,1,2,1,I,1,S,1,S,30,0.856038,0.556909,0.476735
11,86,8,1,9,2,1,C,7,L,7,L,7,0.866881,0.158177,0.13712
11,87,1,9,1,9,1,C,8,L,8,L,7,0.130941,0.910307,0.119196
11,88,9,8,2,9,0,I,1,S,7,L,13,0.400339,0.851458,0.340872
11,89,9,1,1,8,1,I,8,L,7,L,13,0.862828,0.517145,0.446207
11,90,1,8,8,9,1,C,7,L,1,S,8,0.20119,0.876674,0.176378
11,91,1,2,8,1,1,I,1,S,7,L,22,0.578289,0.860197,0.497442
11,92,2,8,1,8,1,C,6,S,7,L,7,0.161239,0.857987,0.138341
11,93,2,1,8,1,1,C,1,S,7,L,9,0.929266,0.199128,0.185043
11,94,1,2,1,9,1,C,1,S,8,L,8,0.203396,0.870356,0.177027
11,95,8,1,2,1,1,C,7,L,1,S,8,0.893858,0.185112,0.165464
11,96,2,1,1,2,1,I,1,S,1,S,19,0.857045,0.537587,0.460737
11,97,1,9,8,9,1,C,8,L,1,S,8,0.198817,0.882558,0.175468
11,98,1,8,1,8,1,C,7,L,7,L,7,0.138954,0.89424,0.124259
11,99,2,1,9,2,1,C,1,S,7,L,9,0.90657,0.214959,0.194875
11,100,9,1,1,9,1,I,8,L,8,L,13,0.855758,0.527737,0.451616
11,101,2,8,2,1,1,I,6,S,1,S,11,0.383679,0.867592,0.332877
11,102,2,9,1,2,1,C,7,L,1,S,8,0.196887,0.877239,0.172717
11,103,1,2,9,1,1,I,1,S,8,L,22,0.58641,0.854876,0.501308
11,104,1,8,1,9,1,C,7,L,8,L,7,0.132953,0.904781,0.120293
11,105,2,9,9,1,1,I,7,L,8,L,15,0.545002,0.870111,0.474212
11,106,9,1,1,2,1,I,8,L,1,S,10,0.859454,0.36114,0.310383
11,107,8,9,1,2,1,C,1,S,1,S,12,0.288759,0.906212,0.261677
11,108,8,1,1,9,1,I,7,L,8,L,14,0.871686,0.532885,0.464509
11,109,1,2,2,8,1,C,1,S,6,S,9,0.182678,0.950877,0.173704
11,110,2,8,9,2,1,I,6,S,7,L,14,0.52277,0.863546,0.451436
11,111,8,1,1,2,1,I,7,L,1,S,10,0.850881,0.36795,0.313081
11,112,8,1,1,8,1,I,7,L,7,L,13,0.855274,0.523445,0.447689
11,113,9,2,9,8,1,C,7,L,1,S,9,0.890217,0.234979,0.209183
11,114,8,2,2,9,1,I,6,S,7,L,15,0.865445,0.539788,0.467157
11,115,1,2,1,8,1,C,1,S,7,L,8,0.209957,0.859254,0.180407
11,116,1,2,9,2,1,I,1,S,7,L,21,0.571945,0.859869,0.491798
11,117,2,1,1,9,1,I,1,S,8,L,25,0.854639,0.587488,0.502091
11,118,8,1,2,8,1,I,7,L,6,S,13,0.871603,0.499389,0.435269
11,119,2,8,1,9,1,C,6,S,8,L,7,0.155237,0.868528,0.134828
11,120,2,9,8,9,1,C,7,L,1,S,9,0.183265,0.956066,0.175214
11,121,8,9,8,9,1,C,1,S,1,S,12,0.328687,0.853414,0.280506
11,122,8,9,8,2,1,I,1,S,6,S,31,0.57994,0.851239,0.493668
11,123,9,2,8,2,1,C,7,L,6,S,8,0.956883,0.142981,0.136816
11,124,1,9,9,2,1,I,8,L,7,L,12,0.491954,0.854981,0.420611
11,125,2,8,1,2,1,C,6,S,1,S,8,0.199989,0.869985,0.173988
11,126,8,9,8,1,0,I,1,S,7,L,13,0.851435,0.41281,0.351481
11,127,9,1,2,9,1,I,8,L,7,L,13,0.87,0.506555,0.440703
11,128,2,9,2,1,1,I,7,L,1,S,11,0.379711,0.875356,0.332383
11,129,1,8,9,2,1,I,7,L,7,L,13,0.497464,0.87598,0.435768
11,130,1,9,1,8,1,C,8,L,7,L,7,0.136943,0.899767,0.123216
11,131,1,8,9,1,1,I,7,L,8,L,13,0.528131,0.853816,0.450927
11,132,8,2,9,2,1,C,6,S,7,L,8,0.959446,0.14332,0.137507
11,133,9,8,2,8,1,I,1,S,6,S,34,0.855386,0.572617,0.489809
11,134,8,1,9,1,1,C,7,L,8,L,7,0.897826,0.138615,0.124452
11,135,1,9,2,9,1,C,8,L,7,L,7,0.14297,0.889346,0.12715
11,136,9,8,9,1,1,C,1,S,8,L,10,0.897365,0.258548,0.232012
11,137,8,9,9,2,1,I,1,S,7,L,32,0.580755,0.85414,0.496046
11,138,2,9,9,2,1,I,7,L,7,L,14,0.518607,0.871059,0.451737
11,139,9,2,2,9,1,I,7,L,7,L,14,0.854831,0.53403,0.456505
11,140,8,2,9,1,1,C,6,S,8,L,7,0.854769,0.166157,0.142026
11,141,8,2,9,8,1,C,6,S,1,S,9,0.87755,0.244659,0.214701
11,142,8,2,1,2,1,I,6,S,1,S,12,0.882485,0.414497,0.365787
11,143,8,9,2,9,1,C,1,S,7,L,10,0.268865,0.886044,0.238226
11,144,2,9,2,9,1,C,7,L,7,L,7,0.164661,0.854245,0.140661
12,1,2,8,2,1,1,I,6,S,1,S,12,0.44277,0.867432,0.384073
12,2,8,9,1,9,1,C,1,S,8,L,10,0.253542,0.906987,0.229959
12,3,9,2,1,9,1,I,7,L,8,L,14,0.852798,0.543792,0.463745
12,4,1,2,1,9,1,C,1,S,8,L,9,0.180552,0.952646,0.172002
12,5,2,8,9,1,1,I,6,S,8,L,15,0.55273,0.860418,0.475579
12,6,2,1,2,8,1,I,1,S,6,S,23,0.858491,0.57097,0.490173
12,7,2,1,8,9,1,I,1,S,1,S,13,0.857393,0.386903,0.331728
12,8,1,8,2,1,1,I,7,L,1,S,11,0.404618,0.878607,0.3555
12,9,8,9,9,8,1,I,1,S,1,S,23,0.535372,0.852575,0.456445
12,10,2,9,1,9,1,C,7,L,8,L,7,0.154036,0.869324,0.133907
12,11,2,8,8,2,1,I,6,S,6,S,14,0.526264,0.861864,0.453568
12,12,1,8,9,2,1,I,7,L,7,L,13,0.501699,0.876168,0.439573
12,13,8,2,9,8,1,C,6,S,1,S,9,0.902628,0.227195,0.205073
12,14,8,1,8,1,1,C,7,L,7,L,7,0.900125,0.135621,0.122076
12,15,8,1,9,8,1,C,7,L,1,S,9,0.934281,0.205568,0.192059
12,16,9,1,1,2,1,I,8,L,1,S,10,0.870344,0.342769,0.298327
12,17,1,2,8,2,1,I,1,S,6,S,23,0.577413,0.853715,0.492946
12,18,8,9,2,8,1,C,1,S,6,S,10,0.282548,0.866386,0.244795
12,19,8,9,8,2,1,I,1,S,6,S,32,0.583512,0.850441,0.496242
12,20,2,1,8,1,1,C,1,S,7,L,9,0.955035,0.177699,0.169708
12,21,9,8,2,9,0,I,1,S,7,L,13,0.386475,0.863177,0.333596
12,22,2,8,2,9,1,C,6,S,7,L,8,0.134474,0.972884,0.130828
12,23,9,2,9,8,1,C,7,L,1,S,9,0.910004,0.220783,0.200913
12,24,8,2,8,1,1,C,6,S,7,L,7,0.870824,0.1547,0.134716
12,25,1,9,8,1,1,I,8,L,7,L,13,0.521629,0.861434,0.449349
12,26,8,2,1,2,1,I,6,S,1,S,11,0.877487,0.376264,0.330167
12,27,8,2,9,1,1,C,6,S,8,L,7,0.874855,0.151953,0.132937
12,28,1,8,8,1,1,I,7,L,7,L,13,0.523649,0.860116,0.450399
12,29,1,9,8,9,1,C,8,L,1,S,9,0.196516,0.947076,0.186116
12,30,9,1,1,8,1,I,8,L,7,L,13,0.859791,0.519777,0.4469
12,31,9,1,2,1,1,C,8,L,1,S,8,0.940014,0.152938,0.143764
12,32,1,2,9,8,1,I,1,S,1,S,13,0.385923,0.857202,0.330814
12,33,2,9,2,9,1,C,7,L,7,L,8,0.130775,0.9763,0.127675
12,34,1,2,2,1,1,I,1,S,1,S,20,0.547408,0.858583,0.469996
12,35,1,2,8,1,1,I,1,S,7,L,25,0.581054,0.858651,0.498922
12,36,9,8,9,8,1,C,1,S,1,S,14,0.85195,0.353734,0.301364
12,37,1,9,1,9,1,C,8,L,8,L,7,0.128167,0.910957,0.116755
12,38,9,2,2,9,1,I,7,L,7,L,13,0.850742,0.516194,0.439148
12,39,1,8,9,8,1,I,7,L,1,S,9,0.259717,0.883737,0.229521
12,40,1,9,1,8,1,C,8,L,7,L,7,0.131676,0.905349,0.119213
12,41,2,1,9,1,1,C,1,S,8,L,9,0.959267,0.174683,0.167568
12,42,9,2,8,1,1,C,7,L,7,L,7,0.87775,0.148751,0.130566
12,43,2,9,9,8,1,I,7,L,1,S,10,0.274171,0.908169,0.248993
12,44,2,8,1,9,1,C,6,S,8,L,7,0.157608,0.866069,0.136499
12,45,2,9,8,2,1,I,7,L,6,S,14,0.523394,0.864058,0.452243
12,46,9,2,2,1,1,C,7,L,1,S,8,0.910734,0.172259,0.156882
12,47,2,8,9,8,1,I,6,S,1,S,10,0.277799,0.904921,0.251386
12,48,8,1,1,9,1,I,7,L,8,L,13,0.85142,0.5296,0.450912
12,49,8,9,8,1,0,I,1,S,7,L,13,0.858113,0.407732,0.34988
12,50,8,1,2,1,1,C,7,L,1,S,8,0.934472,0.157861,0.147517
12,51,1,8,9,1,1,I,7,L,8,L,13,0.52743,0.85723,0.452129
12,52,8,9,9,1,0,I,1,S,8,L,12,0.850063,0.387067,0.329031
12,53,1,8,1,9,1,C,7,L,8,L,7,0.130754,0.908879,0.118839
12,54,1,9,9,8,1,I,8,L,1,S,9,0.257165,0.885745,0.227783
12,55,2,1,2,9,1,I,1,S,7,L,23,0.854637,0.576167,0.492414
12,56,8,9,2,9,1,C,1,S,7,L,10,0.276504,0.875099,0.241968
12,57,9,2,8,9,1,I,7,L,1,S,10,0.916346,0.269925,0.247344
12,58,1,2,9,2,1,I,1,S,7,L,23,0.580801,0.851061,0.494297
12,59,2,1,8,2,1,C,1,S,6,S,9,0.92491,0.198298,0.183408
12,60,8,2,2,9,1,I,6,S,7,L,14,0.86831,0.521638,0.452944
12,61,8,2,2,1,1,C,6,S,1,S,8,0.903418,0.178539,0.161296
12,62,9,1,8,2,1,C,8,L,6,S,7,0.877571,0.149074,0.130823
12,63,2,9,2,8,1,C,7,L,6,S,8,0.136322,0.967886,0.131944
12,64,8,1,9,2,1,C,7,L,7,L,7,0.877666,0.150057,0.1317
12,65,1,9,1,2,1,C,8,L,1,S,8,0.177829,0.904479,0.160842
12,66,9,8,2,8,0,I,1,S,6,S,13,0.392349,0.855209,0.335541
12,67,9,1,9,8,1,C,8,L,1,S,9,0.939788,0.200604,0.188525
12,68,2,9,8,1,1,I,7,L,7,L,15,0.546604,0.865027,0.472828
12,69,9,2,9,1,1,C,7,L,8,L,7,0.881781,0.146004,0.128744
12,70,2,9,9,1,1,I,7,L,8,L,15,0.550083,0.862337,0.474356
12,71,9,2,1,8,1,I,7,L,7,L,14,0.856595,0.538524,0.461297
12,72,1,9,9,1,1,I,8,L,8,L,13,0.52541,0.858549,0.45109
12,73,1,9,8,2,1,I,8,L,6,S,12,0.491796,0.85479,0.420382
12,74,8,2,1,8,1,I,6,S,7,L,14,0.850927,0.543979,0.462886
12,75,9,2,9,2,1,C,7,L,7,L,7,0.855291,0.163187,0.139572
12,76,8,9,1,8,1,C,1,S,7,L,10,0.257569,0.901058,0.232084
12,77,1,8,8,2,1,I,7,L,6,S,12,0.493972,0.853282,0.421497
12,78,1,8,1,2,1,C,7,L,1,S,8,0.180432,0.902389,0.16282
12,79,1,8,1,8,1,C,7,L,7,L,7,0.134262,0.90327,0.121275
12,80,2,8,8,9,1,C,6,S,1,S,9,0.229745,0.898746,0.206483
12,81,2,8,1,8,1,C,6,S,7,L,7,0.161117,0.860461,0.138635
12,82,2,9,2,1,1,I,7,L,1,S,12,0.439471,0.870191,0.382424
12,83,2,1,9,2,1,C,1,S,7,L,9,0.930886,0.19403,0.18062
12,84,9,1,8,1,1,C,8,L,7,L,7,0.905492,0.130878,0.118509
12,85,2,9,8,9,1,C,7,L,1,S,9,0.226037,0.902139,0.203917
12,86,9,1,2,8,1,I,8,L,6,S,12,0.856976,0.485418,0.415991
12,87,1,9,2,9,1,C,8,L,7,L,7,0.148254,0.881144,0.130633
12,88,9,2,8,2,1,C,7,L,6,S,8,0.987318,0.123004,0.121444
12,89,2,1,9,8,1,C,1,S,1,S,11,0.884955,0.28278,0.250248
12,90,9,8,8,1,1,C,1,S,7,L,10,0.887387,0.270262,0.239827
12,91,1,8,2,8,1,C,7,L,6,S,7,0.155864,0.871299,0.135804
12,92,1,2,9,1,1,I,1,S,8,L,25,0.583565,0.856765,0.499978
12,93,2,1,1,8,1,I,1,S,7,L,24,0.852592,0.583711,0.497667
12,94,8,9,1,2,1,C,1,S,1,S,12,0.299107,0.888248,0.265681
12,95,1,2,2,9,1,C,1,S,7,L,9,0.203155,0.920509,0.187006
12,96,8,1,2,8,1,I,7,L,6,S,12,0.852193,0.489997,0.417572
12,97,2,1,1,9,1,I,1,S,8,L,25,0.858459,0.580565,0.498391
12,98,8,2,1,9,1,I,6,S,8,L,15,0.867756,0.546148,0.473923
12,99,8,1,1,2,1,I,7,L,1,S,10,0.86501,0.347671,0.300738
12,100,9,8,1,8,0,I,1,S,7,L,12,0.359582,0.868437,0.312274
12,101,1,8,2,9,1,C,7,L,7,L,7,0.15084,0.879065,0.132598
12,102,8,1,8,9,1,I,7,L,1,S,9,0.873632,0.266899,0.233172
12,103,2,8,9,2,1,I,6,S,7,L,14,0.531363,0.857873,0.455842
12,104,1,2,8,9,1,C,1,S,1,S,11,0.28423,0.88465,0.251444
12,105,1,9,9,2,1,I,8,L,7,L,12,0.497388,0.850533,0.423045
12,106,2,8,2,8,1,C,6,S,6,S,8,0.140022,0.964471,0.135047
12,107,8,9,9,2,1,I,1,S,7,L,33,0.579106,0.855979,0.495702
12,108,9,8,1,2,1,I,1,S,1,S,30,0.852412,0.56052,0.477793
12,109,9,8,8,9,1,I,1,S,1,S,27,0.859253,0.545302,0.468553
12,110,1,2,1,8,1,C,1,S,7,L,9,0.184504,0.946675,0.174666
12,111,9,1,9,2,1,C,8,L,7,L,7,0.883033,0.145314,0.128317
12,112,1,9,2,1,1,I,8,L,1,S,11,0.402294,0.880303,0.354141
12,113,1,2,1,2,1,C,1,S,1,S,10,0.246305,0.893666,0.220114
12,114,9,8,2,1,1,C,1,S,1,S,12,0.910794,0.28682,0.261234
12,115,1,9,2,8,1,C,8,L,6,S,7,0.153278,0.873378,0.13387
12,116,2,1,1,2,1,I,1,S,1,S,18,0.863882,0.516385,0.446096
12,117,9,1,2,9,1,I,8,L,7,L,12,0.850964,0.493708,0.420128
12,118,2,9,1,8,1,C,7,L,7,L,7,0.157545,0.863716,0.136074
12,119,8,2,2,8,1,I,6,S,6,S,13,0.850518,0.513981,0.43715
12,120,2,8,8,1,1,I,6,S,7,L,15,0.549252,0.863109,0.474064
12,121,9,1,9,1,1,C,8,L,8,L,7,0.909523,0.128132,0.116539
12,122,9,8,1,9,0,I,1,S,8,L,12,0.355598,0.874082,0.310822
12,123,8,1,8,2,1,C,7,L,6,S,7,0.872204,0.153818,0.134161
12,124,8,9,2,1,1,I,1,S,1,S,30,0.560435,0.860162,0.482065
12,125,9,8,9,1,1,C,1,S,8,L,10,0.891564,0.267219,0.238243
12,126,9,8,8,2,1,C,1,S,6,S,10,0.857447,0.291248,0.24973
12,127,2,9,9,2,1,I,7,L,7,L,14,0.528493,0.860067,0.454539
12,128,8,2,8,2,1,C,6,S,6,S,8,0.980002,0.129285,0.126699
12,129,8,9,8,9,1,C,1,S,1,S,14,0.311463,0.908036,0.282819
12,130,9,1,8,9,1,I,8,L,1,S,9,0.879139,0.261934,0.230277
12,131,9,2,2,8,1,I,7,L,6,S,13,0.856616,0.508226,0.435354
12,132,8,1,9,1,1,C,7,L,8,L,7,0.904156,0.132875,0.12014
12,133,2,8,1,2,1,C,6,S,1,S,8,0.209657,0.857003,0.179677
12,134,8,1,2,9,1,I,7,L,7,L,13,0.873332,0.500738,0.437311
12,135,9,2,1,2,1,I,7,L,1,S,11,0.884393,0.370016,0.32724
12,136,9,1,1,9,1,I,8,L,8,L,13,0.855889,0.525237,0.449545
12,137,8,1,1,8,1,I,7,L,7,L,13,0.855322,0.52414,0.448308
12,138,2,9,1,2,1,C,7,L,1,S,8,0.205958,0.860418,0.17721
12,139,1,2,2,8,1,C,1,S,6,S,9,0.209033,0.911813,0.190599
12,140,8,2,8,9,1,I,6,S,1,S,10,0.909134,0.276313,0.251205
12,141,9,8,9,2,1,C,1,S,7,L,10,0.863389,0.286904,0.24771
12,142,1,8,8,9,1,C,7,L,1,S,9,0.199068,0.945067,0.188133
12,143,2,1,2,1,1,C,1,S,1,S,10,0.950036,0.206956,0.196616
12,144,8,2,9,2,1,C,6,S,7,L,8,0.985843,0.125203,0.12343
13,1,9,1,2,9,1,I,8,L,7,L,12,0.854003,0.496337,0.423873
13,2,1,2,8,2,1,I,1,S,6,S,22,0.574727,0.853603,0.490589
13,3,1,2,8,9,1,C,1,S,1,S,11,0.252841,0.923178,0.233418
13,4,1,8,8,1,1,I,7,L,7,L,13,0.52088,0.862669,0.449347
13,5,2,9,9,1,1,I,7,L,8,L,14,0.541411,0.858732,0.464927
13,6,1,8,2,9,1,C,7,L,7,L,7,0.145819,0.88565,0.129145
13,7,8,1,8,1,1,C,7,L,7,L,7,0.901648,0.135727,0.122378
13,8,8,1,1,2,1,I,7,L,1,S,11,0.888974,0.3894,0.346167
13,9,2,1,9,8,1,C,1,S,1,S,11,0.86654,0.299688,0.259692
13,10,2,9,8,2,1,I,7,L,6,S,13,0.509682,0.859687,0.438167
13,11,8,1,2,8,1,I,7,L,6,S,12,0.853047,0.492451,0.420084
13,12,8,2,1,8,1,I,6,S,7,L,14,0.859522,0.53893,0.463222
13,13,1,9,2,1,1,I,8,L,1,S,10,0.351559,0.878613,0.308884
13,14,2,9,9,2,1,I,7,L,7,L,13,0.513246,0.856334,0.43951
13,15,8,2,9,2,1,C,6,S,7,L,7,0.851196,0.166207,0.141475
13,16,8,2,9,1,1,C,6,S,8,L,7,0.881243,0.146854,0.129414
13,17,8,9,1,2,1,C,1,S,1,S,12,0.293868,0.905025,0.265957
13,18,9,2,1,8,1,I,7,L,7,L,14,0.868804,0.532683,0.462797
13,19,9,1,2,8,1,I,8,L,6,S,12,0.861372,0.487067,0.419546
13,20,9,8,1,8,1,I,1,S,7,L,26,0.850308,0.593546,0.504697
13,21,2,9,1,8,1,C,7,L,7,L,7,0.152516,0.878586,0.133999
13,22,1,9,9,8,1,I,8,L,1,S,9,0.242344,0.905712,0.219494
13,23,8,2,1,9,1,I,6,S,8,L,14,0.854764,0.54475,0.465633
13,24,2,8,2,9,1,C,6,S,7,L,8,0.13587,0.971534,0.132002
13,25,2,8,9,1,1,I,6,S,8,L,15,0.554521,0.857146,0.475306
13,26,9,2,1,9,1,I,7,L,8,L,14,0.864046,0.538503,0.465291
13,27,9,8,2,1,1,C,1,S,1,S,10,0.860171,0.278964,0.239957
13,28,9,1,8,2,1,C,8,L,6,S,7,0.878396,0.151587,0.133154
13,29,1,2,9,2,1,I,1,S,7,L,22,0.576442,0.851738,0.490978
13,30,2,8,1,8,1,C,6,S,7,L,7,0.167183,0.855139,0.142965
13,31,1,9,9,1,1,I,8,L,8,L,13,0.511752,0.876796,0.448702
13,32,9,2,8,9,1,I,7,L,1,S,9,0.851688,0.28638,0.243906
13,33,8,2,2,9,1,I,6,S,7,L,14,0.873105,0.519312,0.453414
13,34,9,8,8,1,1,C,1,S,7,L,9,0.902519,0.223923,0.202095
13,35,1,9,2,9,1,C,8,L,7,L,7,0.135724,0.902361,0.122472
13,36,2,9,8,9,1,C,7,L,1,S,9,0.207345,0.929096,0.192643
13,37,1,9,8,1,1,I,8,L,7,L,12,0.507887,0.85203,0.432735
13,38,9,8,2,9,1,I,1,S,7,L,26,0.859782,0.57931,0.498081
13,39,9,2,9,2,1,C,7,L,7,L,7,0.860544,0.160936,0.138493
13,40,1,8,9,8,1,I,7,L,1,S,9,0.253703,0.888053,0.225302
13,41,1,8,9,1,1,I,7,L,8,L,13,0.523059,0.860496,0.45009
13,42,9,2,2,8,1,I,7,L,6,S,13,0.866464,0.504448,0.437086
13,43,1,8,2,1,1,I,7,L,1,S,10,0.363143,0.86107,0.312691
13,44,9,2,2,1,1,C,7,L,1,S,8,0.899456,0.182559,0.164203
13,45,9,1,9,2,1,C,8,L,7,L,7,0.882316,0.148208,0.130766
13,46,1,9,1,8,1,C,8,L,7,L,7,0.123899,0.922475,0.114294
13,47,1,2,2,8,1,C,1,S,6,S,9,0.195248,0.93026,0.181631
13,48,2,1,1,9,1,I,1,S,8,L,25,0.858337,0.58496,0.502093
13,49,2,1,1,2,1,I,1,S,1,S,19,0.854146,0.546299,0.466619
13,50,8,1,9,2,1,C,7,L,7,L,7,0.874246,0.152693,0.133492
13,51,9,8,2,8,1,I,1,S,6,S,25,0.853979,0.582813,0.49771
13,52,2,1,2,9,1,I,1,S,7,L,23,0.852393,0.581681,0.495821
13,53,9,2,1,2,1,I,7,L,1,S,11,0.874592,0.399088,0.349039
13,54,2,8,8,1,1,I,6,S,7,L,15,0.552652,0.859082,0.474774
13,55,8,9,9,1,0,I,1,S,8,L,12,0.8659,0.36789,0.318556
13,56,9,1,8,9,1,I,8,L,1,S,9,0.875019,0.271784,0.237816
13,57,2,9,1,2,1,C,7,L,1,S,8,0.184229,0.9004,0.16588
13,58,1,8,8,2,1,I,7,L,6,S,12,0.487161,0.858702,0.418326
13,59,1,2,9,8,1,I,1,S,1,S,13,0.355821,0.885226,0.314982
13,60,8,1,9,8,1,C,7,L,1,S,9,0.933362,0.20695,0.193159
13,61,2,8,2,1,1,I,6,S,1,S,12,0.416141,0.884495,0.368074
13,62,8,9,8,9,1,C,1,S,1,S,14,0.309745,0.912353,0.282597
13,63,1,8,9,2,1,I,7,L,7,L,12,0.490974,0.855192,0.419877
13,64,1,2,1,9,1,C,1,S,8,L,8,0.210248,0.854781,0.179716
13,65,1,8,2,8,1,C,7,L,6,S,7,0.152466,0.876504,0.133637
13,66,1,8,1,9,1,C,7,L,8,L,7,0.129113,0.912448,0.117809
13,67,2,1,2,1,1,C,1,S,1,S,10,0.91096,0.238513,0.217276
13,68,8,1,8,2,1,C,7,L,6,S,7,0.870326,0.156073,0.135835
13,69,9,1,1,2,1,I,8,L,1,S,10,0.856425,0.375177,0.321311
13,70,8,9,9,8,1,I,1,S,1,S,24,0.535035,0.854967,0.457437
13,71,8,2,9,8,1,C,6,S,1,S,9,0.90847,0.222547,0.202177
13,72,9,2,8,1,1,C,7,L,7,L,7,0.887947,0.14397,0.127838
13,73,8,2,8,9,1,I,6,S,1,S,10,0.904797,0.285281,0.258121
13,74,8,9,2,8,1,C,1,S,6,S,10,0.291296,0.859994,0.250512
13,75,8,9,8,2,0,I,1,S,6,S,14,0.856445,0.422204,0.361594
13,76,1,9,8,9,1,C,8,L,1,S,8,0.209463,0.873694,0.183007
13,77,1,2,9,1,1,I,1,S,8,L,24,0.581945,0.856433,0.498397
13,78,2,8,2,8,1,C,6,S,6,S,8,0.143052,0.961745,0.13758
13,79,1,2,8,1,1,I,1,S,7,L,24,0.580983,0.85757,0.498233
13,80,1,2,2,1,1,I,1,S,1,S,18,0.528155,0.859299,0.453843
13,81,8,1,9,1,1,C,7,L,8,L,7,0.904293,0.13334,0.120578
13,82,1,2,2,9,1,C,1,S,7,L,9,0.187768,0.940267,0.176552
13,83,2,1,2,8,1,I,1,S,6,S,23,0.856759,0.576439,0.493869
13,84,2,8,9,8,1,I,6,S,1,S,10,0.276428,0.902671,0.249524
13,85,9,1,1,9,1,I,8,L,8,L,13,0.862173,0.524913,0.452566
13,86,8,1,1,8,1,I,7,L,7,L,13,0.859,0.524128,0.450226
13,87,9,8,1,9,1,I,1,S,8,L,27,0.856265,0.589377,0.504663
13,88,9,1,8,1,1,C,8,L,7,L,7,0.909718,0.131242,0.119393
13,89,9,8,9,2,1,C,1,S,7,L,9,0.872661,0.24347,0.212467
13,90,8,2,2,8,1,I,6,S,6,S,13,0.856891,0.510824,0.43772
13,91,2,8,8,2,1,I,6,S,6,S,14,0.526301,0.860101,0.452672
13,92,9,8,1,2,1,I,1,S,1,S,22,0.860393,0.555446,0.477902
13,93,1,9,8,2,1,I,8,L,6,S,12,0.475651,0.87549,0.416428
13,94,2,9,8,1,1,I,7,L,7,L,14,0.53939,0.860788,0.4643
13,95,9,2,9,8,1,C,7,L,1,S,9,0.918663,0.216363,0.198765
13,96,2,9,2,8,1,C,7,L,6,S,8,0.126904,0.986936,0.125246
