ANN,trial,N1,N2,P1,P2,Succ.,Cong,Ndist,Ndist,Pdist,Pdist,rt,a1,a2,x_acc
1,1,1,2,1,9,1,C,1,S,8,L,7,0.252094,0.728823,0.183732
1,2,2,1,9,8,1,C,1,S,1,S,8,0.67678,0.340257,0.230279
1,3,1,8,1,2,1,C,7,L,1,S,6,0.223666,0.672406,0.150394
1,4,9,8,1,8,0,I,1,S,7,L,8,0.365019,0.683798,0.249599
1,5,8,2,8,9,1,I,6,S,1,S,7,0.666426,0.311375,0.207508
1,6,9,1,1,2,1,I,8,L,1,S,7,0.674044,0.336176,0.226597
1,7,8,1,9,1,1,C,7,L,8,L,6,0.751861,0.171379,0.128853
1,8,9,2,2,1,1,C,7,L,1,S,7,0.767653,0.225493,0.173101
1,9,9,8,9,1,1,C,1,S,8,L,7,0.663968,0.30439,0.202105
1,10,1,9,2,9,1,C,8,L,7,L,6,0.186649,0.729622,0.136184
1,11,8,1,2,9,1,I,7,L,7,L,8,0.67365,0.447995,0.301792
1,12,8,2,9,1,1,C,6,S,8,L,6,0.715605,0.194978,0.139527
1,13,2,9,1,2,1,C,7,L,1,S,7,0.228843,0.75748,0.173344
1,14,9,8,8,2,1,C,1,S,6,S,8,0.719381,0.317629,0.228496
1,15,9,1,8,1,1,C,8,L,7,L,6,0.764279,0.165911,0.126802
1,16,2,1,2,9,1,I,1,S,7,L,12,0.681225,0.616926,0.420265
1,17,9,2,2,8,1,I,7,L,6,S,8,0.659442,0.456283,0.300892
1,18,2,8,8,2,1,I,6,S,6,S,9,0.490939,0.69011,0.338802
1,19,9,1,9,1,1,C,8,L,8,L,6,0.768711,0.161991,0.124525
1,20,1,9,8,1,1,I,8,L,7,L,8,0.469902,0.659926,0.3101
1,21,1,8,9,2,1,I,7,L,7,L,8,0.446698,0.675107,0.301569
1,22,2,9,8,2,1,I,7,L,6,S,9,0.493774,0.68702,0.339233
1,23,1,9,9,2,1,I,8,L,7,L,8,0.448632,0.673138,0.301992
1,24,1,2,1,2,1,C,1,S,1,S,8,0.301558,0.723965,0.218317
1,25,1,2,9,1,0,I,1,S,8,L,10,0.671906,0.523737,0.351902
1,26,2,8,1,8,1,C,6,S,7,L,6,0.192366,0.718321,0.138181
1,27,9,2,1,2,1,I,7,L,1,S,8,0.711301,0.376977,0.268144
1,28,9,2,8,1,1,C,7,L,7,L,6,0.732392,0.186496,0.136588
1,29,1,8,2,8,1,C,7,L,6,S,6,0.187484,0.727448,0.136385
1,30,1,9,2,8,1,C,8,L,6,S,6,0.189245,0.72569,0.137334
1,31,2,8,9,2,1,I,6,S,7,L,9,0.498337,0.683821,0.340773
1,32,2,9,8,1,1,I,7,L,7,L,9,0.522975,0.666764,0.348701
1,33,1,9,2,1,1,I,8,L,1,S,7,0.329485,0.668386,0.220223
1,34,8,1,1,8,1,I,7,L,7,L,8,0.65331,0.478673,0.312722
1,35,8,9,8,2,0,I,1,S,6,S,8,0.655578,0.380093,0.249181
1,36,9,8,2,1,1,C,1,S,1,S,9,0.693216,0.370844,0.257075
1,37,1,9,1,2,1,C,8,L,1,S,6,0.225428,0.670649,0.151183
1,38,2,1,9,2,1,C,1,S,7,L,7,0.733388,0.244157,0.179062
1,39,2,9,2,8,1,C,7,L,6,S,6,0.213795,0.686179,0.146702
1,40,9,8,1,2,0,I,1,S,1,S,10,0.471196,0.653849,0.308091
1,41,8,9,1,2,1,C,1,S,1,S,9,0.365526,0.704463,0.257499
1,42,2,1,8,9,1,I,1,S,1,S,9,0.705509,0.380969,0.268777
1,43,1,8,1,8,1,C,7,L,7,L,6,0.168424,0.75711,0.127515
1,44,1,2,1,8,1,C,1,S,7,L,7,0.254168,0.725618,0.184429
1,45,2,9,2,1,1,I,7,L,1,S,8,0.37228,0.697192,0.259551
1,46,8,1,8,2,1,C,7,L,6,S,6,0.723964,0.190788,0.138123
1,47,2,8,9,1,1,I,6,S,8,L,9,0.525192,0.665371,0.349447
1,48,1,2,2,1,1,I,1,S,1,S,11,0.534483,0.667606,0.356824
1,49,1,2,8,1,0,I,1,S,7,L,10,0.667001,0.528172,0.352291
1,50,9,1,2,9,1,I,8,L,7,L,8,0.693051,0.436376,0.302431
1,51,9,8,2,8,0,I,1,S,6,S,9,0.39996,0.700994,0.28037
1,52,2,8,2,1,1,I,6,S,1,S,8,0.369503,0.700245,0.258742
1,53,8,2,8,1,1,C,6,S,7,L,6,0.711173,0.198897,0.14145
1,54,2,9,9,8,1,I,7,L,1,S,7,0.307172,0.666012,0.20458
1,55,2,9,9,2,1,I,7,L,7,L,9,0.501172,0.680731,0.341164
1,56,1,9,9,1,1,I,8,L,8,L,8,0.474971,0.655493,0.31134
1,57,2,8,2,9,1,C,6,S,7,L,6,0.208831,0.69259,0.144634
1,58,2,8,8,1,1,I,6,S,7,L,9,0.52014,0.669854,0.348417
1,59,1,2,9,8,1,I,1,S,1,S,9,0.409678,0.6581,0.269609
1,60,9,2,1,9,1,I,7,L,8,L,9,0.688616,0.516441,0.35563
1,61,8,9,9,8,1,I,1,S,1,S,14,0.54759,0.660626,0.361753
1,62,9,8,9,2,1,C,1,S,7,L,8,0.726649,0.311518,0.226364
1,63,2,8,1,2,1,C,6,S,1,S,7,0.226216,0.760343,0.172001
1,64,1,8,1,9,1,C,7,L,8,L,6,0.166573,0.760025,0.1266
1,65,2,1,2,8,1,I,1,S,6,S,12,0.684755,0.612141,0.419166
1,66,1,8,8,1,1,I,7,L,7,L,8,0.467968,0.661894,0.309745
1,67,9,2,8,2,1,C,7,L,6,S,6,0.708926,0.201986,0.143193
1,68,8,9,2,1,0,I,1,S,1,S,11,0.675801,0.479782,0.324237
1,69,9,1,9,8,1,C,8,L,1,S,7,0.752373,0.244708,0.184112
1,70,8,9,1,9,1,C,1,S,8,L,7,0.306943,0.663697,0.203717
1,71,1,8,2,9,1,C,7,L,7,L,6,0.184888,0.731379,0.135223
1,72,1,2,8,9,1,C,1,S,1,S,9,0.352795,0.718705,0.253556
1,73,8,1,1,2,1,I,7,L,1,S,7,0.655515,0.346872,0.22738
1,74,1,8,9,1,1,I,7,L,8,L,8,0.473037,0.657462,0.311004
1,75,1,8,2,1,1,I,7,L,1,S,7,0.327603,0.670305,0.219594
1,76,2,8,8,9,1,C,6,S,1,S,7,0.278053,0.697939,0.194064
1,77,8,1,2,8,1,I,7,L,6,S,8,0.676953,0.44309,0.299951
1,78,2,1,9,1,1,C,1,S,8,L,7,0.758223,0.227872,0.172778
1,79,9,2,2,9,1,I,7,L,7,L,8,0.65614,0.461188,0.302604
1,80,9,1,9,2,1,C,8,L,7,L,6,0.746684,0.176291,0.131634
1,81,8,2,8,2,1,C,6,S,6,S,6,0.687708,0.214387,0.147436
1,82,2,9,1,8,1,C,7,L,7,L,6,0.194735,0.715841,0.139399
1,83,8,9,8,9,1,C,1,S,1,S,11,0.426298,0.700215,0.2985
1,84,8,2,9,2,1,C,6,S,7,L,6,0.693578,0.209278,0.145151
1,85,8,1,8,1,1,C,7,L,7,L,6,0.747429,0.175298,0.131023
1,86,9,2,9,2,1,C,7,L,7,L,6,0.714797,0.196877,0.140727
1,87,2,1,8,1,1,C,1,S,7,L,7,0.753334,0.232127,0.174869
1,88,1,8,8,9,1,C,7,L,1,S,7,0.250584,0.74171,0.18586
1,89,8,1,8,9,1,I,7,L,1,S,7,0.707352,0.284468,0.201219
1,90,2,1,1,9,1,I,1,S,8,L,12,0.657523,0.649579,0.427113
1,91,1,9,9,8,1,I,8,L,1,S,7,0.278957,0.710728,0.198263
1,92,8,9,9,1,0,I,1,S,8,L,8,0.689184,0.356337,0.245582
1,93,8,9,2,9,1,C,1,S,7,L,8,0.321556,0.715584,0.2301
1,94,1,9,8,9,1,C,8,L,1,S,7,0.252466,0.739792,0.186772
1,95,1,8,9,8,1,I,7,L,1,S,7,0.277075,0.712647,0.197457
1,96,8,2,2,9,1,I,6,S,7,L,9,0.685557,0.498736,0.341912
1,97,9,1,8,2,1,C,8,L,6,S,6,0.740814,0.1814,0.134384
1,98,9,8,8,9,1,I,1,S,1,S,13,0.65563,0.544791,0.357181
1,99,2,8,1,9,1,C,6,S,8,L,6,0.190516,0.721236,0.137407
1,100,2,9,9,1,1,I,7,L,8,L,9,0.528027,0.662282,0.349703
1,101,2,1,2,1,1,C,1,S,1,S,8,0.74808,0.282704,0.211485
1,102,9,1,2,1,1,C,8,L,1,S,6,0.674744,0.225204,0.151955
1,103,8,2,1,9,1,I,6,S,8,L,9,0.661972,0.53339,0.353089
1,104,1,9,1,8,1,C,8,L,7,L,6,0.170185,0.755353,0.12855
1,105,8,1,9,2,1,C,7,L,7,L,6,0.729834,0.185679,0.135515
1,106,9,8,2,9,0,I,1,S,7,L,8,0.385359,0.65312,0.251686
1,107,1,2,9,2,0,I,1,S,7,L,11,0.658975,0.580103,0.382273
1,108,8,1,9,8,1,C,7,L,1,S,7,0.733844,0.255404,0.187427
1,109,2,8,9,8,1,I,6,S,1,S,7,0.304545,0.668875,0.203702
1,110,1,2,2,9,1,C,1,S,7,L,7,0.272929,0.696664,0.19014
1,111,9,2,9,8,1,C,7,L,1,S,7,0.717126,0.267835,0.192072
1,112,9,1,1,9,1,I,8,L,8,L,8,0.67049,0.4704,0.315399
1,113,9,2,8,9,1,I,7,L,1,S,7,0.690634,0.296899,0.205049
1,114,9,1,1,8,1,I,8,L,7,L,8,0.672711,0.467054,0.314192
1,115,9,2,1,8,1,I,7,L,7,L,9,0.690921,0.513059,0.354483
1,116,1,2,2,8,1,C,1,S,6,S,7,0.275939,0.692116,0.190982
1,117,8,9,9,2,0,I,1,S,7,L,8,0.662846,0.373982,0.247892
1,118,8,2,1,2,1,I,6,S,1,S,8,0.685378,0.392955,0.269323
1,119,9,2,9,1,1,C,7,L,8,L,6,0.736824,0.182577,0.134527
1,120,1,2,8,2,0,I,1,S,6,S,11,0.651972,0.586293,0.382246
1,121,2,9,1,9,1,C,7,L,8,L,6,0.192884,0.718756,0.138637
1,122,8,9,8,1,0,I,1,S,7,L,8,0.684115,0.36077,0.246808
1,123,9,8,1,9,0,I,1,S,8,L,8,0.362798,0.687144,0.249294
1,124,2,1,1,2,1,I,1,S,1,S,10,0.667781,0.507023,0.33858
1,125,8,2,2,8,1,I,6,S,6,S,9,0.689039,0.493684,0.340167
1,126,8,1,2,1,1,C,7,L,1,S,6,0.657894,0.234592,0.154336
1,127,8,2,1,8,1,I,6,S,7,L,9,0.664276,0.530008,0.352072
1,128,9,1,8,9,1,I,8,L,1,S,7,0.725881,0.273772,0.198726
1,129,2,1,1,8,1,I,1,S,7,L,12,0.65982,0.646403,0.42651
1,130,1,9,1,9,1,C,8,L,8,L,6,0.168334,0.758268,0.127643
1,131,8,2,2,1,1,C,6,S,1,S,7,0.743445,0.239969,0.178404
1,132,2,8,2,8,1,C,6,S,6,S,6,0.211427,0.688659,0.145601
1,133,8,9,1,8,1,C,1,S,7,L,7,0.309016,0.660493,0.204103
1,134,2,9,8,9,1,C,7,L,1,S,7,0.28068,0.695076,0.195094
1,135,9,8,9,8,1,C,1,S,1,S,10,0.650827,0.43726,0.28458
1,136,9,8,8,1,1,C,1,S,7,L,7,0.659079,0.308645,0.203422
1,137,9,1,2,8,1,I,8,L,6,S,8,0.696353,0.431471,0.300456
1,138,1,8,8,2,1,I,7,L,6,S,8,0.43943,0.681218,0.299348
1,139,8,9,2,8,1,C,1,S,6,S,8,0.324858,0.710678,0.23087
1,140,8,1,1,9,1,I,7,L,8,L,8,0.651089,0.482019,0.313838
1,141,2,9,2,9,1,C,7,L,7,L,6,0.211199,0.69011,0.145751
1,142,1,9,8,2,1,I,8,L,6,S,8,0.441364,0.679249,0.299796
1,143,8,2,9,8,1,C,6,S,1,S,7,0.692918,0.282311,0.195618
1,144,2,1,8,2,1,C,1,S,6,S,7,0.7266,0.249885,0.181567
2,1,2,1,1,8,0,I,1,S,7,L,10,0.538185,0.656554,0.353348
2,2,8,1,9,1,1,C,7,L,8,L,6,0.744434,0.175745,0.130831
2,3,9,8,1,8,0,I,1,S,7,L,8,0.351503,0.694523,0.244127
2,4,2,1,1,9,0,I,1,S,8,L,10,0.533011,0.664423,0.354145
2,5,1,2,2,1,1,I,1,S,1,S,11,0.530053,0.658989,0.349299
2,6,2,9,1,8,1,C,7,L,7,L,6,0.185092,0.72845,0.134831
2,7,1,2,9,1,0,I,1,S,8,L,9,0.658832,0.471727,0.310789
2,8,1,9,2,8,1,C,8,L,6,S,6,0.182734,0.732625,0.133876
2,9,2,9,9,8,1,I,7,L,1,S,7,0.291077,0.690074,0.200865
2,10,1,8,1,8,1,C,7,L,7,L,6,0.171082,0.751367,0.128545
2,11,2,8,9,2,1,I,6,S,7,L,9,0.487407,0.697136,0.339789
2,12,1,9,9,1,1,I,8,L,8,L,8,0.472606,0.661555,0.312655
2,13,8,9,1,2,1,C,1,S,1,S,8,0.334068,0.677602,0.226365
2,14,1,9,9,2,1,I,8,L,7,L,8,0.438888,0.683079,0.299795
2,15,2,1,8,1,1,C,1,S,7,L,7,0.724307,0.250029,0.181098
2,16,8,9,2,8,1,C,1,S,6,S,7,0.298421,0.66134,0.197358
2,17,1,2,9,8,1,I,1,S,1,S,9,0.408465,0.654019,0.267144
2,18,9,1,8,9,1,I,8,L,1,S,7,0.701305,0.294126,0.206272
2,19,9,1,2,1,1,C,8,L,1,S,6,0.660106,0.232736,0.15363
2,20,1,2,2,8,1,C,1,S,6,S,7,0.27723,0.685497,0.190041
2,21,1,9,8,2,1,I,8,L,6,S,8,0.427984,0.689673,0.295169
2,22,2,1,1,2,1,I,1,S,1,S,11,0.660547,0.54818,0.362099
2,23,1,8,8,1,1,I,7,L,7,L,8,0.469118,0.659849,0.309547
2,24,2,1,2,9,0,I,1,S,7,L,11,0.589576,0.650875,0.383741
2,25,8,9,1,9,1,C,1,S,8,L,7,0.276519,0.696086,0.192481
2,26,9,2,2,8,1,I,7,L,6,S,9,0.705254,0.483017,0.34065
2,27,1,9,1,2,1,C,8,L,1,S,6,0.220282,0.674964,0.148683
2,28,8,2,2,1,1,C,6,S,1,S,7,0.730133,0.247054,0.180382
2,29,8,9,9,8,1,I,1,S,1,S,10,0.439914,0.662094,0.291265
2,30,9,2,1,2,1,I,7,L,1,S,8,0.702812,0.379737,0.266884
2,31,2,9,2,1,1,I,7,L,1,S,8,0.348712,0.723529,0.252303
2,32,8,2,8,2,1,C,6,S,6,S,6,0.675861,0.219313,0.148225
2,33,2,8,2,9,1,C,6,S,7,L,6,0.19966,0.706056,0.140971
2,34,2,1,9,2,1,C,1,S,7,L,7,0.700005,0.265554,0.185889
2,35,2,8,1,9,1,C,6,S,8,L,6,0.18564,0.728503,0.135239
2,36,9,1,2,9,1,I,8,L,7,L,8,0.675985,0.44968,0.303977
2,37,8,1,1,2,1,I,7,L,1,S,8,0.716763,0.36798,0.263755
2,38,2,9,1,9,1,C,7,L,8,L,6,0.181152,0.735188,0.133181
2,39,2,9,2,8,1,C,7,L,6,S,6,0.200324,0.704272,0.141083
2,40,2,8,8,1,1,I,6,S,7,L,9,0.513999,0.679278,0.349148
2,41,2,1,8,9,1,I,1,S,1,S,10,0.687797,0.446058,0.306797
2,42,8,2,8,9,1,I,6,S,1,S,8,0.727208,0.332787,0.242006
2,43,8,1,8,2,1,C,7,L,6,S,6,0.707988,0.197699,0.139968
2,44,9,1,1,2,1,I,8,L,1,S,7,0.662463,0.340267,0.225414
2,45,8,2,2,8,1,I,6,S,6,S,9,0.679484,0.498995,0.33906
2,46,8,2,9,8,1,C,6,S,1,S,7,0.683547,0.289974,0.198211
2,47,1,2,1,8,1,C,1,S,7,L,7,0.259797,0.712811,0.185186
2,48,2,1,9,1,1,C,1,S,8,L,7,0.731662,0.24588,0.179901
2,49,9,8,1,9,0,I,1,S,8,L,8,0.346666,0.702315,0.243469
2,50,9,8,8,2,1,C,1,S,6,S,8,0.695189,0.337293,0.234482
2,51,9,8,8,9,0,I,1,S,1,S,13,0.538965,0.665232,0.358537
2,52,9,1,1,9,1,I,8,L,8,L,8,0.658779,0.476074,0.313628
2,53,1,2,1,9,1,C,1,S,8,L,7,0.255328,0.720244,0.183899
2,54,8,1,8,9,1,I,7,L,1,S,7,0.682932,0.30437,0.207864
2,55,9,2,1,8,1,I,7,L,7,L,9,0.68535,0.512673,0.35136
2,56,9,2,2,9,1,I,7,L,7,L,9,0.698266,0.493744,0.344764
2,57,8,9,9,2,0,I,1,S,7,L,9,0.658736,0.450582,0.296815
2,58,1,2,1,2,1,C,1,S,1,S,8,0.306228,0.711394,0.217849
2,59,8,2,1,9,1,I,6,S,8,L,9,0.654517,0.536561,0.351188
2,60,2,9,2,9,1,C,7,L,7,L,6,0.195173,0.712741,0.139108
2,61,2,8,9,1,1,I,6,S,8,L,9,0.521922,0.674461,0.352016
2,62,1,8,9,2,1,I,7,L,7,L,8,0.443164,0.676819,0.299942
2,63,8,9,1,8,1,C,1,S,7,L,7,0.280988,0.688653,0.193503
2,64,9,1,8,1,1,C,8,L,7,L,6,0.754392,0.170448,0.128584
2,65,8,9,8,1,0,I,1,S,7,L,9,0.685328,0.432724,0.296558
2,66,9,2,9,1,1,C,7,L,8,L,6,0.732503,0.185933,0.136197
2,67,9,2,8,9,1,I,7,L,1,S,7,0.669603,0.315557,0.211298
2,68,8,1,1,8,1,I,7,L,7,L,9,0.69935,0.500701,0.350165
2,69,1,9,1,8,1,C,8,L,7,L,6,0.167502,0.756803,0.126766
2,70,9,8,2,9,0,I,1,S,7,L,8,0.363871,0.675921,0.245948
2,71,8,1,2,1,1,C,7,L,1,S,7,0.766657,0.222402,0.170506
2,72,2,8,1,2,1,C,6,S,1,S,7,0.220227,0.767644,0.169056
2,73,9,2,2,1,1,C,7,L,1,S,7,0.753328,0.233589,0.175969
2,74,8,2,9,1,1,C,6,S,8,L,6,0.712307,0.19736,0.140581
2,75,9,8,1,2,0,I,1,S,1,S,10,0.439572,0.679977,0.298899
2,76,2,8,1,8,1,C,6,S,7,L,6,0.18958,0.721765,0.136832
2,77,8,1,8,1,1,C,7,L,7,L,6,0.737831,0.179334,0.132318
2,78,8,9,2,1,1,I,1,S,1,S,13,0.592759,0.663752,0.393445
2,79,8,1,2,8,1,I,7,L,6,S,8,0.663224,0.450485,0.298773
2,80,2,9,9,2,1,I,7,L,7,L,9,0.481575,0.705449,0.339727
2,81,1,8,2,9,1,C,7,L,7,L,6,0.181162,0.735658,0.133273
2,82,8,9,8,9,1,C,1,S,1,S,9,0.368155,0.692307,0.254876
2,83,9,8,9,1,1,C,1,S,8,L,7,0.655664,0.315472,0.206844
2,84,8,2,1,2,1,I,6,S,1,S,8,0.677842,0.39471,0.267551
2,85,9,2,8,2,1,C,7,L,6,S,6,0.696058,0.207887,0.144701
2,86,9,8,2,8,0,I,1,S,6,S,8,0.370471,0.665497,0.246547
2,87,1,8,9,8,1,I,7,L,1,S,7,0.27507,0.715758,0.196883
2,88,2,8,8,9,1,C,6,S,1,S,7,0.25907,0.721503,0.18692
2,89,2,9,8,2,1,I,7,L,6,S,8,0.449659,0.656247,0.295087
2,90,9,1,9,2,1,C,8,L,7,L,6,0.733048,0.183916,0.134819
2,91,9,1,8,2,1,C,8,L,6,S,6,0.724549,0.188813,0.136804
2,92,9,1,9,1,1,C,8,L,8,L,6,0.760995,0.166859,0.126979
2,93,8,2,2,9,1,I,6,S,7,L,9,0.672496,0.509722,0.342786
2,94,8,1,1,9,1,I,7,L,8,L,9,0.694287,0.508611,0.353122
2,95,8,9,9,1,0,I,1,S,8,L,9,0.693251,0.427907,0.296647
2,96,2,1,2,1,1,C,1,S,1,S,8,0.702179,0.311241,0.218547
2,97,2,9,9,1,1,I,7,L,8,L,9,0.51609,0.682774,0.352373
2,98,2,9,8,9,1,C,7,L,1,S,7,0.253939,0.729121,0.185152
2,99,1,9,1,9,1,C,8,L,8,L,6,0.163562,0.763541,0.124886
2,100,9,1,9,8,1,C,8,L,1,S,7,0.738444,0.255078,0.188361
2,101,8,2,9,2,1,C,6,S,7,L,6,0.68436,0.214417,0.146738
2,102,1,8,9,1,1,I,7,L,8,L,8,0.476882,0.655295,0.312499
2,103,1,2,2,9,1,C,1,S,7,L,7,0.271237,0.695206,0.188566
2,104,9,2,9,8,1,C,7,L,1,S,7,0.706741,0.27651,0.195421
2,105,1,8,1,9,1,C,7,L,8,L,6,0.167142,0.758105,0.126711
2,106,1,8,2,1,1,I,7,L,1,S,7,0.321656,0.672838,0.216422
2,107,2,1,8,2,1,C,1,S,6,S,7,0.690027,0.271417,0.187285
2,108,9,8,2,1,1,C,1,S,1,S,9,0.658981,0.399272,0.263113
2,109,9,2,8,1,1,C,7,L,7,L,6,0.7259,0.189521,0.137574
2,110,8,2,1,8,1,I,6,S,7,L,9,0.65958,0.528651,0.348688
2,111,9,1,1,8,1,I,8,L,7,L,8,0.663616,0.468282,0.31076
2,112,9,1,2,8,1,I,8,L,6,S,8,0.682584,0.439256,0.299829
2,113,1,9,2,9,1,C,8,L,7,L,6,0.177583,0.741094,0.131605
2,114,1,2,8,1,0,I,1,S,7,L,9,0.650909,0.476544,0.310187
2,115,1,2,9,2,0,I,1,S,7,L,11,0.664453,0.565893,0.376009
2,116,1,8,2,8,1,C,7,L,6,S,6,0.186314,0.727189,0.135485
2,117,8,9,2,9,1,C,1,S,7,L,7,0.292428,0.671048,0.196233
2,118,9,8,9,8,1,C,1,S,1,S,12,0.693983,0.454385,0.315335
2,119,1,9,8,1,1,I,8,L,7,L,8,0.464842,0.666109,0.309636
2,120,8,2,8,1,1,C,6,S,7,L,6,0.705703,0.200948,0.14181
2,121,2,8,9,8,1,I,6,S,1,S,7,0.296209,0.682456,0.202149
2,122,8,9,8,2,0,I,1,S,6,S,10,0.677989,0.484593,0.328549
2,123,9,8,8,1,1,C,1,S,7,L,8,0.732047,0.313729,0.229664
2,124,2,8,8,2,1,I,6,S,6,S,9,0.476048,0.704227,0.335246
2,125,9,2,1,9,1,I,7,L,8,L,9,0.680287,0.520583,0.354146
2,126,1,8,8,2,1,I,7,L,6,S,8,0.43226,0.683413,0.295412
2,127,2,8,2,8,1,C,6,S,6,S,6,0.204812,0.697587,0.142874
2,128,1,9,9,8,1,I,8,L,1,S,7,0.271069,0.72175,0.195644
2,129,1,8,1,2,1,C,7,L,1,S,6,0.223862,0.669528,0.149882
2,130,1,8,8,9,1,C,7,L,1,S,7,0.237931,0.754805,0.179592
2,131,8,1,9,2,1,C,7,L,7,L,6,0.716487,0.192802,0.13814
2,132,2,9,8,1,1,I,7,L,7,L,9,0.508167,0.687591,0.349411
2,133,1,2,8,9,1,C,1,S,1,S,9,0.333735,0.736128,0.245672
2,134,1,9,2,1,1,I,8,L,1,S,7,0.317655,0.678829,0.215634
2,135,9,2,9,2,1,C,7,L,7,L,6,0.704556,0.20299,0.143018
2,136,2,1,9,8,1,C,1,S,1,S,9,0.711488,0.356854,0.253897
2,137,8,1,2,9,1,I,7,L,7,L,8,0.656625,0.460909,0.302645
2,138,1,9,8,9,1,C,8,L,1,S,7,0.23393,0.760797,0.177973
2,139,8,1,9,8,1,C,7,L,1,S,7,0.720071,0.265323,0.191051
2,140,2,8,2,1,1,I,6,S,1,S,8,0.354284,0.7154,0.253455
2,141,2,9,1,2,1,C,7,L,1,S,7,0.215096,0.775263,0.166756
2,142,2,1,2,8,1,I,1,S,6,S,13,0.666877,0.647245,0.431633
2,143,9,8,9,2,1,C,1,S,7,L,8,0.706093,0.330699,0.233504
2,144,1,2,8,2,0,I,1,S,6,S,11,0.653118,0.573392,0.374493
3,1,1,9,9,1,1,I,8,L,8,L,8,0.469948,0.669103,0.314444
3,2,9,1,1,8,1,I,8,L,7,L,9,0.704103,0.50538,0.355839
3,3,2,1,9,2,1,C,1,S,7,L,7,0.736813,0.24185,0.178198
3,4,2,8,1,8,1,C,6,S,7,L,6,0.193188,0.71764,0.138639
3,5,8,9,8,2,0,I,1,S,6,S,9,0.655246,0.463992,0.304029
3,6,8,1,8,2,1,C,7,L,6,S,6,0.727463,0.185227,0.134746
3,7,8,1,9,1,1,C,7,L,8,L,6,0.749022,0.172531,0.12923
3,8,8,9,2,8,1,C,1,S,6,S,7,0.288134,0.673243,0.193984
3,9,2,8,2,8,1,C,6,S,6,S,6,0.214532,0.683243,0.146577
3,10,9,1,2,8,1,I,8,L,6,S,8,0.675404,0.443692,0.299671
3,11,2,9,2,9,1,C,7,L,7,L,6,0.199712,0.70607,0.14101
3,12,8,2,2,9,1,I,6,S,7,L,9,0.679958,0.498777,0.339148
3,13,1,9,1,2,1,C,8,L,1,S,6,0.219943,0.675224,0.148511
3,14,8,1,1,2,1,I,7,L,1,S,7,0.652915,0.336966,0.22001
3,15,8,9,9,8,1,I,1,S,1,S,10,0.421783,0.688395,0.290353
3,16,8,2,8,2,1,C,6,S,6,S,6,0.697693,0.204357,0.142578
3,17,9,8,2,1,1,C,1,S,1,S,9,0.675085,0.389857,0.263187
3,18,9,1,9,8,1,C,8,L,1,S,7,0.732454,0.259278,0.189909
3,19,2,9,9,8,1,I,7,L,1,S,7,0.293118,0.689116,0.201992
3,20,1,9,9,8,1,I,8,L,1,S,7,0.264296,0.73203,0.193472
3,21,8,2,9,1,1,C,6,S,8,L,6,0.719251,0.191661,0.137853
3,22,1,2,9,8,1,I,1,S,1,S,9,0.39214,0.673203,0.26399
3,23,8,2,2,8,1,I,6,S,6,S,9,0.682193,0.495368,0.337937
3,24,8,9,9,2,0,I,1,S,7,L,9,0.664847,0.458131,0.304587
3,25,9,8,1,9,0,I,1,S,8,L,8,0.339299,0.712714,0.241823
3,26,2,8,8,1,1,I,6,S,7,L,9,0.532246,0.657751,0.350085
3,27,1,9,9,2,1,I,8,L,7,L,8,0.453866,0.679445,0.308377
3,28,2,1,2,8,1,I,1,S,6,S,12,0.66035,0.627179,0.414158
3,29,1,2,1,8,1,C,1,S,7,L,7,0.239931,0.73587,0.176558
3,30,1,2,9,1,0,I,1,S,8,L,10,0.668873,0.526539,0.352188
3,31,1,2,1,2,1,C,1,S,1,S,8,0.301579,0.711194,0.214481
3,32,9,2,2,1,1,C,7,L,1,S,7,0.760205,0.226465,0.17216
3,33,9,2,2,8,1,I,7,L,6,S,9,0.698106,0.4868,0.339838
3,34,9,2,9,8,1,C,7,L,1,S,7,0.701123,0.279708,0.196109
3,35,2,8,9,1,1,I,6,S,8,L,9,0.54029,0.652916,0.352764
3,36,8,1,8,1,1,C,7,L,7,L,6,0.742233,0.176155,0.130748
3,37,1,9,8,9,1,C,8,L,1,S,7,0.238746,0.7573,0.180802
3,38,1,2,8,9,1,C,1,S,1,S,9,0.339021,0.727665,0.246693
3,39,2,9,1,8,1,C,7,L,7,L,6,0.180004,0.73781,0.132809
3,40,1,9,2,9,1,C,8,L,7,L,6,0.174035,0.744724,0.129608
3,41,2,1,1,9,0,I,1,S,8,L,10,0.554287,0.65317,0.362044
3,42,9,8,8,9,0,I,1,S,1,S,16,0.613326,0.650112,0.398731
3,43,1,8,8,1,1,I,7,L,7,L,8,0.473268,0.656541,0.310719
3,44,9,1,9,2,1,C,8,L,7,L,6,0.745654,0.176513,0.131618
3,45,2,9,1,2,1,C,7,L,1,S,7,0.22522,0.761452,0.171494
3,46,2,8,2,9,1,C,6,S,7,L,6,0.212896,0.685899,0.146025
3,47,9,1,1,9,1,I,8,L,8,L,9,0.702703,0.507566,0.356668
3,48,8,2,1,8,1,I,6,S,7,L,9,0.654495,0.537012,0.351472
3,49,1,2,2,9,1,C,1,S,7,L,7,0.262364,0.700348,0.183746
3,50,2,9,2,8,1,C,7,L,6,S,6,0.201348,0.703414,0.141631
3,51,1,9,8,1,1,I,8,L,7,L,8,0.462051,0.673678,0.311274
3,52,9,8,1,2,0,I,1,S,1,S,10,0.446172,0.667011,0.297602
3,53,1,9,8,2,1,I,8,L,6,S,8,0.444509,0.684958,0.30447
3,54,2,1,2,1,1,C,1,S,1,S,8,0.739318,0.284841,0.210588
3,55,2,9,8,9,1,C,7,L,1,S,7,0.267568,0.714386,0.191147
3,56,2,1,8,9,1,I,1,S,1,S,9,0.683342,0.394762,0.269757
3,57,9,1,8,9,1,I,8,L,1,S,7,0.706905,0.284548,0.201148
3,58,9,1,8,2,1,C,8,L,6,S,6,0.737886,0.180778,0.133394
3,59,9,2,8,2,1,C,7,L,6,S,6,0.709943,0.19877,0.141116
3,60,1,2,2,8,1,C,1,S,6,S,7,0.264273,0.697283,0.184273
3,61,1,8,2,9,1,C,7,L,7,L,6,0.183374,0.729759,0.133818
3,62,9,2,1,2,1,I,7,L,1,S,8,0.707013,0.366943,0.259434
3,63,2,8,1,9,1,C,6,S,8,L,6,0.192081,0.719537,0.138209
3,64,2,1,2,9,1,I,1,S,7,L,12,0.65805,0.630444,0.414863
3,65,1,8,9,8,1,I,7,L,1,S,7,0.274759,0.715606,0.19662
3,66,1,8,1,2,1,C,7,L,1,S,6,0.229282,0.660259,0.151385
3,67,2,9,8,1,1,I,7,L,7,L,9,0.514633,0.683443,0.351722
3,68,1,2,9,2,0,I,1,S,7,L,10,0.652653,0.537552,0.350835
3,69,2,8,9,2,1,I,6,S,7,L,9,0.523963,0.663721,0.347765
3,70,1,9,1,8,1,C,8,L,7,L,6,0.154327,0.776465,0.119829
3,71,8,1,9,2,1,C,7,L,7,L,6,0.735231,0.180962,0.133049
3,72,1,9,2,1,1,I,8,L,1,S,7,0.323378,0.678787,0.219505
3,73,1,8,1,9,1,C,7,L,8,L,6,0.162558,0.763396,0.124096
3,74,8,2,2,1,1,C,6,S,1,S,7,0.746082,0.23331,0.174068
3,75,9,2,2,9,1,I,7,L,7,L,9,0.695871,0.490209,0.341122
3,76,8,2,9,2,1,C,6,S,7,L,6,0.70546,0.200092,0.141157
3,77,8,9,1,9,1,C,1,S,8,L,7,0.262546,0.713902,0.187432
3,78,1,9,1,9,1,C,8,L,8,L,6,0.15322,0.778361,0.11926
3,79,9,1,2,9,1,I,8,L,7,L,8,0.673297,0.446997,0.300961
3,80,1,9,2,8,1,C,8,L,6,S,6,0.175671,0.742068,0.13036
3,81,2,9,2,1,1,I,7,L,1,S,8,0.367522,0.709524,0.260765
3,82,1,8,9,1,1,I,7,L,8,L,8,0.481164,0.651966,0.313703
3,83,1,8,2,1,1,I,7,L,1,S,7,0.333842,0.662364,0.221125
3,84,9,8,8,2,1,C,1,S,6,S,8,0.716399,0.326199,0.233689
3,85,9,2,9,1,1,C,7,L,8,L,6,0.731502,0.186074,0.136114
3,86,9,2,8,9,1,I,7,L,1,S,7,0.675573,0.304978,0.206035
3,87,8,1,2,9,1,I,7,L,7,L,8,0.660931,0.453057,0.299439
3,88,9,1,1,2,1,I,8,L,1,S,7,0.664557,0.331613,0.220376
3,89,8,2,9,8,1,C,6,S,1,S,7,0.686999,0.286553,0.196861
3,90,8,1,9,8,1,C,7,L,1,S,7,0.720812,0.26463,0.190749
3,91,9,8,9,1,1,C,1,S,8,L,7,0.658848,0.315539,0.207892
3,92,8,2,8,1,1,C,6,S,7,L,6,0.712463,0.195286,0.139134
3,93,2,9,9,1,1,I,7,L,8,L,9,0.522677,0.678608,0.354693
3,94,9,1,9,1,1,C,8,L,8,L,6,0.759445,0.168083,0.127649
3,95,8,9,8,9,1,C,1,S,1,S,9,0.374204,0.686387,0.256849
3,96,8,1,2,1,1,C,7,L,1,S,6,0.652656,0.233385,0.15232
3,97,1,8,9,2,1,I,7,L,7,L,8,0.465083,0.662307,0.308028
3,98,2,9,8,2,1,I,7,L,6,S,9,0.496748,0.695274,0.345376
3,99,9,2,8,1,1,C,7,L,7,L,6,0.724713,0.189699,0.137477
3,100,8,9,1,2,1,C,1,S,1,S,8,0.331399,0.678275,0.22478
3,101,1,2,2,1,1,I,1,S,1,S,11,0.534367,0.665151,0.355435
3,102,8,2,1,9,1,I,6,S,8,L,9,0.653095,0.539198,0.352148
3,103,2,1,9,1,1,C,1,S,8,L,7,0.752116,0.232285,0.174705
3,104,8,2,1,2,1,I,6,S,1,S,8,0.691713,0.374784,0.259243
3,105,8,1,1,9,1,I,7,L,8,L,9,0.689979,0.514142,0.354747
3,106,1,2,8,2,0,I,1,S,6,S,11,0.656814,0.581071,0.381656
3,107,2,8,9,8,1,I,6,S,1,S,7,0.308373,0.665886,0.205341
3,108,9,8,9,2,1,C,1,S,7,L,8,0.725757,0.320686,0.23274
3,109,1,8,8,2,1,I,7,L,6,S,8,0.455725,0.66782,0.304342
3,110,2,1,1,2,1,I,1,S,1,S,10,0.660464,0.496524,0.327936
3,111,2,8,8,9,1,C,6,S,1,S,7,0.282823,0.691155,0.195475
3,112,9,8,8,1,1,C,1,S,7,L,7,0.651338,0.319715,0.208243
3,113,1,2,1,9,1,C,1,S,8,L,7,0.238685,0.737942,0.176136
3,114,9,8,2,9,0,I,1,S,7,L,8,0.364961,0.673017,0.245625
3,115,8,2,8,9,1,I,6,S,1,S,7,0.661449,0.311822,0.206255
3,116,2,1,1,8,0,I,1,S,7,L,10,0.555715,0.650998,0.361769
3,117,2,8,2,1,1,I,6,S,1,S,8,0.384237,0.68454,0.263026
3,118,2,1,8,2,1,C,1,S,6,S,7,0.728031,0.246836,0.179704
3,119,8,1,2,8,1,I,7,L,6,S,8,0.663038,0.449752,0.298202
3,120,2,1,9,8,1,C,1,S,1,S,8,0.65584,0.356246,0.233641
3,121,9,2,1,9,1,I,7,L,8,L,9,0.669007,0.530631,0.354996
3,122,1,8,8,9,1,C,7,L,1,S,7,0.24921,0.740876,0.184633
3,123,9,2,9,2,1,C,7,L,7,L,6,0.717711,0.194505,0.139598
3,124,2,9,1,9,1,C,7,L,8,L,6,0.178897,0.739707,0.132331
3,125,9,8,1,8,0,I,1,S,7,L,8,0.34064,0.710554,0.242043
3,126,9,1,8,1,1,C,8,L,7,L,6,0.752656,0.171707,0.129236
3,127,8,9,1,8,1,C,1,S,7,L,7,0.263792,0.71183,0.187775
3,128,8,1,8,9,1,I,7,L,1,S,7,0.695262,0.2899,0.201557
3,129,8,9,8,1,0,I,1,S,7,L,9,0.673131,0.452161,0.304364
3,130,9,8,2,8,0,I,1,S,6,S,8,0.367068,0.669712,0.24583
3,131,1,8,2,8,1,C,7,L,6,S,6,0.18501,0.727102,0.134521
3,132,1,2,8,1,0,I,1,S,7,L,10,0.66084,0.531518,0.351249
3,133,9,8,9,8,1,C,1,S,1,S,12,0.684372,0.464469,0.317869
3,134,2,8,8,2,1,I,6,S,6,S,9,0.514361,0.669582,0.344407
3,135,8,9,9,1,0,I,1,S,8,L,9,0.681175,0.447327,0.304708
3,136,9,1,2,1,1,C,8,L,1,S,6,0.663079,0.228936,0.151803
3,137,8,1,1,8,1,I,7,L,7,L,9,0.691379,0.511956,0.353956
3,138,8,9,2,1,1,I,1,S,1,S,13,0.591504,0.680798,0.402695
3,139,2,8,1,2,1,C,6,S,1,S,7,0.240475,0.738221,0.177524
3,140,1,8,1,8,1,C,7,L,7,L,6,0.163666,0.761499,0.124631
3,141,2,1,8,1,1,C,1,S,7,L,7,0.744607,0.236462,0.176071
3,142,8,9,2,9,1,C,1,S,7,L,7,0.286225,0.676308,0.193576
3,143,2,9,9,2,1,I,7,L,7,L,9,0.506349,0.689413,0.349084
3,144,9,2,1,8,1,I,7,L,7,L,9,0.670407,0.528445,0.354273
4,1,2,9,8,2,1,I,7,L,6,S,9,0.489293,0.694664,0.339894
4,2,1,9,1,9,1,C,8,L,8,L,6,0.161797,0.765819,0.123907
4,3,2,8,9,2,1,I,6,S,7,L,9,0.519398,0.667582,0.346741
4,4,2,9,2,8,1,C,7,L,6,S,6,0.207746,0.694805,0.144343
4,5,9,2,1,8,1,I,7,L,7,L,9,0.687499,0.516116,0.354829
4,6,1,2,1,2,1,C,1,S,1,S,8,0.28025,0.750475,0.210321
4,7,9,1,9,2,1,C,8,L,7,L,6,0.758394,0.168318,0.127651
4,8,9,1,8,2,1,C,8,L,6,S,6,0.740642,0.179232,0.132747
4,9,1,2,9,8,1,I,1,S,1,S,9,0.433248,0.654239,0.283448
4,10,8,1,1,9,1,I,7,L,8,L,9,0.692871,0.51336,0.355692
4,11,9,2,1,2,1,I,7,L,1,S,8,0.714034,0.371312,0.265129
4,12,9,2,2,8,1,I,7,L,6,S,8,0.657013,0.457472,0.300565
4,13,8,9,2,8,1,C,1,S,6,S,8,0.32525,0.706472,0.22978
4,14,2,1,1,9,0,I,1,S,8,L,9,0.479295,0.658441,0.315587
4,15,1,8,2,1,1,I,7,L,1,S,8,0.363958,0.723005,0.263143
4,16,1,2,9,2,1,I,1,S,7,L,12,0.646019,0.651508,0.420887
4,17,9,1,1,2,1,I,8,L,1,S,7,0.675047,0.331664,0.223889
4,18,9,8,8,9,1,I,1,S,1,S,11,0.687394,0.48419,0.332829
4,19,8,9,1,8,1,C,1,S,7,L,7,0.307971,0.658903,0.202923
4,20,1,9,8,9,1,C,8,L,1,S,7,0.235271,0.75525,0.177689
4,21,2,8,9,8,1,I,6,S,1,S,8,0.340072,0.720762,0.245111
4,22,8,2,8,1,1,C,6,S,7,L,6,0.707695,0.198466,0.140453
4,23,1,2,8,2,1,I,1,S,6,S,12,0.624887,0.666435,0.416447
4,24,9,8,9,8,1,C,1,S,1,S,9,0.734231,0.336375,0.246977
4,25,8,2,1,2,1,I,6,S,1,S,8,0.68068,0.39107,0.266194
4,26,1,2,2,8,1,C,1,S,6,S,7,0.254394,0.717777,0.182598
4,27,9,1,2,9,1,I,8,L,7,L,8,0.685406,0.443942,0.30428
4,28,1,9,2,1,1,I,8,L,1,S,7,0.34207,0.65849,0.22525
4,29,9,8,2,8,0,I,1,S,6,S,10,0.51508,0.662293,0.341134
4,30,8,9,8,1,0,I,1,S,7,L,8,0.689399,0.352195,0.242803
4,31,1,9,2,8,1,C,8,L,6,S,6,0.185693,0.727904,0.135166
4,32,1,9,8,2,1,I,8,L,6,S,8,0.441145,0.67829,0.299224
4,33,2,8,2,9,1,C,6,S,7,L,6,0.207537,0.694288,0.14409
4,34,8,1,9,8,1,C,7,L,1,S,7,0.752161,0.235621,0.177225
4,35,1,8,9,1,1,I,7,L,8,L,9,0.513848,0.693572,0.356391
4,36,1,9,9,8,1,I,8,L,1,S,7,0.302329,0.689976,0.2086
4,37,2,8,2,8,1,C,6,S,6,S,6,0.213427,0.685125,0.146224
4,38,8,9,1,2,1,C,1,S,1,S,9,0.372694,0.691089,0.257565
4,39,9,1,2,1,1,C,8,L,1,S,6,0.683342,0.216691,0.148074
4,40,2,9,9,2,1,I,7,L,7,L,9,0.511482,0.680055,0.347836
4,41,8,2,9,8,1,C,6,S,1,S,7,0.710883,0.263522,0.187333
4,42,1,2,1,9,1,C,1,S,8,L,7,0.227163,0.760337,0.172721
4,43,2,8,8,9,1,C,6,S,1,S,7,0.266901,0.706932,0.188681
4,44,1,8,9,8,1,I,7,L,1,S,7,0.307256,0.6814,0.209365
4,45,9,1,1,9,1,I,8,L,8,L,8,0.663363,0.477649,0.316855
4,46,2,1,2,9,0,I,1,S,7,L,11,0.577778,0.661128,0.381985
4,47,8,2,1,9,1,I,6,S,8,L,10,0.694743,0.559696,0.388845
4,48,2,9,1,8,1,C,7,L,7,L,6,0.188016,0.725969,0.136494
4,49,2,9,2,9,1,C,7,L,7,L,6,0.201855,0.703968,0.1421
4,50,2,1,9,2,1,C,1,S,7,L,7,0.714384,0.258737,0.184838
4,51,8,1,9,1,1,C,7,L,8,L,6,0.757945,0.165787,0.125657
4,52,8,9,2,9,1,C,1,S,7,L,8,0.31776,0.717812,0.228092
4,53,1,8,1,8,1,C,7,L,7,L,6,0.170259,0.751336,0.127922
4,54,8,9,9,2,0,I,1,S,7,L,8,0.681025,0.358744,0.244314
4,55,9,1,2,8,1,I,8,L,6,S,8,0.692895,0.432602,0.299748
4,56,2,1,1,2,1,I,1,S,1,S,11,0.654317,0.552112,0.361256
4,57,2,1,8,9,1,I,1,S,1,S,10,0.677705,0.451263,0.305823
4,58,8,9,8,9,1,C,1,S,1,S,10,0.415366,0.674791,0.280285
4,59,8,1,2,9,1,I,7,L,7,L,8,0.660195,0.458298,0.302566
4,60,8,1,1,8,1,I,7,L,7,L,9,0.698071,0.50557,0.352924
4,61,1,2,2,1,1,I,1,S,1,S,10,0.515173,0.652312,0.336053
4,62,9,2,8,1,1,C,7,L,7,L,6,0.734671,0.183466,0.134787
4,63,1,9,8,1,1,I,8,L,7,L,8,0.471147,0.657897,0.309966
4,64,2,1,2,8,0,I,1,S,6,S,12,0.621991,0.656251,0.408182
4,65,1,9,1,8,1,C,8,L,7,L,6,0.165964,0.759067,0.125977
4,66,8,2,8,9,1,I,6,S,1,S,8,0.724999,0.3318,0.240554
4,67,9,8,8,1,1,C,1,S,7,L,7,0.705627,0.268282,0.189307
4,68,2,8,2,1,1,I,6,S,1,S,8,0.392891,0.680722,0.267449
4,69,9,2,9,8,1,C,7,L,1,S,7,0.741859,0.245794,0.182344
4,70,2,9,8,1,1,I,7,L,7,L,9,0.5199,0.673354,0.350077
4,71,2,8,1,2,1,C,6,S,1,S,7,0.232884,0.750783,0.174845
4,72,8,2,9,1,1,C,6,S,8,L,6,0.721684,0.190229,0.137285
4,73,2,9,8,9,1,C,7,L,1,S,7,0.260214,0.71811,0.186863
4,74,1,2,1,8,1,C,1,S,7,L,7,0.231832,0.752943,0.174556
4,75,9,2,9,2,1,C,7,L,7,L,6,0.727444,0.189092,0.137554
4,76,1,9,2,9,1,C,8,L,7,L,6,0.179802,0.737066,0.132526
4,77,8,2,8,2,1,C,6,S,6,S,6,0.682715,0.215006,0.146788
4,78,1,8,1,9,1,C,7,L,8,L,6,0.166093,0.758088,0.125913
4,79,8,2,2,8,1,I,6,S,6,S,9,0.678778,0.499111,0.338785
4,80,2,1,9,8,1,C,1,S,1,S,8,0.670479,0.338475,0.226941
4,81,2,1,9,1,1,C,1,S,8,L,7,0.737764,0.243234,0.179449
4,82,1,8,1,2,1,C,7,L,1,S,6,0.229491,0.661189,0.151737
4,83,8,2,1,8,1,I,6,S,7,L,9,0.653063,0.537236,0.350849
4,84,8,9,9,1,0,I,1,S,8,L,8,0.705457,0.342162,0.241381
4,85,2,8,1,9,1,C,6,S,8,L,6,0.189532,0.723041,0.137039
4,86,8,9,2,1,0,I,1,S,1,S,10,0.671453,0.444202,0.298261
4,87,2,9,1,9,1,C,7,L,8,L,6,0.18385,0.73272,0.134711
4,88,8,9,1,9,1,C,1,S,8,L,7,0.303302,0.666297,0.202089
4,89,1,2,8,1,0,I,1,S,7,L,12,0.653623,0.645104,0.421655
4,90,2,9,9,1,1,I,7,L,8,L,9,0.536173,0.662875,0.355416
4,91,8,1,9,2,1,C,7,L,7,L,6,0.736729,0.17965,0.132353
4,92,8,2,2,9,1,I,6,S,7,L,9,0.670876,0.510776,0.342667
4,93,2,1,8,2,1,C,1,S,6,S,7,0.694155,0.271363,0.188368
4,94,2,9,9,8,1,I,7,L,1,S,7,0.327272,0.652836,0.213655
4,95,9,2,2,9,1,I,7,L,7,L,9,0.705312,0.489656,0.34536
4,96,1,2,2,9,1,C,1,S,7,L,7,0.247568,0.728323,0.180309
4,97,8,1,8,9,1,I,7,L,1,S,7,0.685102,0.300895,0.206144
4,98,8,2,2,1,1,C,6,S,1,S,7,0.750623,0.232036,0.174171
4,99,9,8,1,2,1,I,1,S,1,S,12,0.653171,0.590285,0.385557
4,100,8,1,1,2,1,I,7,L,1,S,7,0.651085,0.344745,0.224458
4,101,9,8,8,2,1,C,1,S,6,S,7,0.67738,0.287112,0.194484
4,102,1,9,9,2,1,I,8,L,7,L,8,0.462773,0.664446,0.307488
4,103,1,8,8,2,1,I,7,L,6,S,8,0.446524,0.669259,0.29884
4,104,1,9,9,1,1,I,8,L,8,L,9,0.508178,0.702773,0.357134
4,105,8,2,9,2,1,C,6,S,7,L,6,0.700467,0.204092,0.14296
4,106,8,1,2,8,1,I,7,L,6,S,8,0.667684,0.446957,0.298426
4,107,8,1,8,2,1,C,7,L,6,S,6,0.718976,0.190564,0.137011
4,108,9,1,8,9,1,I,8,L,1,S,7,0.709064,0.287814,0.204078
4,109,1,2,9,1,0,I,1,S,8,L,10,0.654152,0.557417,0.364636
4,110,9,2,2,1,1,C,7,L,1,S,6,0.652391,0.237465,0.15492
4,111,2,1,1,8,0,I,1,S,7,L,9,0.484495,0.650652,0.315237
4,112,8,1,2,1,1,C,7,L,1,S,6,0.661676,0.228023,0.150877
4,113,1,9,1,2,1,C,8,L,1,S,6,0.225196,0.668921,0.150638
4,114,9,1,9,1,1,C,8,L,8,L,6,0.779611,0.154455,0.120415
4,115,8,1,8,1,1,C,7,L,7,L,6,0.743957,0.174024,0.129466
4,116,1,8,2,9,1,C,7,L,7,L,6,0.184098,0.729335,0.134269
4,117,9,8,1,9,0,I,1,S,8,L,9,0.450567,0.682034,0.307302
4,118,9,2,8,2,1,C,7,L,6,S,6,0.709691,0.200006,0.141942
4,119,2,8,1,8,1,C,6,S,7,L,6,0.193698,0.716289,0.138744
4,120,9,1,9,8,1,C,8,L,1,S,6,0.655893,0.23972,0.157231
4,121,2,9,2,1,1,I,7,L,1,S,8,0.385463,0.692792,0.267046
4,122,2,8,8,1,1,I,6,S,7,L,9,0.527816,0.660881,0.348824
4,123,1,8,9,2,1,I,7,L,7,L,8,0.468152,0.655415,0.306834
4,124,9,1,8,1,1,C,8,L,7,L,6,0.765622,0.162692,0.12456
4,125,2,1,2,1,1,C,1,S,1,S,8,0.723298,0.298435,0.215857
4,126,1,8,8,9,1,C,7,L,1,S,7,0.240198,0.746674,0.17935
4,127,9,2,8,9,1,I,7,L,1,S,7,0.674801,0.311068,0.209909
4,128,9,1,1,8,1,I,8,L,7,L,8,0.668368,0.469941,0.314094
4,129,2,8,9,1,1,I,6,S,8,L,9,0.544089,0.650402,0.353877
4,130,2,9,1,2,1,C,7,L,1,S,7,0.226197,0.761961,0.172353
4,131,9,8,9,1,1,C,1,S,8,L,7,0.720989,0.258982,0.186723
4,132,9,2,9,1,1,C,7,L,8,L,6,0.74866,0.175229,0.131187
4,133,2,1,8,1,1,C,1,S,7,L,7,0.722401,0.252534,0.182431
4,134,8,9,8,2,0,I,1,S,6,S,8,0.659397,0.372588,0.245683
4,135,9,8,2,1,1,C,1,S,1,S,8,0.700371,0.318299,0.222927
4,136,1,8,8,1,1,I,7,L,7,L,9,0.497576,0.704051,0.350319
4,137,9,8,2,9,0,I,1,S,7,L,10,0.506979,0.673949,0.341678
4,138,8,9,9,8,0,I,1,S,1,S,12,0.65262,0.519774,0.339215
4,139,9,2,1,9,1,I,7,L,8,L,9,0.682298,0.523906,0.35746
4,140,9,8,1,8,0,I,1,S,7,L,9,0.455767,0.674245,0.307299
4,141,9,8,9,2,1,C,1,S,7,L,7,0.69761,0.274486,0.191484
4,142,2,8,8,2,1,I,6,S,6,S,9,0.497209,0.682191,0.339192
4,143,1,8,2,8,1,C,7,L,6,S,6,0.189988,0.720172,0.136824
4,144,1,2,8,9,1,C,1,S,1,S,8,0.324568,0.691205,0.224343
5,1,9,8,8,9,1,I,1,S,1,S,12,0.6851,0.469943,0.321958
5,2,9,2,2,8,1,I,7,L,6,S,9,0.692257,0.491405,0.340179
5,3,1,8,1,2,1,C,7,L,1,S,6,0.228809,0.66147,0.15135
5,4,8,2,1,9,1,I,6,S,8,L,9,0.661515,0.533283,0.352775
5,5,9,1,8,2,1,C,8,L,6,S,6,0.729945,0.18434,0.134558
5,6,8,2,8,2,1,C,6,S,6,S,6,0.692001,0.208917,0.144571
5,7,9,2,2,9,1,I,7,L,7,L,9,0.685439,0.503847,0.345356
5,8,2,9,9,2,1,I,7,L,7,L,9,0.488211,0.698439,0.340986
5,9,1,9,8,1,1,I,8,L,7,L,8,0.47314,0.661189,0.312835
5,10,8,9,9,8,1,I,1,S,1,S,13,0.537167,0.657269,0.353064
5,11,9,1,8,9,1,I,8,L,1,S,7,0.719645,0.270899,0.194951
5,12,9,8,9,1,1,C,1,S,8,L,7,0.66986,0.297173,0.199064
5,13,8,1,2,1,1,C,7,L,1,S,7,0.772318,0.219398,0.169445
5,14,2,9,8,9,1,C,7,L,1,S,7,0.279215,0.699659,0.195355
5,15,9,8,1,8,0,I,1,S,7,L,8,0.369504,0.672181,0.248374
5,16,1,2,1,8,1,C,1,S,7,L,7,0.250328,0.728012,0.182242
5,17,8,2,9,1,1,C,6,S,8,L,6,0.720147,0.191967,0.138244
5,18,1,8,2,8,1,C,7,L,6,S,6,0.189613,0.720621,0.136639
5,19,1,8,1,9,1,C,7,L,8,L,6,0.171781,0.751174,0.129038
5,20,2,8,8,2,1,I,6,S,6,S,9,0.500237,0.676122,0.338221
5,21,1,8,8,9,1,C,7,L,1,S,7,0.267172,0.719735,0.192293
5,22,2,1,9,8,1,C,1,S,1,S,9,0.726254,0.342087,0.248442
5,23,2,8,1,8,1,C,6,S,7,L,6,0.196041,0.707353,0.13867
5,24,2,8,8,9,1,C,6,S,1,S,7,0.291348,0.67896,0.197814
5,25,2,9,9,8,1,I,7,L,1,S,7,0.300277,0.677988,0.203584
5,26,1,2,9,1,0,I,1,S,8,L,10,0.668084,0.533691,0.35655
5,27,9,1,8,1,1,C,8,L,7,L,6,0.756561,0.167594,0.126795
5,28,1,8,8,1,1,I,7,L,7,L,9,0.504432,0.699213,0.352705
5,29,8,9,8,1,0,I,1,S,7,L,8,0.680483,0.364708,0.248177
5,30,2,1,1,9,0,I,1,S,8,L,10,0.529086,0.668983,0.35395
5,31,9,1,9,1,1,C,8,L,8,L,6,0.75809,0.16739,0.126896
5,32,1,9,9,2,1,I,8,L,7,L,8,0.443527,0.681381,0.302211
5,33,8,9,1,8,1,C,1,S,7,L,7,0.301935,0.662441,0.200014
5,34,8,2,2,1,1,C,6,S,1,S,7,0.734472,0.244374,0.179486
5,35,9,1,9,8,1,C,8,L,1,S,7,0.740707,0.249227,0.184604
5,36,8,9,9,1,0,I,1,S,8,L,8,0.682321,0.364234,0.248524
5,37,1,9,8,2,1,I,8,L,6,S,8,0.441269,0.682023,0.300956
5,38,9,8,9,8,1,C,1,S,1,S,10,0.670227,0.417202,0.27962
5,39,8,9,1,9,1,C,1,S,8,L,7,0.29773,0.671391,0.199893
5,40,9,8,1,2,0,I,1,S,1,S,11,0.495112,0.670349,0.331898
5,41,9,2,8,9,1,I,7,L,1,S,7,0.683282,0.294856,0.20147
5,42,1,9,1,8,1,C,8,L,7,L,6,0.167244,0.757694,0.12672
5,43,9,2,1,8,1,I,7,L,7,L,9,0.67367,0.518905,0.349571
5,44,1,8,2,1,1,I,7,L,1,S,7,0.324738,0.665236,0.216027
5,45,1,9,1,2,1,C,8,L,1,S,6,0.220737,0.676063,0.149232
5,46,9,1,1,8,1,I,8,L,7,L,8,0.657391,0.471182,0.309751
5,47,1,2,2,1,1,I,1,S,1,S,10,0.495668,0.650903,0.322632
5,48,8,2,2,8,1,I,6,S,6,S,9,0.685198,0.496082,0.339914
5,49,9,2,1,9,1,I,7,L,8,L,9,0.668575,0.528606,0.353413
5,50,1,9,8,9,1,C,8,L,1,S,7,0.2579,0.735925,0.189795
5,51,1,2,9,8,1,I,1,S,1,S,9,0.411011,0.661757,0.271989
5,52,2,9,9,1,1,I,7,L,8,L,9,0.520283,0.676794,0.352124
5,53,9,8,8,1,1,C,1,S,7,L,7,0.668148,0.297519,0.198787
5,54,9,8,2,1,1,C,1,S,1,S,9,0.682461,0.372165,0.253988
5,55,8,1,8,9,1,I,7,L,1,S,7,0.714752,0.273898,0.195769
5,56,8,2,1,8,1,I,6,S,7,L,9,0.666611,0.523582,0.349025
5,57,9,8,8,2,1,C,1,S,6,S,8,0.726875,0.306253,0.222608
5,58,2,1,1,2,1,I,1,S,1,S,11,0.657354,0.551044,0.362231
5,59,1,2,8,9,1,C,1,S,1,S,9,0.36539,0.706636,0.258198
5,60,8,9,2,1,0,I,1,S,1,S,12,0.652203,0.538453,0.351181
5,61,1,9,9,8,1,I,8,L,1,S,7,0.278962,0.714254,0.19925
5,62,2,1,8,9,1,I,1,S,1,S,9,0.680633,0.386966,0.263382
5,63,2,1,9,1,1,C,1,S,8,L,7,0.732212,0.245709,0.179911
5,64,8,2,8,1,1,C,6,S,7,L,6,0.718618,0.192171,0.138097
5,65,2,1,2,8,0,I,1,S,6,S,12,0.627832,0.651424,0.408985
5,66,8,1,9,1,1,C,7,L,8,L,6,0.753667,0.170035,0.12815
5,67,8,1,2,9,1,I,7,L,7,L,8,0.663716,0.459492,0.304972
5,68,2,9,2,1,1,I,7,L,1,S,8,0.347466,0.72165,0.250749
5,69,9,1,2,8,1,I,8,L,6,S,8,0.675127,0.444245,0.299922
5,70,8,1,1,8,1,I,7,L,7,L,8,0.652255,0.474425,0.309446
5,71,1,9,2,8,1,C,8,L,6,S,6,0.18154,0.735215,0.133471
5,72,9,1,2,9,1,I,8,L,7,L,8,0.668852,0.456249,0.305163
5,73,2,8,9,1,1,I,6,S,8,L,9,0.534699,0.653687,0.349526
5,74,2,8,1,2,1,C,6,S,1,S,7,0.228979,0.751081,0.171982
5,75,8,1,8,1,1,C,7,L,7,L,6,0.752138,0.170239,0.128044
5,76,9,8,1,9,0,I,1,S,8,L,8,0.364782,0.68164,0.24865
5,77,1,2,8,1,0,I,1,S,7,L,10,0.666107,0.534367,0.355945
5,78,8,2,2,9,1,I,6,S,7,L,9,0.67838,0.508524,0.344972
5,79,9,2,2,1,1,C,7,L,1,S,7,0.740848,0.240357,0.178068
5,80,2,8,1,9,1,C,6,S,8,L,6,0.192507,0.715426,0.137724
5,81,9,2,9,2,1,C,7,L,7,L,6,0.699315,0.205183,0.143488
5,82,2,1,2,1,1,C,1,S,1,S,8,0.696838,0.315363,0.219757
5,83,2,8,2,9,1,C,6,S,7,L,6,0.205786,0.69459,0.142937
5,84,9,8,2,8,0,I,1,S,6,S,9,0.400288,0.696475,0.278791
5,85,1,2,1,9,1,C,1,S,8,L,7,0.246123,0.736963,0.181384
5,86,8,9,9,2,0,I,1,S,7,L,8,0.650869,0.3849,0.25052
5,87,2,9,1,9,1,C,7,L,8,L,6,0.182214,0.733372,0.133631
5,88,9,2,8,1,1,C,7,L,7,L,6,0.724162,0.188716,0.136661
5,89,2,9,2,9,1,C,7,L,7,L,6,0.195493,0.712536,0.139296
5,90,2,9,1,2,1,C,7,L,1,S,7,0.216846,0.771781,0.167357
5,91,2,8,8,1,1,I,6,S,7,L,9,0.532777,0.654271,0.34858
5,92,9,8,2,9,0,I,1,S,7,L,8,0.380965,0.657248,0.250388
5,93,1,2,2,9,1,C,1,S,7,L,7,0.261135,0.713776,0.186392
5,94,1,2,9,2,0,I,1,S,7,L,12,0.655277,0.630664,0.41326
5,95,9,1,2,1,1,C,8,L,1,S,6,0.65339,0.236196,0.154328
5,96,9,2,9,8,1,C,7,L,1,S,7,0.704344,0.273184,0.192416
5,97,8,1,2,8,1,I,7,L,6,S,8,0.669991,0.447489,0.299813
5,98,2,1,9,2,1,C,1,S,7,L,7,0.702534,0.264744,0.185992
5,99,8,9,2,8,1,C,1,S,6,S,8,0.308977,0.724533,0.223864
5,100,1,8,8,2,1,I,7,L,6,S,8,0.451399,0.664975,0.300169
5,101,8,1,1,9,1,I,7,L,8,L,9,0.702484,0.504993,0.354749
5,102,2,8,2,8,1,C,6,S,6,S,6,0.210338,0.684873,0.144055
5,103,2,8,9,8,1,I,6,S,1,S,7,0.31241,0.657288,0.205343
5,104,2,8,9,2,1,I,6,S,7,L,9,0.502628,0.675331,0.33944
5,105,1,9,1,9,1,C,8,L,8,L,6,0.163709,0.765767,0.125363
5,106,1,8,9,1,1,I,7,L,8,L,9,0.506354,0.698629,0.353754
5,107,1,2,2,8,1,C,1,S,6,S,7,0.266655,0.702643,0.187363
5,108,9,2,1,2,1,I,7,L,1,S,8,0.692263,0.385581,0.266923
5,109,1,8,9,8,1,I,7,L,1,S,7,0.288234,0.698063,0.201205
5,110,8,1,1,2,1,I,7,L,1,S,7,0.652383,0.346019,0.225737
5,111,2,9,1,8,1,C,7,L,7,L,6,0.185748,0.725299,0.134723
5,112,1,2,8,2,0,I,1,S,6,S,12,0.652741,0.631745,0.412365
5,113,8,2,1,2,1,I,6,S,1,S,8,0.685405,0.390002,0.267309
5,114,1,9,2,1,1,I,8,L,1,S,7,0.315466,0.681426,0.214967
5,115,8,1,8,2,1,C,7,L,6,S,6,0.725522,0.186985,0.135662
5,116,1,9,2,9,1,C,8,L,7,L,6,0.176988,0.744931,0.131844
5,117,8,9,8,9,1,C,1,S,1,S,11,0.437942,0.684035,0.299568
5,118,2,1,1,8,0,I,1,S,7,L,10,0.53443,0.659219,0.352306
5,119,8,2,9,2,1,C,6,S,7,L,6,0.693771,0.208638,0.144747
5,120,8,9,1,2,1,C,1,S,1,S,9,0.349624,0.717536,0.250868
5,121,2,9,8,2,1,I,7,L,6,S,9,0.48582,0.699229,0.3397
5,122,8,1,9,2,1,C,7,L,7,L,6,0.727292,0.186706,0.13579
5,123,9,2,8,2,1,C,7,L,6,S,6,0.697545,0.205462,0.143319
5,124,9,1,1,9,1,I,8,L,8,L,8,0.652669,0.480641,0.313699
5,125,8,1,9,8,1,C,7,L,1,S,7,0.735814,0.252226,0.185592
5,126,1,2,1,2,1,C,1,S,1,S,8,0.294408,0.731667,0.215408
5,127,2,8,2,1,1,I,6,S,1,S,8,0.360967,0.699301,0.252425
5,128,1,8,9,2,1,I,7,L,7,L,8,0.453657,0.664333,0.30138
5,129,2,9,8,1,1,I,7,L,7,L,9,0.51836,0.677378,0.351126
5,130,8,9,2,9,1,C,1,S,7,L,8,0.302702,0.736536,0.222951
5,131,8,9,8,2,0,I,1,S,6,S,9,0.701257,0.396856,0.278298
5,132,8,2,9,8,1,C,6,S,1,S,7,0.697968,0.277202,0.193478
5,133,2,1,2,9,0,I,1,S,7,L,11,0.584152,0.657754,0.384228
5,134,2,1,8,1,1,C,1,S,7,L,7,0.7305,0.246055,0.179743
5,135,1,9,9,1,1,I,8,L,8,L,8,0.474979,0.660715,0.313825
5,136,9,8,9,2,1,C,1,S,7,L,8,0.729133,0.305612,0.222831
5,137,9,2,9,1,1,C,7,L,8,L,6,0.725691,0.188512,0.136802
5,138,9,1,1,2,1,I,8,L,1,S,7,0.657276,0.34302,0.225459
5,139,1,8,1,8,1,C,7,L,7,L,6,0.175316,0.743101,0.130277
5,140,1,8,2,9,1,C,7,L,7,L,6,0.18506,0.730338,0.135156
5,141,9,1,9,2,1,C,8,L,7,L,6,0.731715,0.184061,0.13468
5,142,2,9,2,8,1,C,7,L,6,S,6,0.200045,0.70282,0.140596
5,143,2,1,8,2,1,C,1,S,6,S,7,0.700479,0.265212,0.185776
5,144,8,2,8,9,1,I,6,S,1,S,7,0.676906,0.298873,0.202309
6,1,1,2,8,2,1,I,1,S,6,S,13,0.634624,0.682183,0.432929
6,2,8,9,1,9,1,C,1,S,8,L,7,0.294182,0.677775,0.199389
6,3,1,2,2,8,1,C,1,S,6,S,7,0.26347,0.699349,0.184258
6,4,8,2,2,8,1,I,6,S,6,S,9,0.669215,0.499006,0.333942
6,5,8,1,1,2,1,I,7,L,1,S,7,0.661753,0.337833,0.223562
6,6,8,9,1,8,1,C,1,S,7,L,7,0.296999,0.673207,0.199942
6,7,2,8,2,8,1,C,6,S,6,S,6,0.216169,0.678423,0.146654
6,8,8,2,9,8,1,C,6,S,1,S,7,0.711057,0.260271,0.185067
6,9,1,8,8,2,1,I,7,L,6,S,8,0.44537,0.667812,0.297423
6,10,8,9,8,1,0,I,1,S,7,L,8,0.663287,0.384301,0.254902
6,11,1,2,1,2,1,C,1,S,1,S,8,0.291848,0.731905,0.213605
6,12,2,1,1,8,1,I,1,S,7,L,12,0.658689,0.643912,0.424137
6,13,9,2,8,2,1,C,7,L,6,S,6,0.681686,0.216026,0.147262
6,14,2,1,1,2,1,I,1,S,1,S,10,0.672963,0.4965,0.334126
6,15,2,9,9,1,1,I,7,L,8,L,9,0.534669,0.666307,0.356254
6,16,8,9,2,8,1,C,1,S,6,S,8,0.305419,0.729913,0.222929
6,17,2,8,9,1,1,I,6,S,8,L,10,0.558916,0.696,0.389005
6,18,9,2,2,9,1,I,7,L,7,L,9,0.681074,0.496521,0.338167
6,19,1,2,9,2,0,I,1,S,7,L,11,0.652973,0.594755,0.388359
6,20,8,1,2,9,1,I,7,L,7,L,8,0.674841,0.442035,0.298303
6,21,2,8,2,9,1,C,6,S,7,L,6,0.212787,0.683836,0.145512
6,22,2,1,8,2,1,C,1,S,6,S,7,0.72228,0.250952,0.181257
6,23,9,2,1,8,1,I,7,L,7,L,9,0.661532,0.527681,0.349078
6,24,9,1,8,9,1,I,8,L,1,S,7,0.71808,0.274951,0.197437
6,25,2,9,8,1,1,I,7,L,7,L,9,0.515862,0.678295,0.349906
6,26,9,2,1,9,1,I,7,L,8,L,9,0.658347,0.532551,0.350603
6,27,8,1,9,2,1,C,7,L,7,L,6,0.743067,0.176914,0.131459
6,28,9,2,9,8,1,C,7,L,1,S,7,0.725501,0.252529,0.18321
6,29,9,2,2,1,1,C,7,L,1,S,7,0.746665,0.232475,0.173581
6,30,2,1,8,1,1,C,1,S,7,L,7,0.751792,0.230515,0.173299
6,31,1,2,1,9,1,C,1,S,8,L,7,0.239968,0.738647,0.177251
6,32,9,2,9,2,1,C,7,L,7,L,6,0.702248,0.203419,0.14285
6,33,1,9,2,8,1,C,8,L,6,S,6,0.189851,0.721641,0.137004
6,34,1,8,1,8,1,C,7,L,7,L,6,0.177155,0.741032,0.131278
6,35,8,9,9,1,0,I,1,S,8,L,8,0.68182,0.372847,0.254214
6,36,1,9,1,2,1,C,8,L,1,S,6,0.229515,0.666283,0.152922
6,37,8,1,2,8,1,I,7,L,6,S,8,0.67925,0.435165,0.295586
6,38,9,8,2,8,0,I,1,S,6,S,8,0.376408,0.654517,0.246365
6,39,8,1,8,1,1,C,7,L,7,L,6,0.74846,0.171541,0.128392
6,40,8,2,1,8,1,I,6,S,7,L,10,0.69182,0.55249,0.382224
6,41,9,2,1,2,1,I,7,L,1,S,8,0.687159,0.385593,0.264964
6,42,1,8,2,1,1,I,7,L,1,S,8,0.358625,0.721647,0.2588
6,43,2,9,2,8,1,C,7,L,6,S,6,0.209687,0.691673,0.145035
6,44,2,1,2,8,1,I,1,S,6,S,12,0.683802,0.607096,0.415133
6,45,9,1,8,1,1,C,8,L,7,L,6,0.757608,0.167237,0.1267
6,46,8,9,9,2,0,I,1,S,7,L,8,0.657117,0.390281,0.25646
6,47,8,2,8,2,1,C,6,S,6,S,6,0.669393,0.222377,0.148858
6,48,8,2,8,1,1,C,6,S,7,L,6,0.695348,0.204398,0.142128
6,49,1,9,9,2,1,I,8,L,7,L,8,0.463906,0.664769,0.30839
6,50,1,9,8,1,1,I,8,L,7,L,8,0.470075,0.658789,0.30968
6,51,1,2,9,1,0,I,1,S,8,L,10,0.664992,0.537925,0.357716
6,52,9,2,8,9,1,I,7,L,1,S,7,0.661745,0.310285,0.20533
6,53,8,9,8,9,1,C,1,S,1,S,10,0.408342,0.687026,0.280541
6,54,1,8,8,1,1,I,7,L,7,L,9,0.497854,0.701002,0.348997
6,55,2,1,9,2,1,C,1,S,7,L,7,0.745827,0.2363,0.176239
6,56,2,9,2,9,1,C,7,L,7,L,6,0.206306,0.697085,0.143813
6,57,9,8,2,1,1,C,1,S,1,S,9,0.685466,0.37648,0.258065
6,58,8,2,1,9,1,I,6,S,8,L,10,0.688571,0.55733,0.383761
6,59,2,8,8,1,1,I,6,S,7,L,9,0.525577,0.661048,0.347432
6,60,9,1,9,8,1,C,8,L,1,S,6,0.658345,0.236715,0.15584
6,61,2,1,2,9,1,I,1,S,7,L,12,0.67895,0.613941,0.416835
6,62,2,9,8,2,1,I,7,L,6,S,9,0.483774,0.701344,0.339292
6,63,2,1,9,8,1,C,1,S,1,S,8,0.727959,0.297192,0.216343
6,64,9,8,1,8,0,I,1,S,7,L,8,0.353575,0.69173,0.244579
6,65,9,2,2,8,1,I,7,L,6,S,9,0.685766,0.489399,0.335613
6,66,2,8,1,9,1,C,6,S,8,L,6,0.195943,0.712992,0.139706
6,67,8,2,9,1,1,C,6,S,8,L,6,0.711421,0.195052,0.138764
6,68,1,8,9,2,1,I,7,L,7,L,8,0.470634,0.651694,0.306709
6,69,1,8,2,8,1,C,7,L,6,S,6,0.194896,0.710589,0.138491
6,70,1,2,2,9,1,C,1,S,7,L,7,0.259497,0.705668,0.183118
6,71,2,8,9,8,1,I,6,S,1,S,8,0.357016,0.707137,0.252459
6,72,8,9,2,1,0,I,1,S,1,S,12,0.656252,0.5569,0.365467
6,73,1,9,8,2,1,I,8,L,6,S,8,0.438642,0.680886,0.298665
6,74,2,1,8,9,1,I,1,S,1,S,9,0.704523,0.376457,0.265223
6,75,1,9,2,9,1,C,8,L,7,L,6,0.186469,0.727054,0.135573
6,76,2,9,1,8,1,C,7,L,7,L,6,0.191946,0.722115,0.138607
6,77,1,9,1,8,1,C,8,L,7,L,6,0.17211,0.752084,0.129441
6,78,1,9,9,1,1,I,8,L,8,L,9,0.509414,0.702437,0.357831
6,79,2,1,1,9,1,I,1,S,8,L,12,0.655466,0.648529,0.425088
6,80,9,8,8,9,1,I,1,S,1,S,16,0.670619,0.589202,0.39513
6,81,9,8,8,1,1,C,1,S,7,L,7,0.650372,0.315008,0.204873
6,82,9,8,9,2,1,C,1,S,7,L,8,0.728106,0.314885,0.22927
6,83,1,8,2,9,1,C,7,L,7,L,6,0.191515,0.716002,0.137125
6,84,1,8,9,8,1,I,7,L,1,S,7,0.322065,0.667754,0.21506
6,85,9,8,8,2,1,C,1,S,6,S,8,0.702842,0.331002,0.232642
6,86,8,9,1,2,1,C,1,S,1,S,9,0.343906,0.729779,0.250975
6,87,2,8,8,2,1,I,6,S,6,S,9,0.49349,0.684097,0.337595
6,88,2,8,2,1,1,I,6,S,1,S,8,0.385085,0.682588,0.262854
6,89,9,1,2,9,1,I,8,L,7,L,8,0.685516,0.436415,0.29917
6,90,9,2,8,1,1,C,7,L,7,L,6,0.707641,0.198046,0.140146
6,91,1,8,8,9,1,C,7,L,1,S,7,0.25831,0.72551,0.187406
6,92,8,2,9,2,1,C,6,S,7,L,6,0.689955,0.209771,0.144732
6,93,9,1,1,2,1,I,8,L,1,S,7,0.671878,0.332779,0.223587
6,94,1,2,9,8,1,I,1,S,1,S,10,0.477035,0.66902,0.319146
6,95,8,2,2,9,1,I,6,S,7,L,9,0.664523,0.506128,0.336333
6,96,2,8,1,2,1,C,6,S,1,S,7,0.236449,0.746727,0.176563
6,97,9,8,9,1,1,C,1,S,8,L,7,0.66807,0.30442,0.203374
6,98,2,8,9,2,1,I,6,S,7,L,9,0.519465,0.667049,0.346509
6,99,1,2,8,1,0,I,1,S,7,L,11,0.658518,0.589064,0.387909
6,100,9,8,9,8,1,C,1,S,1,S,9,0.651412,0.404847,0.263723
6,101,9,8,2,9,0,I,1,S,7,L,8,0.371999,0.661386,0.246035
6,102,8,2,1,2,1,I,6,S,1,S,8,0.671332,0.394423,0.264789
6,103,2,8,1,8,1,C,6,S,7,L,6,0.198428,0.708866,0.140659
6,104,1,9,8,9,1,C,8,L,1,S,7,0.252312,0.737842,0.186166
6,105,9,1,9,1,1,C,8,L,8,L,6,0.773682,0.157891,0.122157
6,106,9,2,9,1,1,C,7,L,8,L,6,0.723714,0.1887,0.136565
6,107,1,8,9,1,1,I,7,L,8,L,9,0.516662,0.689014,0.355987
6,108,9,8,1,2,0,I,1,S,1,S,10,0.451192,0.666127,0.300551
6,109,8,1,8,2,1,C,7,L,6,S,6,0.722505,0.189521,0.13693
6,110,8,9,8,2,0,I,1,S,6,S,9,0.679755,0.424134,0.288307
6,111,1,2,8,9,1,C,1,S,1,S,8,0.353993,0.651687,0.230693
6,112,8,9,2,9,1,C,1,S,7,L,8,0.301011,0.736782,0.221779
6,113,2,1,9,1,1,C,1,S,8,L,7,0.769489,0.219926,0.169231
6,114,9,1,1,8,1,I,8,L,7,L,8,0.667092,0.466758,0.311371
6,115,2,1,2,1,1,C,1,S,1,S,8,0.756028,0.272643,0.206125
6,116,8,1,9,8,1,C,7,L,1,S,7,0.771711,0.222249,0.171512
6,117,2,9,8,9,1,C,7,L,1,S,7,0.274783,0.704214,0.193506
6,118,1,2,2,1,1,I,1,S,1,S,11,0.527376,0.678974,0.358075
6,119,2,9,9,8,1,I,7,L,1,S,8,0.348069,0.723737,0.25191
6,120,8,1,8,9,1,I,7,L,1,S,7,0.707955,0.280006,0.198231
6,121,9,1,1,9,1,I,8,L,8,L,8,0.664046,0.471555,0.313134
6,122,2,8,8,9,1,C,6,S,1,S,7,0.282651,0.688899,0.194718
6,123,1,9,1,9,1,C,8,L,8,L,6,0.169625,0.75621,0.128272
6,124,2,9,2,1,1,I,7,L,1,S,8,0.376138,0.699187,0.262991
6,125,1,2,1,8,1,C,1,S,7,L,7,0.242785,0.734078,0.178223
6,126,8,9,9,8,1,I,1,S,1,S,15,0.627575,0.676855,0.424777
6,127,9,1,9,2,1,C,8,L,7,L,6,0.752215,0.172609,0.129839
6,128,9,1,2,1,1,C,8,L,1,S,6,0.672768,0.22138,0.148938
6,129,1,8,1,9,1,C,7,L,8,L,6,0.174671,0.745158,0.130157
6,130,2,9,9,2,1,I,7,L,7,L,9,0.50975,0.684296,0.34882
6,131,1,9,9,8,1,I,8,L,1,S,7,0.316067,0.680085,0.214953
6,132,1,9,2,1,1,I,8,L,1,S,7,0.337232,0.660032,0.222584
6,133,2,9,1,2,1,C,7,L,1,S,7,0.228581,0.762042,0.174188
6,134,1,8,1,2,1,C,7,L,1,S,6,0.234561,0.655232,0.153692
6,135,9,1,8,2,1,C,8,L,6,S,6,0.731654,0.185216,0.135514
6,136,8,1,1,8,1,I,7,L,7,L,8,0.656417,0.472378,0.310077
6,137,2,9,1,9,1,C,7,L,8,L,6,0.189462,0.726241,0.137595
6,138,9,1,2,8,1,I,8,L,6,S,8,0.689925,0.429546,0.296354
6,139,8,1,2,1,1,C,7,L,1,S,6,0.66362,0.225685,0.149769
6,140,9,8,1,9,0,I,1,S,8,L,8,0.350529,0.696527,0.244153
6,141,8,1,1,9,1,I,7,L,8,L,8,0.653371,0.477175,0.311772
6,142,8,1,9,1,1,C,7,L,8,L,6,0.764534,0.162195,0.124004
6,143,8,2,2,1,1,C,6,S,1,S,7,0.732221,0.240218,0.175892
6,144,8,2,8,9,1,I,6,S,1,S,8,0.733477,0.314205,0.230462
7,1,1,9,2,1,1,I,8,L,1,S,7,0.307312,0.697262,0.214277
7,2,9,8,9,1,1,C,1,S,8,L,7,0.665537,0.310068,0.206362
7,3,9,2,9,2,1,C,7,L,7,L,6,0.700629,0.204225,0.143086
7,4,2,1,2,8,1,I,1,S,6,S,13,0.673234,0.646985,0.435572
7,5,1,2,9,8,1,I,1,S,1,S,9,0.403561,0.683889,0.275991
7,6,1,9,2,8,1,C,8,L,6,S,6,0.170876,0.753148,0.128695
7,7,1,8,9,2,1,I,7,L,7,L,8,0.458254,0.669761,0.30692
7,8,9,8,2,9,0,I,1,S,7,L,8,0.367948,0.675692,0.24862
7,9,8,1,1,9,1,I,7,L,8,L,9,0.70383,0.505416,0.355727
7,10,9,8,1,9,0,I,1,S,8,L,8,0.349383,0.703514,0.245796
7,11,8,2,8,1,1,C,6,S,7,L,6,0.712251,0.196732,0.140122
7,12,1,2,8,2,1,I,1,S,6,S,12,0.608815,0.686203,0.41777
7,13,1,8,9,8,1,I,7,L,1,S,7,0.294935,0.698735,0.206081
7,14,8,9,2,9,1,C,1,S,7,L,7,0.300879,0.664617,0.199969
7,15,8,1,1,8,1,I,7,L,7,L,9,0.705114,0.50195,0.353932
7,16,2,8,1,2,1,C,6,S,1,S,7,0.237844,0.744245,0.177014
7,17,8,2,1,2,1,I,6,S,1,S,8,0.686318,0.388352,0.266533
7,18,9,2,1,2,1,I,7,L,1,S,8,0.684191,0.390316,0.267051
7,19,9,1,9,1,1,C,8,L,8,L,6,0.757799,0.169146,0.128178
7,20,9,8,9,2,1,C,1,S,7,L,8,0.72534,0.31952,0.231761
7,21,9,1,9,8,1,C,8,L,1,S,7,0.748638,0.242146,0.18128
7,22,1,9,8,1,1,I,8,L,7,L,8,0.456299,0.682339,0.311351
7,23,9,8,1,2,0,I,1,S,1,S,10,0.446012,0.676492,0.301723
7,24,8,9,9,2,0,I,1,S,7,L,9,0.686566,0.427358,0.29341
7,25,9,2,2,9,1,I,7,L,7,L,9,0.677329,0.507715,0.34389
7,26,1,9,9,1,1,I,8,L,8,L,8,0.469402,0.673504,0.316144
7,27,2,9,2,1,1,I,7,L,1,S,8,0.349613,0.724228,0.253199
7,28,1,9,9,2,1,I,8,L,7,L,8,0.444557,0.689636,0.306583
7,29,1,9,1,2,1,C,8,L,1,S,6,0.21314,0.689482,0.146956
7,30,8,2,9,2,1,C,6,S,7,L,6,0.702358,0.202544,0.142258
7,31,1,2,8,1,1,I,1,S,7,L,12,0.637286,0.665691,0.424235
7,32,2,9,9,2,1,I,7,L,7,L,9,0.499461,0.693065,0.346159
7,33,1,9,8,9,1,C,8,L,1,S,7,0.240942,0.760106,0.183142
7,34,2,9,8,9,1,C,7,L,1,S,7,0.271897,0.710851,0.193278
7,35,8,9,9,1,0,I,1,S,8,L,8,0.666411,0.389381,0.259488
7,36,2,1,8,1,1,C,1,S,7,L,7,0.732818,0.245493,0.179901
7,37,2,1,9,8,1,C,1,S,1,S,8,0.674768,0.335915,0.226665
7,38,1,9,1,8,1,C,8,L,7,L,6,0.155496,0.777248,0.120859
7,39,1,8,8,2,1,I,7,L,6,S,8,0.440599,0.681744,0.300376
7,40,1,8,1,9,1,C,7,L,8,L,6,0.166486,0.762519,0.126949
7,41,9,8,2,8,0,I,1,S,6,S,8,0.369434,0.67157,0.248101
7,42,2,9,1,9,1,C,7,L,8,L,6,0.182224,0.735602,0.134045
7,43,9,8,8,1,1,C,1,S,7,L,7,0.652994,0.318323,0.207863
7,44,2,8,1,8,1,C,6,S,7,L,6,0.199811,0.708004,0.141467
7,45,8,9,1,2,1,C,1,S,1,S,8,0.345797,0.666402,0.23044
7,46,2,9,9,8,1,I,7,L,1,S,7,0.312999,0.66862,0.209277
7,47,9,1,1,2,1,I,8,L,1,S,7,0.653973,0.346372,0.226518
7,48,8,1,9,1,1,C,7,L,8,L,6,0.759066,0.167854,0.127412
7,49,2,8,8,1,1,I,6,S,7,L,9,0.533809,0.65376,0.348983
7,50,1,9,8,2,1,I,8,L,6,S,8,0.426903,0.701619,0.299523
7,51,2,1,9,1,1,C,1,S,8,L,7,0.74536,0.237238,0.176827
7,52,2,1,2,9,0,I,1,S,7,L,12,0.637333,0.650999,0.414903
7,53,2,9,8,1,1,I,7,L,7,L,9,0.511445,0.685382,0.350535
7,54,9,8,2,1,1,C,1,S,1,S,9,0.662247,0.400251,0.265065
7,55,2,9,8,2,1,I,7,L,6,S,9,0.481366,0.705643,0.339672
7,56,8,1,2,8,1,I,7,L,6,S,8,0.668881,0.452403,0.302604
7,57,8,2,2,8,1,I,6,S,6,S,9,0.681205,0.501388,0.341548
7,58,2,8,8,9,1,C,6,S,1,S,7,0.291408,0.68225,0.198813
7,59,8,2,8,2,1,C,6,S,6,S,6,0.687953,0.212103,0.145917
7,60,1,2,1,8,1,C,1,S,7,L,7,0.221375,0.764222,0.16918
7,61,2,1,8,9,1,I,1,S,1,S,9,0.678774,0.396013,0.268803
7,62,2,8,1,9,1,C,6,S,8,L,6,0.199169,0.710814,0.141572
7,63,9,8,8,9,1,I,1,S,1,S,15,0.654403,0.585967,0.383459
7,64,1,2,2,1,1,I,1,S,1,S,10,0.461607,0.699238,0.322773
7,65,9,2,8,2,1,C,7,L,6,S,6,0.686224,0.213784,0.146704
7,66,2,8,9,2,1,I,6,S,7,L,9,0.521825,0.661443,0.345157
7,67,2,8,2,8,1,C,6,S,6,S,6,0.215191,0.683904,0.14717
7,68,8,9,8,9,1,C,1,S,1,S,10,0.394528,0.709164,0.279785
7,69,1,8,1,2,1,C,7,L,1,S,6,0.224771,0.671943,0.151034
7,70,8,1,8,1,1,C,7,L,7,L,6,0.747676,0.175227,0.131013
7,71,2,1,2,1,1,C,1,S,1,S,8,0.709988,0.30843,0.218982
7,72,2,8,9,8,1,I,6,S,1,S,8,0.335688,0.720943,0.242012
7,73,9,1,2,9,1,I,8,L,7,L,8,0.665967,0.457946,0.304977
7,74,8,1,9,8,1,C,7,L,1,S,7,0.750028,0.240764,0.18058
7,75,1,8,8,9,1,C,7,L,1,S,7,0.253834,0.740966,0.188082
7,76,1,8,1,8,1,C,7,L,7,L,6,0.167128,0.759709,0.126968
7,77,9,8,8,2,1,C,1,S,6,S,8,0.707686,0.331503,0.2346
7,78,1,2,9,2,1,I,1,S,7,L,12,0.625859,0.67355,0.421547
7,79,1,2,9,1,1,I,1,S,8,L,12,0.649675,0.656601,0.426578
7,80,9,1,8,2,1,C,8,L,6,S,6,0.722111,0.191891,0.138566
7,81,8,2,2,9,1,I,6,S,7,L,9,0.679479,0.505712,0.343621
7,82,2,1,9,2,1,C,1,S,7,L,7,0.721726,0.252175,0.182001
7,83,8,9,1,9,1,C,1,S,8,L,7,0.283684,0.691004,0.196027
7,84,9,1,1,9,1,I,8,L,8,L,9,0.702422,0.506836,0.356013
7,85,2,1,1,2,1,I,1,S,1,S,11,0.674322,0.538931,0.363413
7,86,9,2,2,8,1,I,7,L,6,S,9,0.679054,0.503391,0.341829
7,87,1,2,2,9,1,C,1,S,7,L,7,0.237679,0.740965,0.176112
7,88,9,1,1,8,1,I,8,L,7,L,9,0.703706,0.50337,0.354225
7,89,8,9,2,1,1,I,1,S,1,S,14,0.612835,0.674714,0.413488
7,90,9,2,8,9,1,I,7,L,1,S,7,0.666831,0.309641,0.206478
7,91,2,8,2,9,1,C,6,S,7,L,6,0.214338,0.687197,0.147293
7,92,1,2,1,2,1,C,1,S,1,S,7,0.291012,0.657768,0.191418
7,93,8,1,2,9,1,I,7,L,7,L,8,0.667395,0.456524,0.304682
7,94,9,2,9,8,1,C,7,L,1,S,7,0.707933,0.26741,0.189308
7,95,1,2,1,9,1,C,1,S,8,L,7,0.220484,0.767351,0.169189
7,96,8,1,8,9,1,I,7,L,1,S,7,0.708926,0.282995,0.200622
7,97,8,2,2,1,1,C,6,S,1,S,7,0.735196,0.244936,0.180076
7,98,1,8,9,1,1,I,7,L,8,L,8,0.483099,0.653628,0.315767
7,99,8,1,1,2,1,I,7,L,1,S,7,0.655362,0.34499,0.226093
7,100,8,9,1,8,1,C,1,S,7,L,7,0.284575,0.687875,0.195752
7,101,2,9,1,2,1,C,7,L,1,S,7,0.218333,0.772846,0.168738
7,102,1,2,2,8,1,C,1,S,6,S,7,0.23887,0.737177,0.17609
7,103,1,8,8,1,1,I,7,L,7,L,8,0.469996,0.662463,0.311355
7,104,9,2,2,1,1,C,7,L,1,S,7,0.733201,0.246797,0.180952
7,105,2,9,9,1,1,I,7,L,8,L,9,0.524686,0.676224,0.354805
7,106,9,2,8,1,1,C,7,L,7,L,6,0.710522,0.198413,0.140976
7,107,2,8,2,1,1,I,6,S,1,S,8,0.370908,0.693457,0.257209
7,108,9,1,2,1,1,C,8,L,1,S,7,0.773906,0.221533,0.171446
7,109,1,2,8,9,1,C,1,S,1,S,8,0.336408,0.682324,0.22954
7,110,2,8,8,2,1,I,6,S,6,S,9,0.503729,0.674021,0.339524
7,111,8,9,9,8,1,I,1,S,1,S,12,0.535395,0.663081,0.355011
7,112,8,9,8,2,0,I,1,S,6,S,9,0.66847,0.439936,0.294084
7,113,8,1,2,1,1,C,7,L,1,S,6,0.651132,0.240049,0.156304
7,114,9,1,8,1,1,C,8,L,7,L,6,0.746409,0.176519,0.131755
7,115,8,1,8,2,1,C,7,L,6,S,6,0.723378,0.190599,0.137875
7,116,1,9,1,9,1,C,8,L,8,L,6,0.154854,0.780058,0.120796
7,117,2,9,1,8,1,C,7,L,7,L,6,0.182866,0.732792,0.134003
7,118,2,1,1,8,0,I,1,S,7,L,10,0.544055,0.656862,0.357369
7,119,2,9,2,9,1,C,7,L,7,L,6,0.197394,0.711985,0.140541
7,120,9,8,1,8,0,I,1,S,7,L,8,0.35049,0.700176,0.245405
7,121,8,2,9,8,1,C,6,S,1,S,7,0.709928,0.265549,0.18852
7,122,1,9,2,9,1,C,8,L,7,L,6,0.170024,0.756441,0.128613
7,123,8,2,1,8,1,I,6,S,7,L,9,0.661402,0.530519,0.350886
7,124,1,8,2,1,1,I,7,L,1,S,7,0.320203,0.678122,0.217137
7,125,2,1,1,9,0,I,1,S,8,L,10,0.542631,0.660401,0.358354
7,126,8,2,9,1,1,C,6,S,8,L,6,0.723641,0.189358,0.137027
7,127,8,9,2,8,1,C,1,S,6,S,7,0.30207,0.66083,0.199617
7,128,2,1,8,2,1,C,1,S,6,S,7,0.705236,0.263165,0.185594
7,129,8,9,8,1,0,I,1,S,7,L,8,0.653308,0.398216,0.260158
7,130,8,2,1,9,1,I,6,S,8,L,9,0.660118,0.533984,0.352493
7,131,9,2,1,8,1,I,7,L,7,L,9,0.659251,0.532521,0.351065
7,132,9,8,9,8,1,C,1,S,1,S,10,0.673559,0.424189,0.285716
7,133,8,2,8,9,1,I,6,S,1,S,7,0.668827,0.307779,0.205851
7,134,8,1,9,2,1,C,7,L,7,L,6,0.737783,0.181039,0.133568
7,135,1,8,2,8,1,C,7,L,6,S,6,0.182508,0.735609,0.134254
7,136,9,2,1,9,1,I,7,L,8,L,9,0.657967,0.535987,0.352662
7,137,9,1,9,2,1,C,8,L,7,L,6,0.736516,0.182331,0.13429
7,138,1,9,9,8,1,I,8,L,1,S,7,0.282044,0.717875,0.202472
7,139,2,8,9,1,1,I,6,S,8,L,10,0.561852,0.69148,0.388509
7,140,2,9,2,8,1,C,7,L,6,S,6,0.198246,0.708692,0.140495
7,141,1,8,2,9,1,C,7,L,7,L,6,0.181656,0.738902,0.134226
7,142,9,1,2,8,1,I,8,L,6,S,8,0.667452,0.453824,0.302906
7,143,9,2,9,1,1,C,7,L,8,L,6,0.721912,0.191039,0.137913
7,144,9,1,8,9,1,I,8,L,1,S,7,0.707537,0.284377,0.201207
8,1,8,9,8,9,1,C,1,S,1,S,11,0.451566,0.668127,0.301703
8,2,9,2,9,8,1,C,7,L,1,S,7,0.703854,0.271984,0.191437
8,3,9,8,9,2,1,C,1,S,7,L,7,0.659326,0.302149,0.199215
8,4,9,8,9,1,1,C,1,S,8,L,7,0.688775,0.283146,0.195024
8,5,1,2,1,9,1,C,1,S,8,L,7,0.240705,0.740643,0.178277
8,6,9,1,1,9,1,I,8,L,8,L,9,0.70327,0.503666,0.354213
8,7,9,1,2,1,1,C,8,L,1,S,6,0.653234,0.235596,0.153899
8,8,8,2,9,1,1,C,6,S,8,L,6,0.720075,0.190727,0.137338
8,9,9,1,9,2,1,C,8,L,7,L,6,0.730438,0.184754,0.134951
8,10,2,9,2,9,1,C,7,L,7,L,6,0.202847,0.703371,0.142677
8,11,2,1,8,2,1,C,1,S,6,S,7,0.685898,0.279212,0.191511
8,12,8,2,9,2,1,C,6,S,7,L,6,0.693714,0.207482,0.143933
8,13,1,2,1,2,1,C,1,S,1,S,8,0.289349,0.735508,0.212819
8,14,9,8,8,1,1,C,1,S,7,L,7,0.682075,0.287449,0.196062
8,15,9,2,2,9,1,I,7,L,7,L,9,0.687331,0.499905,0.3436
8,16,8,1,1,8,1,I,7,L,7,L,9,0.695448,0.505965,0.351873
8,17,1,8,8,2,1,I,7,L,6,S,8,0.448659,0.667764,0.299598
8,18,1,9,9,8,1,I,8,L,1,S,7,0.280102,0.71078,0.199091
8,19,1,9,9,1,1,I,8,L,8,L,8,0.481178,0.653896,0.31464
8,20,2,1,2,9,0,I,1,S,7,L,10,0.526095,0.659726,0.347078
8,21,2,8,9,1,1,I,6,S,8,L,10,0.559274,0.692956,0.387552
8,22,1,9,1,9,1,C,8,L,8,L,6,0.166377,0.760843,0.126587
8,23,8,9,8,2,0,I,1,S,6,S,8,0.658435,0.374999,0.246912
8,24,2,9,1,8,1,C,7,L,7,L,6,0.190178,0.721413,0.137196
8,25,1,8,2,1,1,I,7,L,1,S,7,0.332325,0.659718,0.219241
8,26,2,1,8,1,1,C,1,S,7,L,7,0.717942,0.258409,0.185523
8,27,1,8,2,9,1,C,7,L,7,L,6,0.186855,0.728046,0.136039
8,28,8,9,9,1,0,I,1,S,8,L,8,0.699496,0.347774,0.243267
8,29,8,1,1,2,1,I,7,L,1,S,8,0.71856,0.366054,0.263032
8,30,8,2,9,8,1,C,6,S,1,S,7,0.692885,0.27912,0.193398
8,31,9,2,8,9,1,I,7,L,1,S,7,0.679437,0.298651,0.202915
8,32,1,8,1,8,1,C,7,L,7,L,6,0.174186,0.746088,0.129958
8,33,8,1,8,2,1,C,7,L,6,S,6,0.714469,0.195022,0.139337
8,34,8,1,2,1,1,C,7,L,1,S,7,0.770032,0.220276,0.16962
8,35,8,1,9,1,1,C,7,L,8,L,6,0.748896,0.172995,0.129555
8,36,8,2,1,2,1,I,6,S,1,S,8,0.683475,0.388513,0.265539
8,37,9,1,8,2,1,C,8,L,6,S,6,0.722372,0.190026,0.137269
8,38,2,8,1,8,1,C,6,S,7,L,6,0.199526,0.706672,0.140999
8,39,8,1,1,9,1,I,7,L,8,L,9,0.693863,0.51003,0.353891
8,40,9,2,2,1,1,C,7,L,1,S,7,0.748176,0.233634,0.1748
8,41,9,2,8,1,1,C,7,L,7,L,6,0.723498,0.188404,0.13631
8,42,9,8,1,8,0,I,1,S,7,L,8,0.388702,0.659846,0.256484
8,43,1,9,9,2,1,I,8,L,7,L,8,0.450116,0.674432,0.303573
8,44,9,1,2,9,1,I,8,L,7,L,8,0.66481,0.457455,0.30412
8,45,1,8,9,2,1,I,7,L,7,L,8,0.458658,0.661075,0.303208
8,46,9,1,8,1,1,C,8,L,7,L,6,0.750705,0.171836,0.128999
8,47,8,1,2,8,1,I,7,L,6,S,8,0.65735,0.458795,0.301589
8,48,9,2,8,2,1,C,7,L,6,S,6,0.695165,0.206593,0.143616
8,49,2,1,1,2,1,I,1,S,1,S,12,0.673646,0.57406,0.386713
8,50,2,1,9,8,1,C,1,S,1,S,9,0.706091,0.358541,0.253163
8,51,8,9,1,2,1,C,1,S,1,S,9,0.370564,0.694185,0.25724
8,52,1,2,2,1,1,I,1,S,1,S,10,0.499658,0.65139,0.325472
8,53,9,1,2,8,1,I,8,L,6,S,8,0.666613,0.452694,0.301771
8,54,1,8,2,8,1,C,7,L,6,S,6,0.187938,0.724232,0.136111
8,55,9,8,2,1,1,C,1,S,1,S,9,0.723397,0.3421,0.247474
8,56,1,8,9,8,1,I,7,L,1,S,7,0.288003,0.698068,0.201045
8,57,8,2,2,8,1,I,6,S,6,S,9,0.677254,0.503175,0.340777
8,58,1,2,2,8,1,C,1,S,6,S,7,0.257508,0.712428,0.183456
8,59,1,2,1,8,1,C,1,S,7,L,7,0.241838,0.736973,0.178228
8,60,1,9,1,8,1,C,8,L,7,L,6,0.167218,0.757551,0.126676
8,61,2,8,2,8,1,C,6,S,6,S,6,0.213278,0.684817,0.146056
8,62,9,1,1,2,1,I,8,L,1,S,7,0.654125,0.343842,0.224916
8,63,1,9,8,2,1,I,8,L,6,S,8,0.440117,0.68112,0.299773
8,64,8,1,8,1,1,C,7,L,7,L,6,0.742802,0.176833,0.131352
8,65,1,2,8,2,1,I,1,S,6,S,13,0.640556,0.678699,0.434745
8,66,9,8,9,8,1,C,1,S,1,S,10,0.707401,0.389589,0.275596
8,67,9,1,9,1,1,C,8,L,8,L,6,0.756799,0.167999,0.127141
8,68,2,9,8,2,1,I,7,L,6,S,9,0.489821,0.693682,0.33978
8,69,9,8,8,9,1,I,1,S,1,S,11,0.67674,0.462319,0.31287
8,70,2,9,8,1,1,I,7,L,7,L,9,0.524612,0.669986,0.351483
8,71,9,8,1,9,0,I,1,S,8,L,8,0.38732,0.663762,0.257089
8,72,2,8,8,1,1,I,6,S,7,L,9,0.537428,0.650817,0.349767
8,73,2,8,2,1,1,I,6,S,1,S,8,0.376209,0.68771,0.258723
8,74,1,9,1,2,1,C,8,L,1,S,6,0.224102,0.670881,0.150346
8,75,1,2,2,9,1,C,1,S,7,L,7,0.256038,0.716809,0.18353
8,76,9,2,9,2,1,C,7,L,7,L,6,0.703231,0.201321,0.141575
8,77,8,2,8,9,1,I,6,S,1,S,7,0.668469,0.305787,0.204409
8,78,8,9,1,8,1,C,1,S,7,L,7,0.309328,0.656804,0.203168
8,79,2,9,8,9,1,C,7,L,1,S,7,0.281852,0.696825,0.196401
8,80,9,2,9,1,1,C,7,L,8,L,6,0.729592,0.184567,0.134658
8,81,2,1,9,2,1,C,1,S,7,L,7,0.695193,0.273109,0.189864
8,82,2,1,8,9,1,I,1,S,1,S,9,0.652791,0.413414,0.269873
8,83,9,8,2,8,0,I,1,S,6,S,9,0.426441,0.679546,0.289787
8,84,9,8,8,2,1,C,1,S,6,S,7,0.650031,0.308252,0.200373
8,85,8,9,9,2,0,I,1,S,7,L,8,0.668434,0.368311,0.246191
8,86,9,2,1,2,1,I,7,L,1,S,8,0.69528,0.380685,0.264683
8,87,9,8,2,9,0,I,1,S,7,L,9,0.424369,0.684535,0.290495
8,88,8,9,8,1,0,I,1,S,7,L,8,0.692499,0.352388,0.244029
8,89,8,1,2,9,1,I,7,L,7,L,8,0.655547,0.463556,0.303883
8,90,8,1,9,8,1,C,7,L,1,S,7,0.725709,0.258626,0.187687
8,91,9,2,1,9,1,I,7,L,8,L,9,0.670022,0.525467,0.352074
8,92,2,8,9,8,1,I,6,S,1,S,7,0.317204,0.653029,0.207143
8,93,1,9,2,8,1,C,8,L,6,S,6,0.18097,0.735696,0.133139
8,94,8,9,1,9,1,C,1,S,8,L,7,0.308195,0.660474,0.203555
8,95,1,2,9,1,0,I,1,S,8,L,10,0.662569,0.540655,0.358221
8,96,2,9,2,1,1,I,7,L,1,S,8,0.364125,0.706257,0.257166
8,97,9,8,1,2,0,I,1,S,1,S,13,0.604409,0.653235,0.394821
8,98,2,1,1,9,0,I,1,S,8,L,9,0.472529,0.660982,0.312333
8,99,9,1,9,8,1,C,8,L,1,S,7,0.73451,0.252972,0.18581
8,100,8,2,2,9,1,I,6,S,7,L,9,0.675182,0.508163,0.343102
8,101,8,2,2,1,1,C,6,S,1,S,7,0.737208,0.24077,0.177497
8,102,8,1,9,2,1,C,7,L,7,L,6,0.722535,0.18975,0.137101
8,103,2,8,9,2,1,I,6,S,7,L,9,0.51292,0.667463,0.342356
8,104,8,2,1,8,1,I,6,S,7,L,9,0.659457,0.52966,0.349288
8,105,2,9,9,2,1,I,7,L,7,L,9,0.500105,0.686633,0.343389
8,106,1,2,8,9,1,C,1,S,1,S,9,0.347957,0.725832,0.252558
8,107,1,9,2,1,1,I,8,L,1,S,7,0.324425,0.67243,0.218153
8,108,2,9,1,2,1,C,7,L,1,S,7,0.225884,0.761028,0.171904
8,109,1,8,9,1,1,I,7,L,8,L,9,0.510924,0.695473,0.355334
8,110,1,8,8,9,1,C,7,L,1,S,7,0.263586,0.724735,0.19103
8,111,9,2,2,8,1,I,7,L,6,S,9,0.689403,0.494917,0.341197
8,112,8,9,2,8,1,C,1,S,6,S,8,0.319208,0.715694,0.228455
8,113,1,2,9,2,1,I,1,S,7,L,13,0.649909,0.671729,0.436562
8,114,9,1,1,8,1,I,8,L,7,L,9,0.704855,0.499601,0.352146
8,115,2,1,1,8,0,I,1,S,7,L,9,0.474114,0.656917,0.311454
8,116,8,9,9,8,1,I,1,S,1,S,16,0.592632,0.671986,0.398241
8,117,1,9,8,9,1,C,8,L,1,S,7,0.255686,0.737447,0.188555
8,118,1,8,1,2,1,C,7,L,1,S,6,0.23107,0.659417,0.152372
8,119,2,1,9,1,1,C,1,S,8,L,7,0.724642,0.254105,0.184136
8,120,8,1,8,9,1,I,7,L,1,S,7,0.701293,0.285293,0.200074
8,121,1,9,2,9,1,C,8,L,7,L,6,0.179887,0.73951,0.133029
8,122,1,8,1,9,1,C,7,L,8,L,6,0.173345,0.749379,0.129901
8,123,2,9,2,8,1,C,7,L,6,S,6,0.203929,0.699557,0.14266
8,124,1,2,8,1,0,I,1,S,7,L,10,0.65556,0.545518,0.35762
8,125,2,9,9,8,1,I,7,L,1,S,7,0.306268,0.670158,0.205248
8,126,9,1,8,9,1,I,8,L,1,S,7,0.710093,0.279639,0.19857
8,127,8,9,2,9,1,C,1,S,7,L,8,0.317405,0.720454,0.228676
8,128,8,2,1,9,1,I,6,S,8,L,9,0.657872,0.533725,0.351123
8,129,2,8,2,9,1,C,6,S,7,L,6,0.212195,0.68863,0.146124
8,130,8,9,2,1,0,I,1,S,1,S,11,0.675925,0.474182,0.320511
8,131,2,9,9,1,1,I,7,L,8,L,9,0.531687,0.665195,0.353675
8,132,2,8,8,2,1,I,6,S,6,S,9,0.502636,0.674512,0.339034
8,133,2,1,2,8,0,I,1,S,6,S,10,0.528372,0.65462,0.345883
8,134,2,8,8,9,1,C,6,S,1,S,7,0.292787,0.679696,0.199006
8,135,1,9,8,1,1,I,8,L,7,L,8,0.474181,0.65851,0.312253
8,136,8,2,8,2,1,C,6,S,6,S,6,0.685648,0.212754,0.145874
8,137,8,2,8,1,1,C,6,S,7,L,6,0.713981,0.194565,0.138916
8,138,9,2,1,8,1,I,7,L,7,L,9,0.671607,0.521402,0.350177
8,139,1,8,8,1,1,I,7,L,7,L,9,0.503849,0.700265,0.352828
8,140,2,8,1,2,1,C,6,S,1,S,7,0.236819,0.7439,0.17617
8,141,2,8,1,9,1,C,6,S,8,L,6,0.198685,0.709964,0.141059
8,142,2,1,2,1,1,C,1,S,1,S,8,0.690728,0.322354,0.222659
8,143,2,9,1,9,1,C,7,L,8,L,6,0.189336,0.724704,0.137213
8,144,1,2,9,8,1,I,1,S,1,S,9,0.401257,0.670959,0.269227
9,1,8,1,2,1,1,C,7,L,1,S,6,0.650475,0.241284,0.15695
9,2,1,9,8,1,1,I,8,L,7,L,8,0.46499,0.670465,0.31176
9,3,8,9,9,1,0,I,1,S,8,L,8,0.676825,0.37888,0.256435
9,4,2,1,1,8,0,I,1,S,7,L,11,0.599385,0.658187,0.394508
9,5,1,9,2,1,1,I,8,L,1,S,7,0.316066,0.685099,0.216537
9,6,2,1,1,9,0,I,1,S,8,L,10,0.55465,0.652875,0.362117
9,7,1,8,2,9,1,C,7,L,7,L,6,0.176542,0.740535,0.130735
9,8,9,8,2,8,0,I,1,S,6,S,8,0.372778,0.662036,0.246793
9,9,2,8,8,2,1,I,6,S,6,S,9,0.497592,0.683418,0.340063
9,10,9,8,2,1,1,C,1,S,1,S,9,0.666276,0.390335,0.260071
9,11,2,9,1,2,1,C,7,L,1,S,7,0.236113,0.75064,0.177236
9,12,2,1,1,2,1,I,1,S,1,S,10,0.663424,0.494876,0.328313
9,13,8,1,8,1,1,C,7,L,7,L,6,0.746781,0.17692,0.13212
9,14,2,9,2,8,1,C,7,L,6,S,6,0.2065,0.70043,0.144639
9,15,9,1,1,8,1,I,8,L,7,L,8,0.664156,0.47008,0.312206
9,16,9,2,8,1,1,C,7,L,7,L,6,0.718123,0.191435,0.137474
9,17,8,1,9,1,1,C,7,L,8,L,6,0.753776,0.172182,0.129786
9,18,2,9,9,2,1,I,7,L,7,L,9,0.502812,0.687828,0.345848
9,19,2,1,2,1,1,C,1,S,1,S,8,0.720118,0.303421,0.218499
9,20,1,9,1,8,1,C,8,L,7,L,6,0.165982,0.763076,0.126657
9,21,1,2,9,2,1,I,1,S,7,L,12,0.634801,0.65567,0.41622
9,22,8,2,2,9,1,I,6,S,7,L,9,0.665963,0.514289,0.342497
9,23,8,9,8,9,1,C,1,S,1,S,10,0.389595,0.714453,0.278347
9,24,2,8,2,8,1,C,6,S,6,S,6,0.209766,0.691188,0.144988
9,25,9,1,9,8,1,C,8,L,1,S,7,0.752781,0.241865,0.182071
9,26,9,2,9,8,1,C,7,L,1,S,7,0.709059,0.267101,0.189391
9,27,1,8,8,2,1,I,7,L,6,S,8,0.44198,0.678575,0.299916
9,28,9,8,8,1,1,C,1,S,7,L,7,0.653339,0.312336,0.204061
9,29,1,2,8,1,0,I,1,S,7,L,12,0.650411,0.645226,0.419662
9,30,9,1,2,1,1,C,8,L,1,S,6,0.66074,0.23401,0.15462
9,31,1,9,1,9,1,C,8,L,8,L,6,0.161471,0.768726,0.124127
9,32,2,1,9,8,1,C,1,S,1,S,8,0.673082,0.341868,0.230105
9,33,1,9,8,9,1,C,8,L,1,S,7,0.236777,0.758751,0.179654
9,34,9,2,1,9,1,I,7,L,8,L,9,0.666844,0.526465,0.35107
9,35,8,2,9,2,1,C,6,S,7,L,6,0.691319,0.20855,0.144174
9,36,8,9,1,9,1,C,1,S,8,L,7,0.294568,0.681071,0.200622
9,37,8,2,9,1,1,C,6,S,8,L,6,0.711613,0.19633,0.139711
9,38,2,9,2,9,1,C,7,L,7,L,6,0.200745,0.707677,0.142062
9,39,1,2,2,1,1,I,1,S,1,S,10,0.474668,0.678506,0.322065
9,40,9,1,8,9,1,I,8,L,1,S,7,0.706828,0.286829,0.202738
9,41,1,8,2,8,1,C,7,L,6,S,6,0.182297,0.733288,0.133676
9,42,2,8,8,9,1,C,6,S,1,S,7,0.271006,0.702965,0.190508
9,43,8,2,1,2,1,I,6,S,1,S,8,0.689785,0.375028,0.258689
9,44,9,2,8,2,1,C,7,L,6,S,6,0.696127,0.204897,0.142634
9,45,1,8,1,2,1,C,7,L,1,S,6,0.230718,0.660846,0.152469
9,46,1,2,1,8,1,C,1,S,7,L,7,0.231981,0.747426,0.173388
9,47,9,8,8,9,1,I,1,S,1,S,17,0.668661,0.633318,0.423475
9,48,8,2,2,8,1,I,6,S,6,S,9,0.673074,0.505369,0.340151
9,49,9,8,9,8,1,C,1,S,1,S,10,0.658636,0.429845,0.283111
9,50,1,8,1,8,1,C,7,L,7,L,6,0.168319,0.75557,0.127177
9,51,8,9,9,8,1,I,1,S,1,S,13,0.541629,0.681431,0.369083
9,52,8,2,8,9,1,I,6,S,1,S,8,0.730559,0.323515,0.236347
9,53,8,1,8,9,1,I,7,L,1,S,7,0.695522,0.294891,0.205103
9,54,2,1,8,1,1,C,1,S,7,L,7,0.740281,0.242484,0.179506
9,55,2,8,8,1,1,I,6,S,7,L,9,0.524735,0.665561,0.349243
9,56,9,1,9,2,1,C,8,L,7,L,6,0.743746,0.177127,0.131737
9,57,1,9,9,2,1,I,8,L,7,L,8,0.449111,0.679997,0.305394
9,58,2,9,8,9,1,C,7,L,1,S,7,0.26677,0.713652,0.190381
9,59,8,2,8,1,1,C,6,S,7,L,6,0.704618,0.201068,0.141676
9,60,1,9,8,2,1,I,8,L,6,S,8,0.438467,0.687422,0.301412
9,61,8,2,2,1,1,C,6,S,1,S,7,0.726765,0.249462,0.1813
9,62,1,8,9,1,1,I,7,L,8,L,8,0.476564,0.655984,0.312618
9,63,1,2,8,9,1,C,1,S,1,S,8,0.328654,0.681929,0.224118
9,64,2,1,8,9,1,I,1,S,1,S,9,0.667422,0.41301,0.275652
9,65,1,8,9,8,1,I,7,L,1,S,7,0.285708,0.705457,0.201555
9,66,8,9,9,2,0,I,1,S,7,L,8,0.652884,0.394046,0.257267
9,67,9,2,9,1,1,C,7,L,8,L,6,0.725118,0.186698,0.135378
9,68,8,2,1,8,1,I,6,S,7,L,9,0.654792,0.532637,0.348767
9,69,9,2,8,9,1,I,7,L,1,S,7,0.663107,0.312064,0.206932
9,70,2,9,1,8,1,C,7,L,7,L,6,0.192522,0.722712,0.139138
9,71,2,9,2,1,1,I,7,L,1,S,8,0.357932,0.715711,0.256176
9,72,1,9,1,2,1,C,8,L,1,S,6,0.228381,0.668351,0.152639
9,73,8,9,2,9,1,C,1,S,7,L,7,0.309049,0.657989,0.203351
9,74,1,8,8,9,1,C,7,L,1,S,7,0.239756,0.750421,0.179918
9,75,2,1,8,2,1,C,1,S,6,S,7,0.715372,0.257995,0.184562
9,76,2,8,1,8,1,C,6,S,7,L,6,0.195789,0.71347,0.139689
9,77,9,8,9,2,1,C,1,S,7,L,8,0.722703,0.314408,0.227223
9,78,9,8,9,1,1,C,1,S,8,L,7,0.661055,0.307053,0.202979
9,79,1,2,2,8,1,C,1,S,6,S,7,0.247991,0.722279,0.179119
9,80,9,2,2,8,1,I,7,L,6,S,9,0.690373,0.492777,0.3402
9,81,9,2,1,8,1,I,7,L,7,L,9,0.672091,0.520045,0.349518
9,82,1,8,1,9,1,C,7,L,8,L,6,0.163808,0.76122,0.124694
9,83,1,2,1,2,1,C,1,S,1,S,8,0.28788,0.733442,0.211143
9,84,9,1,2,8,1,I,8,L,6,S,8,0.68158,0.443376,0.302196
9,85,2,8,1,9,1,C,6,S,8,L,6,0.191277,0.71912,0.137551
9,86,1,9,2,8,1,C,8,L,6,S,6,0.17996,0.740794,0.133313
9,87,8,9,1,2,1,C,1,S,1,S,9,0.358042,0.712722,0.255184
9,88,8,1,9,8,1,C,7,L,1,S,7,0.741475,0.249928,0.185315
9,89,1,2,8,2,1,I,1,S,6,S,12,0.624602,0.663423,0.414375
9,90,1,8,9,2,1,I,7,L,7,L,8,0.452624,0.67115,0.303778
9,91,9,8,1,9,0,I,1,S,8,L,8,0.350196,0.695161,0.243443
9,92,8,1,1,9,1,I,7,L,8,L,9,0.702464,0.505907,0.355381
9,93,8,2,8,2,1,C,6,S,6,S,6,0.682622,0.214529,0.146442
9,94,9,2,1,2,1,I,7,L,1,S,8,0.706622,0.363006,0.256508
9,95,1,8,2,1,1,I,7,L,1,S,7,0.319045,0.676769,0.21592
9,96,9,8,2,9,0,I,1,S,7,L,8,0.365885,0.670819,0.245442
9,97,2,1,2,8,1,I,1,S,6,S,12,0.654957,0.636949,0.417174
9,98,8,1,1,8,1,I,7,L,7,L,8,0.652368,0.478635,0.312246
9,99,8,9,1,8,1,C,1,S,7,L,7,0.299492,0.674875,0.20212
9,100,9,1,8,2,1,C,8,L,6,S,6,0.735049,0.183107,0.134592
9,101,2,9,8,1,1,I,7,L,7,L,9,0.519061,0.677738,0.351788
9,102,1,2,9,8,1,I,1,S,1,S,9,0.39901,0.678936,0.270902
9,103,2,8,2,9,1,C,6,S,7,L,6,0.204011,0.698434,0.142489
9,104,1,2,2,9,1,C,1,S,7,L,7,0.241538,0.730541,0.176453
9,105,1,2,1,9,1,C,1,S,8,L,7,0.227057,0.753622,0.171115
9,106,9,1,2,9,1,I,8,L,7,L,8,0.674686,0.452158,0.305064
9,107,8,1,1,2,1,I,7,L,1,S,7,0.664865,0.33188,0.220655
9,108,2,8,9,8,1,I,6,S,1,S,7,0.316959,0.658002,0.208559
9,109,1,9,2,9,1,C,8,L,7,L,6,0.174205,0.74804,0.130312
9,110,8,2,1,9,1,I,6,S,8,L,10,0.696438,0.553879,0.385742
9,111,9,1,1,2,1,I,8,L,1,S,7,0.676171,0.323817,0.218956
9,112,9,8,8,2,1,C,1,S,6,S,8,0.712059,0.321833,0.229164
9,113,2,8,9,1,1,I,6,S,8,L,9,0.532873,0.659739,0.351557
9,114,8,1,2,9,1,I,7,L,7,L,8,0.662898,0.460713,0.305406
9,115,9,8,1,2,0,I,1,S,1,S,11,0.477094,0.674629,0.321862
9,116,9,1,8,1,1,C,8,L,7,L,6,0.757045,0.169645,0.128429
9,117,2,8,1,2,1,C,6,S,1,S,7,0.240349,0.739953,0.177847
9,118,2,8,9,2,1,I,6,S,7,L,9,0.508486,0.67565,0.343559
9,119,2,1,2,9,1,I,1,S,7,L,13,0.682135,0.644848,0.439874
9,120,8,1,9,2,1,C,7,L,7,L,6,0.733482,0.184401,0.135255
9,121,1,2,9,1,0,I,1,S,8,L,11,0.653165,0.602922,0.393808
9,122,1,8,8,1,1,I,7,L,7,L,8,0.468502,0.661618,0.30997
9,123,2,9,9,8,1,I,7,L,1,S,7,0.312723,0.668689,0.209114
9,124,2,9,8,2,1,I,7,L,6,S,9,0.491918,0.695595,0.342176
9,125,8,1,2,8,1,I,7,L,6,S,8,0.669792,0.451931,0.3027
9,126,8,9,8,2,0,I,1,S,6,S,9,0.690949,0.418284,0.289013
9,127,8,2,9,8,1,C,6,S,1,S,7,0.693429,0.27815,0.192877
9,128,8,9,8,1,0,I,1,S,7,L,8,0.668763,0.384514,0.257149
9,129,1,9,9,8,1,I,8,L,1,S,7,0.282729,0.713787,0.201809
9,130,8,1,8,2,1,C,7,L,6,S,6,0.724785,0.190381,0.137985
9,131,8,9,2,1,1,I,1,S,1,S,15,0.645671,0.663629,0.428486
9,132,2,1,9,1,1,C,1,S,8,L,7,0.747997,0.237201,0.177426
9,133,9,2,2,9,1,I,7,L,7,L,9,0.683261,0.501697,0.34279
9,134,2,9,1,9,1,C,7,L,8,L,6,0.188011,0.728362,0.13694
9,135,1,9,9,1,1,I,8,L,8,L,8,0.473052,0.66483,0.314499
9,136,2,1,9,2,1,C,1,S,7,L,7,0.725324,0.251156,0.18217
9,137,2,9,9,1,1,I,7,L,8,L,9,0.527199,0.671917,0.354234
9,138,9,2,2,1,1,C,7,L,1,S,7,0.742396,0.238413,0.176997
9,139,9,8,1,8,0,I,1,S,7,L,8,0.355355,0.68874,0.244747
9,140,2,8,2,1,1,I,6,S,1,S,8,0.362977,0.704075,0.255563
9,141,9,1,1,9,1,I,8,L,8,L,8,0.658997,0.476501,0.314013
9,142,9,1,9,1,1,C,8,L,8,L,6,0.76404,0.164908,0.125996
9,143,9,2,9,2,1,C,7,L,7,L,6,0.704824,0.198917,0.140201
9,144,8,9,2,8,1,C,1,S,6,S,8,0.30296,0.741675,0.224698
10,1,9,8,9,2,1,C,1,S,7,L,8,0.739447,0.301399,0.222869
10,2,2,1,9,8,1,C,1,S,1,S,8,0.65841,0.355396,0.233996
10,3,8,9,2,8,1,C,1,S,6,S,8,0.324605,0.711838,0.231066
10,4,1,2,2,9,1,C,1,S,7,L,7,0.269051,0.700817,0.188555
10,5,9,8,9,8,1,C,1,S,1,S,10,0.655371,0.435149,0.285184
10,6,2,1,8,1,1,C,1,S,7,L,7,0.7435,0.23812,0.177042
10,7,8,1,9,2,1,C,7,L,7,L,6,0.737088,0.181105,0.13349
10,8,1,9,1,2,1,C,8,L,1,S,6,0.230747,0.666387,0.153767
10,9,9,2,9,8,1,C,7,L,1,S,7,0.708288,0.273951,0.194036
10,10,2,1,9,2,1,C,1,S,7,L,7,0.727477,0.249046,0.181175
10,11,2,1,2,1,1,C,1,S,1,S,8,0.741249,0.286873,0.212645
10,12,2,9,9,1,1,I,7,L,8,L,9,0.525088,0.672234,0.352982
10,13,9,1,2,8,1,I,8,L,6,S,8,0.686475,0.438558,0.301059
10,14,1,9,8,2,1,I,8,L,6,S,8,0.439012,0.685645,0.301007
10,15,1,8,8,9,1,C,7,L,1,S,7,0.25569,0.735463,0.18805
10,16,1,9,8,1,1,I,8,L,7,L,8,0.465983,0.667924,0.311241
10,17,2,8,8,2,1,I,6,S,6,S,9,0.498469,0.680751,0.339333
10,18,9,8,8,1,1,C,1,S,7,L,7,0.66531,0.301854,0.200826
10,19,2,9,9,8,1,I,7,L,1,S,7,0.298408,0.680896,0.203185
10,20,1,2,1,2,1,C,1,S,1,S,8,0.312723,0.706106,0.220816
10,21,2,9,1,2,1,C,7,L,1,S,7,0.235723,0.750306,0.176865
10,22,9,8,8,9,1,I,1,S,1,S,12,0.662675,0.503993,0.333984
10,23,8,2,1,9,1,I,6,S,8,L,9,0.672421,0.523934,0.352304
10,24,2,8,1,2,1,C,6,S,1,S,7,0.243068,0.737088,0.179163
10,25,9,1,2,9,1,I,8,L,7,L,8,0.68549,0.44095,0.302267
10,26,8,9,8,2,0,I,1,S,6,S,8,0.660647,0.374795,0.247607
10,27,8,9,1,2,1,C,1,S,1,S,9,0.386873,0.674846,0.26108
10,28,9,2,8,2,1,C,7,L,6,S,6,0.706025,0.20042,0.141501
10,29,1,8,2,8,1,C,7,L,6,S,6,0.187707,0.727627,0.136581
10,30,8,2,9,2,1,C,6,S,7,L,6,0.704736,0.20112,0.141736
10,31,8,2,1,2,1,I,6,S,1,S,8,0.709323,0.363257,0.257667
10,32,1,9,2,8,1,C,8,L,6,S,6,0.183174,0.736597,0.134926
10,33,9,1,2,1,1,C,8,L,1,S,6,0.671944,0.225217,0.151333
10,34,8,2,9,1,1,C,6,S,8,L,6,0.725616,0.187928,0.136364
10,35,8,2,9,8,1,C,6,S,1,S,7,0.697598,0.280077,0.195381
10,36,2,8,2,8,1,C,6,S,6,S,6,0.213051,0.686482,0.146256
10,37,8,2,2,9,1,I,6,S,7,L,9,0.693513,0.492407,0.341491
10,38,1,2,8,1,0,I,1,S,7,L,10,0.662099,0.533594,0.353292
10,39,2,1,8,9,1,I,1,S,1,S,9,0.695581,0.383896,0.267031
10,40,8,9,2,9,1,C,1,S,7,L,8,0.32362,0.71423,0.231139
10,41,8,9,9,1,0,I,1,S,8,L,8,0.69537,0.352601,0.245188
10,42,2,8,2,1,1,I,6,S,1,S,8,0.381132,0.689072,0.262627
10,43,9,2,1,9,1,I,7,L,8,L,9,0.684211,0.516693,0.353527
10,44,9,1,9,8,1,C,8,L,1,S,7,0.742383,0.252519,0.187466
10,45,1,9,8,9,1,C,8,L,1,S,7,0.250428,0.745379,0.186664
10,46,8,9,8,1,0,I,1,S,7,L,8,0.687618,0.357073,0.24553
10,47,9,8,2,8,0,I,1,S,6,S,9,0.407397,0.695048,0.283161
10,48,9,2,2,1,1,C,7,L,1,S,7,0.767117,0.223169,0.171196
10,49,9,8,2,9,0,I,1,S,7,L,9,0.406278,0.697557,0.283402
10,50,9,1,1,8,1,I,8,L,7,L,8,0.66609,0.469976,0.313046
10,51,9,2,2,9,1,I,7,L,7,L,9,0.705303,0.485166,0.342189
10,52,1,9,2,9,1,C,8,L,7,L,6,0.18256,0.738488,0.134818
10,53,2,1,2,8,1,I,1,S,6,S,12,0.663951,0.628227,0.417112
10,54,8,1,2,1,1,C,7,L,1,S,6,0.664288,0.229295,0.152318
10,55,1,9,9,2,1,I,8,L,7,L,8,0.449041,0.679691,0.305209
10,56,2,9,2,8,1,C,7,L,6,S,6,0.206902,0.697917,0.1444
10,57,9,2,8,1,1,C,7,L,7,L,6,0.728364,0.186238,0.135649
10,58,9,8,1,8,0,I,1,S,7,L,8,0.372991,0.675815,0.252073
10,59,9,2,9,2,1,C,7,L,7,L,6,0.714112,0.195902,0.139896
10,60,8,1,2,9,1,I,7,L,7,L,8,0.676628,0.446073,0.301825
10,61,8,1,8,2,1,C,7,L,6,S,6,0.729002,0.185622,0.135319
10,62,2,1,2,9,1,I,1,S,7,L,12,0.662618,0.630795,0.417976
10,63,8,9,9,8,1,I,1,S,1,S,14,0.530244,0.672689,0.356689
10,64,9,2,1,2,1,I,7,L,1,S,8,0.720777,0.356462,0.25693
10,65,2,8,9,1,1,I,6,S,8,L,9,0.533962,0.657409,0.351031
10,66,9,1,8,1,1,C,8,L,7,L,6,0.758996,0.167362,0.127027
10,67,2,9,9,2,1,I,7,L,7,L,9,0.499956,0.689209,0.344574
10,68,2,8,1,9,1,C,6,S,8,L,6,0.196275,0.714251,0.14019
10,69,1,2,9,2,0,I,1,S,7,L,11,0.658396,0.583959,0.384476
10,70,1,2,8,9,1,C,1,S,1,S,9,0.353586,0.716862,0.253472
10,71,2,9,1,8,1,C,7,L,7,L,6,0.190582,0.72411,0.138003
10,72,2,9,8,2,1,I,7,L,6,S,9,0.489594,0.695575,0.34055
10,73,1,8,1,9,1,C,7,L,8,L,6,0.170932,0.755397,0.129121
10,74,2,9,1,9,1,C,7,L,8,L,6,0.190126,0.725686,0.137972
10,75,8,2,1,8,1,I,6,S,7,L,9,0.673226,0.521996,0.351421
10,76,2,1,1,9,0,I,1,S,8,L,11,0.604279,0.656177,0.396514
10,77,2,9,2,1,1,I,7,L,1,S,8,0.37288,0.703376,0.262275
10,78,1,2,2,1,1,I,1,S,1,S,11,0.538431,0.667588,0.35945
10,79,1,9,1,8,1,C,8,L,7,L,6,0.166855,0.76279,0.127275
10,80,2,9,2,9,1,C,7,L,7,L,6,0.206287,0.699808,0.144362
10,81,9,1,9,1,1,C,8,L,8,L,6,0.765623,0.163835,0.125436
10,82,1,8,9,1,1,I,7,L,8,L,8,0.479533,0.653017,0.313143
10,83,2,9,8,9,1,C,7,L,1,S,7,0.277529,0.702057,0.194841
10,84,1,2,8,2,0,I,1,S,6,S,12,0.654255,0.627091,0.410277
10,85,8,2,8,2,1,C,6,S,6,S,6,0.69665,0.205637,0.143257
10,86,2,1,1,2,1,I,1,S,1,S,10,0.67072,0.489366,0.328227
10,87,8,1,9,8,1,C,7,L,1,S,7,0.733941,0.257204,0.188773
10,88,2,8,8,9,1,C,6,S,1,S,7,0.284874,0.688839,0.196233
10,89,9,1,8,9,1,I,8,L,1,S,7,0.721504,0.27368,0.197461
10,90,1,2,1,9,1,C,1,S,8,L,7,0.250557,0.729955,0.182896
10,91,8,1,9,1,1,C,7,L,8,L,6,0.757968,0.167913,0.127273
10,92,9,8,8,2,1,C,1,S,6,S,8,0.729418,0.307353,0.224189
10,93,9,8,1,2,0,I,1,S,1,S,12,0.547309,0.657031,0.359599
10,94,9,2,1,8,1,I,7,L,7,L,9,0.685017,0.514755,0.352616
10,95,8,2,8,1,1,C,6,S,7,L,6,0.718988,0.191455,0.137654
10,96,1,8,1,8,1,C,7,L,7,L,6,0.171388,0.75382,0.129196
10,97,2,9,8,1,1,I,7,L,7,L,9,0.517179,0.676967,0.350113
10,98,2,8,9,2,1,I,6,S,7,L,9,0.50883,0.674384,0.343147
10,99,2,1,1,8,0,I,1,S,7,L,11,0.605207,0.654194,0.395923
10,100,9,1,9,2,1,C,8,L,7,L,6,0.744744,0.177026,0.131839
10,101,8,2,2,8,1,I,6,S,6,S,9,0.694633,0.489897,0.340299
10,102,9,2,2,8,1,I,7,L,6,S,8,0.650578,0.461745,0.300401
10,103,8,9,9,2,0,I,1,S,7,L,8,0.670676,0.368841,0.247372
10,104,2,8,9,8,1,I,6,S,1,S,7,0.305753,0.667678,0.204145
10,105,8,1,8,9,1,I,7,L,1,S,7,0.713062,0.278365,0.198492
10,106,2,1,8,2,1,C,1,S,6,S,7,0.718174,0.254386,0.182694
10,107,1,8,8,1,1,I,7,L,7,L,8,0.471781,0.657489,0.310191
10,108,8,1,1,2,1,I,7,L,1,S,7,0.671256,0.326614,0.219242
10,109,1,2,9,1,0,I,1,S,8,L,10,0.670004,0.528712,0.354239
10,110,1,9,9,1,1,I,8,L,8,L,8,0.473735,0.663452,0.314301
10,111,9,8,2,1,1,C,1,S,1,S,9,0.711896,0.35538,0.252994
10,112,8,1,2,8,1,I,7,L,6,S,8,0.677613,0.443681,0.300644
10,113,9,2,8,9,1,I,7,L,1,S,7,0.687409,0.295112,0.202863
10,114,2,8,8,1,1,I,6,S,7,L,9,0.526053,0.662142,0.348322
10,115,9,2,9,1,1,C,7,L,8,L,6,0.734991,0.182711,0.134291
10,116,1,9,2,1,1,I,8,L,1,S,7,0.330136,0.673436,0.222325
10,117,1,8,2,1,1,I,7,L,1,S,7,0.335398,0.663519,0.222543
10,118,2,8,1,8,1,C,6,S,7,L,6,0.196731,0.712675,0.140206
10,119,1,2,1,8,1,C,1,S,7,L,7,0.251153,0.728198,0.182889
10,120,9,1,8,2,1,C,8,L,6,S,6,0.736657,0.181544,0.133736
10,121,1,8,9,8,1,I,7,L,1,S,7,0.276569,0.714302,0.197554
10,122,8,2,8,9,1,I,6,S,1,S,7,0.676719,0.301238,0.203853
10,123,1,8,8,2,1,I,7,L,6,S,8,0.44481,0.67521,0.30034
10,124,8,1,8,1,1,C,7,L,7,L,6,0.75134,0.17144,0.12881
10,125,1,9,9,8,1,I,8,L,1,S,7,0.271307,0.724218,0.196485
10,126,1,8,9,2,1,I,7,L,7,L,8,0.454839,0.669256,0.304404
10,127,9,8,9,1,1,C,1,S,8,L,7,0.672666,0.297779,0.200306
10,128,1,8,2,9,1,C,7,L,7,L,6,0.187093,0.729518,0.136488
10,129,9,1,1,9,1,I,8,L,8,L,8,0.665378,0.471848,0.313957
10,130,1,2,2,8,1,C,1,S,6,S,7,0.269866,0.698626,0.188535
10,131,8,9,2,1,0,I,1,S,1,S,10,0.655421,0.459831,0.301383
10,132,8,1,1,9,1,I,7,L,8,L,8,0.656516,0.476971,0.313139
10,133,9,8,1,9,0,I,1,S,8,L,8,0.372279,0.677687,0.252289
10,134,1,2,9,8,1,I,1,S,1,S,9,0.397859,0.671705,0.267244
10,135,9,1,1,2,1,I,8,L,1,S,7,0.679698,0.321929,0.218814
10,136,8,9,1,9,1,C,1,S,8,L,7,0.310926,0.659798,0.205148
10,137,1,8,1,2,1,C,7,L,1,S,6,0.23528,0.657417,0.154677
10,138,8,9,1,8,1,C,1,S,7,L,7,0.311521,0.658041,0.204994
10,139,2,8,2,9,1,C,6,S,7,L,6,0.212436,0.688373,0.146235
10,140,8,1,1,8,1,I,7,L,7,L,8,0.657228,0.475099,0.312248
10,141,8,2,2,1,1,C,6,S,1,S,7,0.756427,0.229294,0.173444
10,142,8,9,8,9,1,C,1,S,1,S,11,0.442137,0.680489,0.300869
10,143,1,9,1,9,1,C,8,L,8,L,6,0.166399,0.764367,0.127189
10,144,2,1,9,1,1,C,1,S,8,L,7,0.750855,0.234045,0.175734
11,1,9,1,1,8,1,I,8,L,7,L,8,0.660276,0.468091,0.309069
11,2,1,9,8,1,1,I,8,L,7,L,8,0.466262,0.663646,0.309433
11,3,2,8,1,9,1,C,6,S,8,L,6,0.188467,0.723405,0.136338
11,4,1,9,9,8,1,I,8,L,1,S,7,0.277082,0.714903,0.198087
11,5,8,9,2,1,0,I,1,S,1,S,11,0.661812,0.489847,0.324187
11,6,9,2,1,2,1,I,7,L,1,S,8,0.701031,0.369641,0.25913
11,7,2,9,2,8,1,C,7,L,6,S,6,0.20327,0.69914,0.142114
11,8,9,1,8,2,1,C,8,L,6,S,6,0.717648,0.192332,0.138027
11,9,9,2,9,8,1,C,7,L,1,S,7,0.695568,0.279634,0.194504
11,10,2,1,9,2,1,C,1,S,7,L,7,0.68831,0.277425,0.190954
11,11,2,8,2,8,1,C,6,S,6,S,6,0.20528,0.69334,0.142329
11,12,8,9,9,1,0,I,1,S,8,L,8,0.69224,0.356647,0.246886
11,13,1,8,8,1,1,I,7,L,7,L,8,0.468635,0.657762,0.308251
11,14,2,9,1,8,1,C,7,L,7,L,6,0.191678,0.719705,0.137952
11,15,2,8,9,2,1,I,6,S,7,L,9,0.492267,0.689765,0.339549
11,16,1,8,1,2,1,C,7,L,1,S,6,0.232866,0.657627,0.153139
11,17,1,2,2,8,1,C,1,S,6,S,7,0.255478,0.716293,0.182997
11,18,8,2,2,1,1,C,6,S,1,S,7,0.729193,0.246495,0.179743
11,19,9,1,8,9,1,I,8,L,1,S,7,0.687348,0.306139,0.210424
11,20,8,1,8,1,1,C,7,L,7,L,6,0.740172,0.179132,0.132588
11,21,2,1,1,9,0,I,1,S,8,L,9,0.472151,0.661185,0.312179
11,22,8,9,9,2,0,I,1,S,7,L,8,0.659392,0.377939,0.24921
11,23,8,9,2,9,1,C,1,S,7,L,8,0.312153,0.728391,0.22737
11,24,2,8,1,8,1,C,6,S,7,L,6,0.193689,0.713905,0.138275
11,25,1,2,2,1,1,I,1,S,1,S,10,0.484349,0.670491,0.324752
11,26,1,9,1,2,1,C,8,L,1,S,6,0.231291,0.662582,0.153249
11,27,8,2,8,1,1,C,6,S,7,L,6,0.702378,0.203022,0.142598
11,28,2,9,8,9,1,C,7,L,1,S,7,0.250646,0.731546,0.183359
11,29,1,8,9,2,1,I,7,L,7,L,8,0.446413,0.672898,0.30039
11,30,9,8,8,1,1,C,1,S,7,L,8,0.732324,0.306456,0.224425
11,31,9,8,2,1,1,C,1,S,1,S,9,0.665391,0.386301,0.257041
11,32,8,1,8,2,1,C,7,L,6,S,6,0.7101,0.19803,0.140622
11,33,1,8,8,2,1,I,7,L,6,S,8,0.431492,0.681851,0.294213
11,34,1,8,8,9,1,C,7,L,1,S,7,0.230966,0.761121,0.175793
11,35,8,1,9,2,1,C,7,L,7,L,6,0.721773,0.191365,0.138122
11,36,2,9,2,1,1,I,7,L,1,S,8,0.356068,0.713529,0.254065
11,37,8,9,8,1,0,I,1,S,7,L,8,0.681614,0.362804,0.247292
11,38,2,9,9,1,1,I,7,L,8,L,9,0.522322,0.674998,0.352567
11,39,9,1,8,1,1,C,8,L,7,L,6,0.74772,0.173433,0.129679
11,40,8,1,1,8,1,I,7,L,7,L,8,0.651586,0.47473,0.309327
11,41,1,2,9,2,1,I,1,S,7,L,12,0.63164,0.660755,0.417359
11,42,9,8,1,2,0,I,1,S,1,S,11,0.469832,0.680285,0.319619
11,43,9,2,1,9,1,I,7,L,8,L,9,0.66572,0.528822,0.352048
11,44,8,2,2,9,1,I,6,S,7,L,9,0.666994,0.515853,0.344071
11,45,9,8,1,8,0,I,1,S,7,L,8,0.356238,0.683112,0.243351
11,46,8,1,2,9,1,I,7,L,7,L,8,0.658211,0.463661,0.305187
11,47,1,8,9,8,1,I,7,L,1,S,7,0.279094,0.709376,0.197983
11,48,1,2,1,8,1,C,1,S,7,L,7,0.24195,0.73966,0.178961
11,49,8,9,2,8,1,C,1,S,6,S,8,0.320478,0.714476,0.228974
11,50,1,8,2,9,1,C,7,L,7,L,6,0.179521,0.736776,0.132267
11,51,1,2,2,9,1,C,1,S,7,L,7,0.247977,0.729239,0.180834
11,52,9,8,9,8,1,C,1,S,1,S,11,0.672781,0.442734,0.297863
11,53,9,1,9,8,1,C,8,L,1,S,7,0.735476,0.254395,0.187101
11,54,9,2,8,1,1,C,7,L,7,L,6,0.71229,0.195488,0.139244
11,55,8,2,1,8,1,I,6,S,7,L,9,0.659978,0.527187,0.347932
11,56,9,8,8,2,1,C,1,S,6,S,8,0.695181,0.330545,0.229788
11,57,1,9,2,1,1,I,8,L,1,S,7,0.322191,0.673176,0.216891
11,58,9,1,2,1,1,C,8,L,1,S,6,0.655349,0.233553,0.153059
11,59,8,2,2,8,1,I,6,S,6,S,9,0.675869,0.501503,0.33895
11,60,1,8,1,9,1,C,7,L,8,L,6,0.169097,0.755537,0.127759
11,61,8,1,8,9,1,I,7,L,1,S,7,0.679012,0.312425,0.21214
11,62,9,8,8,9,0,I,1,S,1,S,12,0.519068,0.65465,0.339808
11,63,9,1,1,9,1,I,8,L,8,L,8,0.653714,0.479192,0.313255
11,64,1,2,1,2,1,C,1,S,1,S,8,0.293049,0.733346,0.214906
11,65,1,8,9,1,1,I,7,L,8,L,8,0.479261,0.651606,0.31229
11,66,2,8,1,2,1,C,6,S,1,S,7,0.233263,0.748319,0.174555
11,67,1,9,1,8,1,C,8,L,7,L,6,0.172743,0.750994,0.129729
11,68,9,2,9,2,1,C,7,L,7,L,6,0.693891,0.207721,0.144136
11,69,1,9,8,9,1,C,8,L,1,S,7,0.228954,0.766648,0.175527
11,70,9,8,2,8,0,I,1,S,6,S,8,0.371189,0.658128,0.24429
11,71,2,9,8,2,1,I,7,L,6,S,8,0.452739,0.650579,0.294542
11,72,2,9,2,9,1,C,7,L,7,L,6,0.19688,0.710442,0.139872
11,73,9,2,8,9,1,I,7,L,1,S,8,0.726581,0.337804,0.245442
11,74,8,9,9,8,1,I,1,S,1,S,14,0.539978,0.672065,0.362901
11,75,9,8,1,9,0,I,1,S,8,L,8,0.349677,0.694213,0.24275
11,76,8,2,1,2,1,I,6,S,1,S,8,0.688674,0.378932,0.260961
11,77,1,8,2,1,1,I,7,L,1,S,7,0.324203,0.667649,0.216454
11,78,2,9,9,2,1,I,7,L,7,L,9,0.488777,0.697348,0.340848
11,79,8,1,1,2,1,I,7,L,1,S,7,0.659024,0.335876,0.221351
11,80,2,1,8,2,1,C,1,S,6,S,7,0.674639,0.285391,0.192536
11,81,1,8,2,8,1,C,7,L,6,S,6,0.185911,0.725473,0.134873
11,82,1,9,9,1,1,I,8,L,8,L,8,0.476888,0.65749,0.313549
11,83,8,9,1,9,1,C,1,S,8,L,7,0.307319,0.664088,0.204087
11,84,9,2,2,1,1,C,7,L,1,S,7,0.740676,0.237907,0.176212
11,85,8,1,9,8,1,C,7,L,1,S,7,0.72714,0.26068,0.189551
11,86,9,1,2,9,1,I,8,L,7,L,8,0.666901,0.457021,0.304788
11,87,8,9,8,2,0,I,1,S,6,S,9,0.699739,0.395061,0.27644
11,88,2,1,1,2,1,I,1,S,1,S,11,0.651021,0.545929,0.355411
11,89,1,2,9,8,1,I,1,S,1,S,9,0.384359,0.694034,0.266758
11,90,2,9,9,8,1,I,7,L,1,S,7,0.298774,0.679801,0.203107
11,91,1,2,8,1,0,I,1,S,7,L,12,0.652953,0.644898,0.421088
11,92,2,1,2,1,1,C,1,S,1,S,8,0.685979,0.324263,0.222438
11,93,2,8,2,9,1,C,6,S,7,L,6,0.198891,0.704643,0.140147
11,94,9,2,9,1,1,C,7,L,8,L,6,0.72134,0.190638,0.137515
11,95,1,9,1,9,1,C,8,L,8,L,6,0.167521,0.760493,0.127399
11,96,9,2,2,8,1,I,7,L,6,S,9,0.688536,0.491823,0.338638
11,97,2,1,2,8,0,I,1,S,6,S,11,0.568355,0.662712,0.376656
11,98,2,8,9,8,1,I,6,S,1,S,7,0.301379,0.673123,0.202865
11,99,1,2,8,9,1,C,1,S,1,S,8,0.318598,0.70151,0.2235
11,100,1,9,9,2,1,I,8,L,7,L,8,0.44404,0.678782,0.301406
11,101,2,1,2,9,0,I,1,S,7,L,10,0.52244,0.662678,0.34621
11,102,8,9,1,8,1,C,1,S,7,L,7,0.313321,0.653547,0.20477
11,103,2,8,8,2,1,I,6,S,6,S,9,0.476732,0.699393,0.333423
11,104,1,2,9,1,0,I,1,S,8,L,11,0.659201,0.600817,0.396059
11,105,8,2,9,1,1,C,6,S,8,L,6,0.711428,0.198173,0.140985
11,106,1,2,8,2,1,I,1,S,6,S,12,0.616496,0.670937,0.41363
11,107,2,1,9,8,1,C,1,S,1,S,9,0.696648,0.367343,0.255909
11,108,2,1,1,8,0,I,1,S,7,L,10,0.515209,0.674013,0.347258
11,109,1,9,2,9,1,C,8,L,7,L,6,0.177945,0.741731,0.131988
11,110,9,2,1,8,1,I,7,L,7,L,9,0.672645,0.517507,0.348099
11,111,8,2,9,2,1,C,6,S,7,L,6,0.683979,0.215256,0.14723
11,112,2,9,8,1,1,I,7,L,7,L,9,0.511473,0.681517,0.348578
11,113,8,9,1,2,1,C,1,S,1,S,9,0.379062,0.683996,0.259277
11,114,2,8,9,1,1,I,6,S,8,L,9,0.525812,0.667416,0.350935
11,115,8,2,8,2,1,C,6,S,6,S,6,0.672306,0.221921,0.149199
11,116,9,8,9,1,1,C,1,S,8,L,7,0.657776,0.307809,0.202469
11,117,2,9,1,9,1,C,7,L,8,L,6,0.186456,0.729204,0.135965
11,118,8,2,1,9,1,I,6,S,8,L,9,0.653053,0.538502,0.35167
11,119,2,1,8,1,1,C,1,S,7,L,7,0.709187,0.263469,0.186849
11,120,2,8,8,9,1,C,6,S,1,S,7,0.253251,0.724868,0.183574
11,121,8,2,8,9,1,I,6,S,1,S,8,0.714223,0.347096,0.247904
11,122,9,1,2,8,1,I,8,L,6,S,8,0.675226,0.443106,0.299197
11,123,9,1,9,2,1,C,8,L,7,L,6,0.729321,0.185667,0.135411
11,124,8,1,1,9,1,I,7,L,8,L,9,0.700201,0.506812,0.35487
11,125,8,9,8,9,1,C,1,S,1,S,10,0.393175,0.709607,0.279
11,126,9,2,2,9,1,I,7,L,7,L,9,0.679661,0.506174,0.344026
11,127,1,2,1,9,1,C,1,S,8,L,7,0.235948,0.7502,0.177008
11,128,9,8,2,9,0,I,1,S,7,L,8,0.362864,0.672043,0.24386
11,129,9,1,1,2,1,I,8,L,1,S,7,0.66736,0.329591,0.219956
11,130,1,9,8,2,1,I,8,L,6,S,8,0.429119,0.687735,0.29512
11,131,2,1,9,1,1,C,1,S,8,L,7,0.719255,0.257863,0.185469
11,132,2,8,8,1,1,I,6,S,7,L,9,0.514963,0.673935,0.347052
11,133,8,1,9,1,1,C,7,L,8,L,6,0.749222,0.174282,0.130576
11,134,8,1,2,8,1,I,7,L,6,S,8,0.666537,0.449746,0.299772
11,135,8,2,9,8,1,C,6,S,1,S,7,0.684084,0.288223,0.197168
11,136,9,1,9,1,1,C,8,L,8,L,6,0.75677,0.168583,0.127579
11,137,1,8,1,8,1,C,7,L,7,L,6,0.174319,0.746038,0.130049
11,138,9,2,8,2,1,C,7,L,6,S,6,0.682218,0.214386,0.146258
11,139,1,9,2,8,1,C,8,L,6,S,6,0.184335,0.730428,0.134643
11,140,8,1,2,1,1,C,7,L,1,S,7,0.772249,0.218953,0.169086
11,141,2,8,2,1,1,I,6,S,1,S,8,0.35917,0.706275,0.253673
11,142,2,1,8,9,1,I,1,S,1,S,11,0.689072,0.495229,0.341248
11,143,2,9,1,2,1,C,7,L,1,S,7,0.230658,0.754998,0.174146
11,144,9,8,9,2,1,C,1,S,7,L,8,0.710102,0.321591,0.228363
12,1,8,1,9,1,1,C,7,L,8,L,6,0.755006,0.168953,0.12756
12,2,1,9,1,2,1,C,8,L,1,S,6,0.232158,0.658417,0.152857
12,3,2,8,2,1,1,I,6,S,1,S,8,0.398232,0.68167,0.271463
12,4,8,1,1,9,1,I,7,L,8,L,9,0.704197,0.501632,0.353248
12,5,9,1,9,8,1,C,8,L,1,S,7,0.738726,0.251237,0.185596
12,6,2,9,9,8,1,I,7,L,1,S,7,0.302544,0.674258,0.203993
12,7,2,9,2,8,1,C,7,L,6,S,6,0.209374,0.690882,0.144653
12,8,2,9,8,2,1,I,7,L,6,S,9,0.492681,0.691117,0.3405
12,9,1,2,8,1,0,I,1,S,7,L,10,0.669743,0.524044,0.350975
12,10,9,2,8,2,1,C,7,L,6,S,6,0.706593,0.198781,0.140457
12,11,9,8,9,8,1,C,1,S,1,S,11,0.671889,0.44884,0.301571
12,12,9,8,9,1,1,C,1,S,8,L,7,0.659078,0.310208,0.204451
12,13,8,1,2,1,1,C,7,L,1,S,6,0.671893,0.222353,0.149397
12,14,9,2,9,1,1,C,7,L,8,L,6,0.735093,0.180318,0.13255
12,15,2,1,8,9,1,I,1,S,1,S,9,0.658267,0.409321,0.269442
12,16,8,2,2,9,1,I,6,S,7,L,9,0.695146,0.491123,0.341402
12,17,2,1,1,9,0,I,1,S,8,L,10,0.526859,0.666873,0.351348
12,18,2,1,1,2,1,I,1,S,1,S,11,0.682135,0.510257,0.348064
12,19,9,1,9,2,1,C,8,L,7,L,6,0.736172,0.179735,0.132316
12,20,8,1,8,2,1,C,7,L,6,S,6,0.726506,0.187416,0.136158
12,21,9,2,9,2,1,C,7,L,7,L,6,0.711367,0.195491,0.139065
12,22,9,1,8,2,1,C,8,L,6,S,6,0.731398,0.183025,0.133864
12,23,9,1,9,1,1,C,8,L,8,L,6,0.759899,0.164562,0.125051
12,24,1,8,2,1,1,I,7,L,1,S,7,0.35073,0.654547,0.229569
12,25,2,1,8,1,1,C,1,S,7,L,7,0.72803,0.246972,0.179803
12,26,2,8,2,8,1,C,6,S,6,S,6,0.212673,0.688023,0.146324
12,27,8,2,8,1,1,C,6,S,7,L,6,0.725315,0.188171,0.136483
12,28,1,9,1,9,1,C,8,L,8,L,6,0.164727,0.761163,0.125384
12,29,8,9,1,8,1,C,1,S,7,L,7,0.31057,0.656097,0.203764
12,30,8,1,2,9,1,I,7,L,7,L,8,0.670713,0.449076,0.301201
12,31,8,9,8,2,0,I,1,S,6,S,8,0.660552,0.376241,0.248527
12,32,1,8,9,2,1,I,7,L,7,L,8,0.451431,0.673719,0.304138
12,33,2,1,2,1,1,C,1,S,1,S,8,0.736318,0.28694,0.211279
12,34,1,9,1,8,1,C,8,L,7,L,6,0.167829,0.756096,0.126895
12,35,2,1,2,8,1,I,1,S,6,S,13,0.662718,0.648619,0.429852
12,36,8,1,9,2,1,C,7,L,7,L,6,0.73128,0.184126,0.134647
12,37,2,8,2,9,1,C,6,S,7,L,6,0.208376,0.694697,0.144758
12,38,8,2,2,1,1,C,6,S,1,S,7,0.775528,0.215794,0.167354
12,39,9,2,2,8,1,I,7,L,6,S,8,0.652523,0.45506,0.296937
12,40,9,8,8,1,1,C,1,S,7,L,7,0.655047,0.312954,0.205
12,41,2,1,9,2,1,C,1,S,7,L,7,0.705571,0.261408,0.184442
12,42,9,1,1,8,1,I,8,L,7,L,8,0.658357,0.469839,0.309322
12,43,9,2,2,9,1,I,7,L,7,L,9,0.702522,0.48471,0.34052
12,44,2,8,8,2,1,I,6,S,6,S,9,0.496389,0.687724,0.341378
12,45,1,9,9,2,1,I,8,L,7,L,8,0.448828,0.675809,0.303322
12,46,2,8,1,2,1,C,6,S,1,S,7,0.24104,0.738342,0.17797
12,47,1,8,8,2,1,I,7,L,6,S,8,0.445591,0.677801,0.302022
12,48,9,8,8,2,1,C,1,S,6,S,8,0.708881,0.32691,0.23174
12,49,1,2,9,2,0,I,1,S,7,L,11,0.659535,0.578133,0.381299
12,50,1,2,8,2,0,I,1,S,6,S,11,0.653736,0.582466,0.380779
12,51,8,9,1,2,1,C,1,S,1,S,9,0.387258,0.668828,0.259009
12,52,9,8,1,8,0,I,1,S,7,L,8,0.35064,0.693066,0.243017
12,53,1,9,2,8,1,C,8,L,6,S,6,0.186738,0.72801,0.135947
12,54,2,8,9,8,1,I,6,S,1,S,7,0.306116,0.671003,0.205405
12,55,2,8,1,9,1,C,6,S,8,L,6,0.190663,0.721175,0.137501
12,56,9,2,1,8,1,I,7,L,7,L,9,0.683872,0.510877,0.349374
12,57,1,9,8,2,1,I,8,L,6,S,8,0.442988,0.679891,0.301183
12,58,1,2,1,9,1,C,1,S,8,L,7,0.2492,0.726604,0.18107
12,59,9,1,2,8,1,I,8,L,6,S,8,0.681804,0.435739,0.297088
12,60,1,9,8,9,1,C,8,L,1,S,7,0.248169,0.744916,0.184865
12,61,8,2,8,9,1,I,6,S,1,S,7,0.675553,0.304084,0.205425
12,62,8,1,9,8,1,C,7,L,1,S,7,0.73336,0.255981,0.187726
12,63,2,9,1,2,1,C,7,L,1,S,7,0.237467,0.741597,0.176105
12,64,2,9,2,1,1,I,7,L,1,S,8,0.394533,0.685085,0.270289
12,65,9,8,1,2,0,I,1,S,1,S,11,0.46907,0.676316,0.317239
12,66,9,2,9,8,1,C,7,L,1,S,7,0.710985,0.26911,0.191333
12,67,8,1,1,2,1,I,7,L,1,S,7,0.668283,0.32332,0.216069
12,68,1,2,2,1,1,I,1,S,1,S,12,0.577896,0.676555,0.390978
12,69,8,9,9,1,0,I,1,S,8,L,8,0.694317,0.353613,0.245519
12,70,8,2,1,8,1,I,6,S,7,L,9,0.676495,0.517289,0.349944
12,71,2,9,1,9,1,C,7,L,8,L,6,0.187364,0.724034,0.135658
12,72,2,8,9,1,1,I,6,S,8,L,9,0.530745,0.664108,0.352472
12,73,9,2,8,1,1,C,7,L,7,L,6,0.731421,0.182789,0.133696
12,74,9,1,2,1,1,C,8,L,1,S,6,0.676785,0.217962,0.147514
12,75,1,2,9,1,0,I,1,S,8,L,9,0.650988,0.483275,0.314606
12,76,1,8,8,1,1,I,7,L,7,L,8,0.475158,0.658094,0.312699
12,77,9,2,2,1,1,C,7,L,1,S,6,0.65198,0.233718,0.152379
12,78,2,9,1,8,1,C,7,L,7,L,6,0.190466,0.718968,0.136939
12,79,1,2,1,2,1,C,1,S,1,S,8,0.317431,0.693061,0.219999
12,80,1,8,2,8,1,C,7,L,6,S,6,0.189215,0.726077,0.137385
12,81,9,8,8,9,1,I,1,S,1,S,17,0.666431,0.616946,0.411152
12,82,8,1,8,1,1,C,7,L,7,L,6,0.751334,0.171424,0.128797
12,83,2,8,1,8,1,C,6,S,7,L,6,0.193765,0.716109,0.138757
12,84,8,9,1,9,1,C,1,S,8,L,7,0.307062,0.661705,0.203184
12,85,8,1,1,8,1,I,7,L,7,L,8,0.652815,0.474762,0.309932
12,86,9,2,8,9,1,I,7,L,1,S,7,0.682479,0.298135,0.203471
12,87,1,8,1,9,1,C,7,L,8,L,6,0.167205,0.75923,0.126947
12,88,8,9,2,8,1,C,1,S,6,S,8,0.325757,0.708297,0.230733
12,89,9,2,1,2,1,I,7,L,1,S,8,0.722159,0.347593,0.251017
12,90,9,8,1,9,0,I,1,S,8,L,8,0.346853,0.698951,0.242433
12,91,1,9,8,1,1,I,8,L,7,L,8,0.472555,0.660184,0.311973
12,92,8,2,1,9,1,I,6,S,8,L,9,0.672543,0.523259,0.351914
12,93,9,8,2,8,0,I,1,S,6,S,8,0.374086,0.658966,0.24651
12,94,8,9,9,8,1,I,1,S,1,S,14,0.559962,0.657945,0.368424
12,95,2,1,9,1,1,C,1,S,8,L,7,0.73206,0.244226,0.178788
12,96,9,1,1,2,1,I,8,L,1,S,7,0.67365,0.318576,0.214609
12,97,9,1,2,9,1,I,8,L,7,L,8,0.676256,0.444153,0.300361
12,98,1,8,8,9,1,C,7,L,1,S,7,0.250755,0.742837,0.18627
12,99,1,9,9,8,1,I,8,L,1,S,7,0.276675,0.715891,0.198069
12,100,9,1,1,9,1,I,8,L,8,L,8,0.654571,0.475724,0.311395
12,101,1,9,2,1,1,I,8,L,1,S,7,0.348144,0.656626,0.2286
12,102,1,8,2,9,1,C,7,L,7,L,6,0.184918,0.732751,0.135499
12,103,2,8,9,2,1,I,6,S,7,L,9,0.502365,0.683455,0.343344
12,104,1,2,2,9,1,C,1,S,7,L,7,0.269286,0.69679,0.187636
12,105,8,1,8,9,1,I,7,L,1,S,7,0.704853,0.285006,0.200887
12,106,1,2,2,8,1,C,1,S,6,S,7,0.274311,0.689024,0.189007
12,107,9,1,8,1,1,C,8,L,7,L,6,0.756226,0.167034,0.126315
12,108,8,2,8,2,1,C,6,S,6,S,6,0.700487,0.204162,0.143013
12,109,8,9,9,2,0,I,1,S,7,L,8,0.666392,0.37216,0.248004
12,110,9,8,2,9,0,I,1,S,7,L,8,0.368539,0.66738,0.245955
12,111,2,9,9,1,1,I,7,L,8,L,9,0.527037,0.667502,0.351798
12,112,9,8,2,1,1,C,1,S,1,S,9,0.703381,0.366853,0.258038
12,113,2,1,8,2,1,C,1,S,6,S,7,0.700109,0.265169,0.185647
12,114,1,8,1,2,1,C,7,L,1,S,6,0.234635,0.656484,0.154034
12,115,1,8,9,1,1,I,7,L,8,L,8,0.479356,0.655172,0.314061
12,116,8,9,2,1,0,I,1,S,1,S,10,0.676719,0.44707,0.30254
12,117,2,9,8,1,1,I,7,L,7,L,9,0.522805,0.670517,0.35055
12,118,2,8,8,1,1,I,6,S,7,L,9,0.526513,0.667124,0.35125
12,119,9,8,9,2,1,C,1,S,7,L,8,0.714721,0.322829,0.230732
12,120,2,9,2,9,1,C,7,L,7,L,6,0.205077,0.697556,0.143053
12,121,1,2,1,8,1,C,1,S,7,L,7,0.252709,0.720996,0.182202
12,122,8,2,9,1,1,C,6,S,8,L,6,0.728987,0.185699,0.135372
12,123,8,9,2,9,1,C,1,S,7,L,8,0.320209,0.716711,0.229498
12,124,8,2,9,8,1,C,6,S,1,S,7,0.704059,0.275059,0.193658
12,125,1,9,9,1,1,I,8,L,8,L,8,0.476753,0.657262,0.313352
12,126,9,2,1,9,1,I,7,L,8,L,9,0.679919,0.516847,0.351414
12,127,9,1,8,9,1,I,8,L,1,S,7,0.71022,0.280262,0.199048
12,128,1,2,8,9,1,C,1,S,1,S,9,0.349988,0.717912,0.251261
12,129,2,9,8,9,1,C,7,L,1,S,7,0.274038,0.703283,0.192726
12,130,1,9,2,9,1,C,8,L,7,L,6,0.182441,0.734684,0.134036
12,131,2,9,9,2,1,I,7,L,7,L,9,0.498657,0.686849,0.342502
12,132,2,1,2,9,0,I,1,S,7,L,12,0.623175,0.655601,0.408554
12,133,2,1,1,8,0,I,1,S,7,L,10,0.530886,0.660944,0.350886
12,134,2,8,8,9,1,C,6,S,1,S,7,0.27761,0.700028,0.194335
12,135,8,9,8,1,0,I,1,S,7,L,8,0.690119,0.356535,0.246051
12,136,1,8,9,8,1,I,7,L,1,S,7,0.279262,0.713812,0.19934
12,137,1,8,1,8,1,C,7,L,7,L,6,0.170307,0.754163,0.128439
12,138,2,1,9,8,1,C,1,S,1,S,9,0.718915,0.34799,0.250175
12,139,8,9,8,9,1,C,1,S,1,S,11,0.425232,0.700841,0.29802
12,140,8,1,2,8,1,I,7,L,6,S,8,0.676261,0.440662,0.298003
12,141,8,2,2,8,1,I,6,S,6,S,9,0.701024,0.482427,0.338193
12,142,8,2,1,2,1,I,6,S,1,S,8,0.714843,0.353873,0.252964
12,143,1,2,9,8,1,I,1,S,1,S,9,0.410637,0.656582,0.269617
12,144,8,2,9,2,1,C,6,S,7,L,6,0.705261,0.200872,0.141667
13,1,9,8,2,1,1,C,1,S,1,S,8,0.671873,0.34218,0.229901
13,2,9,2,8,1,1,C,7,L,7,L,6,0.740359,0.178886,0.13244
13,3,2,9,2,1,1,I,7,L,1,S,8,0.363319,0.716943,0.260479
13,4,8,2,2,1,1,C,6,S,1,S,7,0.766237,0.222897,0.170792
13,5,1,2,9,1,0,I,1,S,8,L,10,0.658352,0.538401,0.354457
13,6,9,2,8,2,1,C,7,L,6,S,6,0.712764,0.196626,0.140148
13,7,8,1,8,2,1,C,7,L,6,S,6,0.725075,0.189411,0.137337
13,8,9,2,1,8,1,I,7,L,7,L,9,0.697885,0.504991,0.352426
13,9,9,2,2,9,1,I,7,L,7,L,8,0.655858,0.462341,0.30323
13,10,1,8,2,1,1,I,7,L,1,S,7,0.330474,0.669687,0.221314
13,11,2,9,1,9,1,C,7,L,8,L,6,0.1823,0.738082,0.134552
13,12,2,8,1,9,1,C,6,S,8,L,6,0.194899,0.71766,0.139871
13,13,8,2,1,9,1,I,6,S,8,L,9,0.682402,0.518159,0.353593
13,14,2,1,1,8,0,I,1,S,7,L,10,0.523256,0.672309,0.35179
13,15,9,8,2,9,0,I,1,S,7,L,9,0.456629,0.662566,0.302547
13,16,9,2,1,9,1,I,7,L,8,L,9,0.692595,0.511975,0.354591
13,17,8,2,2,8,1,I,6,S,6,S,8,0.653099,0.458372,0.299362
13,18,9,8,9,2,1,C,1,S,7,L,7,0.669279,0.295924,0.198056
13,19,9,8,1,9,0,I,1,S,8,L,8,0.410142,0.650259,0.266698
13,20,9,1,1,2,1,I,8,L,1,S,7,0.668798,0.336862,0.225293
13,21,9,8,8,2,1,C,1,S,6,S,7,0.66536,0.299304,0.199145
13,22,1,2,1,9,1,C,1,S,8,L,7,0.24064,0.738257,0.177654
13,23,1,8,9,2,1,I,7,L,7,L,8,0.44267,0.679354,0.30073
13,24,2,1,9,2,1,C,1,S,7,L,7,0.693622,0.272979,0.189344
13,25,9,1,1,9,1,I,8,L,8,L,8,0.660642,0.476766,0.314971
13,26,8,1,2,9,1,I,7,L,7,L,8,0.670297,0.453376,0.303897
13,27,1,8,2,9,1,C,7,L,7,L,6,0.180481,0.738481,0.133281
13,28,1,9,8,9,1,C,8,L,1,S,6,0.247233,0.650263,0.160766
13,29,8,9,1,2,1,C,1,S,1,S,9,0.377464,0.692348,0.261336
13,30,8,2,8,2,1,C,6,S,6,S,6,0.704465,0.201148,0.141702
13,31,2,8,1,8,1,C,6,S,7,L,6,0.199324,0.711575,0.141834
13,32,1,8,8,1,1,I,7,L,7,L,8,0.471844,0.6608,0.311794
13,33,2,1,8,1,1,C,1,S,7,L,7,0.721025,0.256013,0.184592
13,34,8,9,1,8,1,C,1,S,7,L,7,0.315363,0.655357,0.206675
13,35,9,8,8,9,1,I,1,S,1,S,11,0.686655,0.475251,0.326334
13,36,9,1,9,8,1,C,8,L,1,S,7,0.743399,0.250662,0.186342
13,37,9,2,9,2,1,C,7,L,7,L,6,0.716146,0.193607,0.138651
13,38,9,8,1,8,0,I,1,S,7,L,9,0.442919,0.684398,0.303133
13,39,1,8,9,1,1,I,7,L,8,L,8,0.474572,0.658326,0.312423
13,40,8,9,8,1,0,I,1,S,7,L,8,0.693925,0.353801,0.245512
13,41,1,2,8,2,1,I,1,S,6,S,13,0.642737,0.672467,0.43222
13,42,2,8,2,9,1,C,6,S,7,L,6,0.209549,0.693686,0.145361
13,43,2,8,8,1,1,I,6,S,7,L,9,0.530229,0.661315,0.350648
13,44,9,2,8,9,1,I,7,L,1,S,7,0.689479,0.296471,0.20441
13,45,9,1,8,1,1,C,8,L,7,L,6,0.75998,0.16777,0.127502
13,46,2,1,1,2,1,I,1,S,1,S,11,0.650807,0.557036,0.362523
13,47,1,2,2,9,1,C,1,S,7,L,7,0.257346,0.71146,0.183092
13,48,8,2,8,9,1,I,6,S,1,S,7,0.680131,0.301742,0.205224
13,49,9,1,1,8,1,I,8,L,7,L,8,0.665802,0.469815,0.312804
13,50,2,8,8,9,1,C,6,S,1,S,7,0.277557,0.697906,0.193709
13,51,2,1,1,9,0,I,1,S,8,L,9,0.480651,0.65597,0.315293
13,52,1,8,1,9,1,C,7,L,8,L,6,0.16583,0.762455,0.126438
13,53,2,9,8,9,1,C,7,L,1,S,7,0.262891,0.721354,0.189637
13,54,9,2,2,8,1,I,7,L,6,S,8,0.663041,0.452552,0.30006
13,55,1,2,9,8,1,I,1,S,1,S,9,0.394835,0.673471,0.26591
13,56,2,9,9,1,1,I,7,L,8,L,9,0.515849,0.684744,0.353224
13,57,8,1,9,2,1,C,7,L,7,L,6,0.728457,0.186393,0.135779
13,58,1,8,9,8,1,I,7,L,1,S,7,0.276516,0.715452,0.197834
13,59,8,1,1,9,1,I,7,L,8,L,8,0.652165,0.481673,0.31413
13,60,8,1,9,1,1,C,7,L,8,L,6,0.755083,0.169456,0.127954
13,61,2,1,2,8,0,I,1,S,6,S,11,0.582245,0.654672,0.381179
13,62,2,1,8,9,1,I,1,S,1,S,10,0.69354,0.431998,0.299608
13,63,8,1,8,9,1,I,7,L,1,S,7,0.703181,0.288228,0.202676
13,64,9,2,9,8,1,C,7,L,1,S,7,0.721627,0.263391,0.19007
13,65,8,9,8,2,0,I,1,S,6,S,8,0.660552,0.375957,0.248339
13,66,1,2,8,9,1,C,1,S,1,S,8,0.348878,0.657424,0.229361
13,67,9,8,8,1,1,C,1,S,7,L,7,0.696682,0.278958,0.194345
13,68,1,9,1,2,1,C,8,L,1,S,6,0.217187,0.686288,0.149053
13,69,9,2,2,1,1,C,7,L,1,S,7,0.775585,0.217626,0.168787
13,70,8,9,2,9,1,C,1,S,7,L,8,0.32193,0.718315,0.231247
13,71,9,1,2,8,1,I,8,L,6,S,8,0.685958,0.43868,0.300916
13,72,8,1,1,8,1,I,7,L,7,L,8,0.657324,0.474722,0.312046
13,73,8,2,9,8,1,C,6,S,1,S,7,0.712279,0.268662,0.191362
13,74,1,8,8,2,1,I,7,L,6,S,8,0.43847,0.682955,0.299456
13,75,8,1,1,2,1,I,7,L,1,S,7,0.660728,0.341348,0.225538
13,76,2,9,2,8,1,C,7,L,6,S,6,0.202795,0.706141,0.143202
13,77,8,2,9,2,1,C,6,S,7,L,6,0.707847,0.19813,0.140246
13,78,2,9,8,2,1,I,7,L,6,S,8,0.458343,0.654367,0.299924
13,79,8,2,9,1,1,C,6,S,8,L,6,0.734473,0.181193,0.133082
13,80,8,9,2,8,1,C,1,S,6,S,8,0.329113,0.708526,0.233185
13,81,8,2,2,9,1,I,6,S,7,L,9,0.701403,0.489343,0.343227
13,82,8,9,9,2,0,I,1,S,7,L,8,0.664752,0.372356,0.247524
13,83,1,9,9,8,1,I,8,L,1,S,7,0.266421,0.732163,0.195064
13,84,2,8,2,1,1,I,6,S,1,S,8,0.379468,0.691751,0.262497
13,85,9,8,2,8,0,I,1,S,6,S,9,0.464109,0.652559,0.302859
13,86,8,1,2,8,1,I,7,L,6,S,8,0.67748,0.443587,0.300522
13,87,2,9,1,8,1,C,7,L,7,L,6,0.186725,0.731997,0.136682
13,88,1,8,1,8,1,C,7,L,7,L,6,0.170255,0.75637,0.128776
13,89,9,1,8,2,1,C,8,L,6,S,6,0.732384,0.18551,0.135865
13,90,8,9,8,9,1,C,1,S,1,S,10,0.439897,0.651418,0.286557
13,91,1,9,2,8,1,C,8,L,6,S,6,0.177378,0.745766,0.132283
13,92,1,9,1,9,1,C,8,L,8,L,6,0.156883,0.777707,0.122009
13,93,1,9,8,1,1,I,8,L,7,L,8,0.460962,0.67824,0.312643
13,94,1,9,2,9,1,C,8,L,7,L,6,0.171533,0.753733,0.12929
13,95,2,9,2,9,1,C,7,L,7,L,6,0.19695,0.714108,0.140644
13,96,8,9,9,1,0,I,1,S,8,L,8,0.696653,0.351328,0.244754
13,97,8,2,8,1,1,C,6,S,7,L,6,0.732061,0.183408,0.134266
13,98,2,9,1,2,1,C,7,L,1,S,7,0.220437,0.774474,0.170723
13,99,9,8,1,2,1,I,1,S,1,S,13,0.661091,0.616665,0.407671
13,100,1,9,2,1,1,I,8,L,1,S,7,0.320379,0.686398,0.219907
13,101,8,9,9,8,1,I,1,S,1,S,15,0.568551,0.663596,0.377288
13,102,1,2,2,8,1,C,1,S,6,S,7,0.263994,0.702313,0.185406
13,103,9,1,2,9,1,I,8,L,7,L,8,0.678775,0.448469,0.30441
13,104,2,8,2,8,1,C,6,S,6,S,6,0.215394,0.685719,0.1477
13,105,9,8,9,8,1,C,1,S,1,S,9,0.663696,0.39577,0.262671
13,106,9,1,9,1,1,C,8,L,8,L,6,0.762392,0.165555,0.126218
13,107,2,9,9,8,1,I,7,L,1,S,7,0.295039,0.688274,0.203067
13,108,1,2,8,1,0,I,1,S,7,L,10,0.655735,0.540854,0.354657
13,109,9,1,2,1,1,C,8,L,1,S,6,0.668897,0.227821,0.152389
13,110,2,8,9,1,1,I,6,S,8,L,9,0.532935,0.658826,0.351111
13,111,9,1,8,9,1,I,8,L,1,S,7,0.711251,0.283742,0.201812
