ANN,trial,N1,N2,P1,P2,Succ.,Cong,Ndist,Ndist,Pdist,Pdist,rt,a1,a2,x_acc
1,1,9,8,8,1,1,C,1,S,7,L,11,0.817105,0.353634,0.288956
1,2,2,8,2,1,1,I,6,S,1,S,10,0.38561,0.750439,0.289376
1,3,9,1,9,2,1,C,8,L,7,L,8,0.756586,0.296327,0.224197
1,4,8,1,1,2,1,I,7,L,1,S,11,0.791606,0.422562,0.334502
1,5,9,2,1,2,1,I,7,L,1,S,10,0.755179,0.414329,0.312893
1,6,2,9,8,2,1,I,7,L,6,S,14,0.530399,0.773518,0.410273
1,7,2,9,2,9,1,C,7,L,7,L,9,0.320072,0.776015,0.248381
1,8,2,8,8,9,1,C,6,S,1,S,10,0.362277,0.773472,0.280211
1,9,2,8,8,2,1,I,6,S,6,S,12,0.480987,0.76591,0.368393
1,10,2,1,1,9,1,I,1,S,8,L,15,0.762835,0.587647,0.448278
1,11,8,2,1,2,1,I,6,S,1,S,12,0.780886,0.463953,0.362294
1,12,2,8,2,9,1,C,6,S,7,L,9,0.28685,0.819728,0.235139
1,13,9,8,2,9,0,I,1,S,7,L,13,0.473922,0.763204,0.361699
1,14,8,2,2,9,1,I,6,S,7,L,13,0.751394,0.553789,0.416114
1,15,8,1,2,9,1,I,7,L,7,L,12,0.770177,0.510385,0.393087
1,16,2,9,1,8,1,C,7,L,7,L,9,0.325648,0.76801,0.250101
1,17,9,2,2,9,1,I,7,L,7,L,12,0.783586,0.50254,0.393783
1,18,8,9,1,9,1,C,1,S,8,L,11,0.392642,0.775309,0.304419
1,19,8,1,1,8,1,I,7,L,7,L,12,0.777164,0.500676,0.389107
1,20,9,8,2,8,0,I,1,S,6,S,13,0.483528,0.750539,0.362907
1,21,9,1,2,1,1,C,8,L,1,S,9,0.798402,0.3133,0.250139
1,22,8,2,8,2,1,C,6,S,6,S,9,0.770195,0.324521,0.249945
1,23,9,2,2,8,1,I,7,L,6,S,11,0.754988,0.483861,0.365309
1,24,1,2,2,9,1,C,1,S,7,L,11,0.375342,0.797443,0.299314
1,25,1,8,2,9,1,C,7,L,7,L,8,0.289786,0.758447,0.219787
1,26,9,1,1,8,1,I,8,L,7,L,11,0.788329,0.459836,0.362501
1,27,1,2,2,8,1,C,1,S,6,S,11,0.384572,0.784815,0.301817
1,28,2,1,2,8,1,I,1,S,6,S,15,0.774069,0.573715,0.444095
1,29,1,8,2,1,1,I,7,L,1,S,10,0.346962,0.805195,0.279372
1,30,9,1,1,2,1,I,8,L,1,S,10,0.790787,0.387891,0.306739
1,31,8,1,9,1,1,C,7,L,8,L,8,0.757824,0.290912,0.22046
1,32,8,2,8,1,1,C,6,S,7,L,9,0.822518,0.285359,0.234713
1,33,8,1,2,1,1,C,7,L,1,S,9,0.752509,0.34431,0.259096
1,34,1,9,9,1,1,I,8,L,8,L,13,0.542848,0.767813,0.416806
1,35,1,2,9,1,0,I,1,S,8,L,12,0.768116,0.440052,0.338011
1,36,1,9,2,9,1,C,8,L,7,L,9,0.276429,0.836173,0.231142
1,37,9,1,1,9,1,I,8,L,8,L,11,0.779376,0.472096,0.36794
1,38,9,8,9,1,1,C,1,S,8,L,11,0.81823,0.3547,0.290226
1,39,2,1,8,9,1,I,1,S,1,S,11,0.781135,0.388637,0.303578
1,40,2,8,1,9,1,C,6,S,8,L,9,0.284908,0.822081,0.234217
1,41,2,8,1,2,1,C,6,S,1,S,9,0.332191,0.758517,0.251973
1,42,9,2,1,9,1,I,7,L,8,L,12,0.781334,0.505268,0.394783
1,43,9,8,2,1,1,C,1,S,1,S,14,0.781285,0.423751,0.33107
1,44,2,8,9,8,1,I,6,S,1,S,10,0.381404,0.757381,0.288868
1,45,1,2,9,8,1,I,1,S,1,S,18,0.514878,0.759494,0.391047
1,46,1,8,2,8,1,C,7,L,6,S,9,0.259617,0.858899,0.222985
1,47,9,1,2,8,1,I,8,L,6,S,11,0.790824,0.456745,0.361205
1,48,8,9,8,2,0,I,1,S,6,S,13,0.761579,0.446715,0.340209
1,49,2,9,9,8,1,I,7,L,1,S,11,0.402507,0.766431,0.308494
1,50,9,2,9,1,1,C,7,L,8,L,8,0.768244,0.285897,0.219639
1,51,9,8,1,9,0,I,1,S,8,L,13,0.471692,0.765855,0.361248
1,52,9,8,1,2,1,I,1,S,1,S,23,0.772976,0.629013,0.486212
1,53,2,8,8,1,1,I,6,S,7,L,14,0.555466,0.777201,0.431709
1,54,8,1,8,9,1,I,7,L,1,S,10,0.809265,0.341676,0.276507
1,55,2,1,2,9,1,I,1,S,7,L,15,0.764904,0.585296,0.447695
1,56,1,2,8,1,0,I,1,S,7,L,12,0.766793,0.439202,0.336777
1,57,8,2,1,9,1,I,6,S,8,L,14,0.77919,0.556667,0.43375
1,58,1,2,8,9,1,C,1,S,1,S,15,0.456446,0.757399,0.345712
1,59,2,9,8,9,1,C,7,L,1,S,11,0.376322,0.789445,0.297086
1,60,2,9,1,2,1,C,7,L,1,S,10,0.333551,0.80187,0.267465
1,61,2,8,9,1,1,I,6,S,8,L,14,0.55717,0.777612,0.433262
1,62,9,8,8,2,1,C,1,S,6,S,12,0.815909,0.371904,0.303439
1,63,1,9,1,9,1,C,8,L,8,L,9,0.274487,0.838526,0.230164
1,64,9,1,2,9,1,I,8,L,7,L,11,0.781594,0.469373,0.366859
1,65,1,2,1,9,1,C,1,S,8,L,11,0.373124,0.800166,0.298561
1,66,2,1,2,1,1,C,1,S,1,S,11,0.813705,0.356652,0.29021
1,67,8,2,2,8,1,I,6,S,6,S,13,0.761,0.541124,0.411795
1,68,1,8,9,2,1,I,7,L,7,L,11,0.435137,0.785613,0.341849
1,69,9,2,1,8,1,I,7,L,7,L,11,0.752493,0.486951,0.366427
1,70,1,2,8,2,0,I,1,S,6,S,15,0.76154,0.503549,0.383473
1,71,1,8,1,8,1,C,7,L,7,L,8,0.294472,0.751803,0.221385
1,72,9,2,2,1,1,C,7,L,1,S,9,0.7644,0.338235,0.258547
1,73,9,1,8,2,1,C,8,L,6,S,8,0.75674,0.293959,0.22245
1,74,1,9,9,2,1,I,8,L,7,L,12,0.466816,0.788645,0.368152
1,75,1,8,8,1,1,I,7,L,7,L,12,0.509577,0.771082,0.392926
1,76,2,1,9,2,1,C,1,S,7,L,10,0.82669,0.31722,0.262243
1,77,1,8,9,8,1,I,7,L,1,S,10,0.342756,0.812137,0.278365
1,78,8,2,8,9,1,I,6,S,1,S,10,0.759121,0.378763,0.287527
1,79,8,9,8,9,1,C,1,S,1,S,18,0.435837,0.797193,0.347446
1,80,8,1,8,2,1,C,7,L,6,S,9,0.815759,0.290792,0.237216
1,81,2,1,8,1,1,C,1,S,7,L,9,0.787726,0.310415,0.244522
1,82,8,2,2,1,1,C,6,S,1,S,10,0.782454,0.35573,0.278342
1,83,8,9,9,8,1,I,1,S,1,S,26,0.60412,0.771235,0.465919
1,84,9,1,9,1,1,C,8,L,8,L,8,0.798935,0.263389,0.210431
1,85,2,1,1,2,1,I,1,S,1,S,13,0.770972,0.499692,0.385248
1,86,9,8,9,8,1,C,1,S,1,S,14,0.763642,0.442066,0.33758
1,87,1,9,2,8,1,C,8,L,6,S,9,0.284132,0.825594,0.234577
1,88,1,8,8,9,1,C,7,L,1,S,9,0.347404,0.750154,0.260606
1,89,8,2,1,8,1,I,6,S,7,L,13,0.758448,0.544199,0.412747
1,90,1,9,8,2,1,I,8,L,6,S,12,0.467437,0.786031,0.36742
1,91,1,8,9,1,1,I,7,L,8,L,12,0.5109,0.771931,0.39438
1,92,9,2,9,8,1,C,7,L,1,S,9,0.761814,0.343585,0.261747
1,93,8,9,1,2,1,C,1,S,1,S,13,0.414345,0.789603,0.327168
1,94,8,1,9,8,1,C,7,L,1,S,10,0.828392,0.325585,0.269712
1,95,8,9,2,9,1,C,1,S,7,L,11,0.39486,0.772586,0.305064
1,96,8,2,9,1,1,C,6,S,8,L,9,0.823293,0.286775,0.2361
1,97,2,8,2,8,1,C,6,S,6,S,9,0.294552,0.809149,0.238337
1,98,9,8,8,9,1,I,1,S,1,S,16,0.771334,0.470045,0.362561
1,99,9,1,8,9,1,I,8,L,1,S,9,0.781968,0.329596,0.257734
1,100,1,9,8,9,1,C,8,L,1,S,10,0.350386,0.791959,0.277491
1,101,2,9,2,8,1,C,7,L,6,S,9,0.327775,0.765437,0.250891
1,102,1,9,8,1,1,I,8,L,7,L,13,0.54133,0.767185,0.4153
1,103,2,1,9,8,1,C,1,S,1,S,11,0.80732,0.365623,0.295175
1,104,1,9,1,2,1,C,8,L,1,S,9,0.32177,0.774963,0.24936
1,105,2,9,9,2,1,I,7,L,7,L,14,0.530158,0.775725,0.411257
1,106,8,2,9,8,1,C,6,S,1,S,10,0.778248,0.362672,0.282249
1,107,2,1,9,1,1,C,1,S,8,L,9,0.788501,0.311831,0.245879
1,108,1,2,2,1,1,I,1,S,1,S,19,0.551353,0.751105,0.414124
1,109,8,1,2,8,1,I,7,L,6,S,12,0.779722,0.49754,0.387942
1,110,8,9,9,2,0,I,1,S,7,L,13,0.761111,0.449154,0.341856
1,111,8,2,9,2,1,C,6,S,7,L,9,0.769786,0.327105,0.251801
1,112,2,9,8,1,1,I,7,L,7,L,16,0.591711,0.775059,0.458611
1,113,2,9,9,1,1,I,7,L,8,L,16,0.59375,0.775075,0.460201
1,114,9,2,8,1,1,C,7,L,7,L,8,0.767586,0.284391,0.218294
1,115,1,9,1,8,1,C,8,L,7,L,9,0.282004,0.828168,0.233547
1,116,1,9,9,8,1,I,8,L,1,S,10,0.369512,0.775867,0.286693
1,117,2,8,1,8,1,C,6,S,7,L,9,0.292425,0.811723,0.237368
1,118,9,1,9,8,1,C,8,L,1,S,9,0.795815,0.31865,0.253587
1,119,1,2,1,8,1,C,1,S,7,L,11,0.382076,0.787905,0.30104
1,120,8,9,8,1,0,I,1,S,7,L,12,0.794076,0.40543,0.321943
1,121,9,1,8,1,1,C,8,L,7,L,8,0.798277,0.261883,0.209055
1,122,9,8,9,2,1,C,1,S,7,L,12,0.815287,0.374517,0.305339
1,123,9,2,8,9,1,I,7,L,1,S,10,0.822103,0.334773,0.275218
1,124,2,8,9,2,1,I,6,S,7,L,12,0.480366,0.768523,0.369173
1,125,1,2,9,2,0,I,1,S,7,L,15,0.76157,0.50549,0.384966
1,126,1,2,1,2,1,C,1,S,1,S,12,0.409872,0.773691,0.317115
1,127,8,1,8,1,1,C,7,L,7,L,8,0.757165,0.289406,0.219128
1,128,8,9,2,8,1,C,1,S,6,S,11,0.40409,0.759958,0.307092
1,129,1,8,8,2,1,I,7,L,6,S,11,0.435807,0.782905,0.341196
1,130,9,2,8,2,1,C,7,L,6,S,9,0.82765,0.284717,0.235646
1,131,8,9,1,8,1,C,1,S,7,L,11,0.401595,0.763049,0.306436
1,132,1,8,1,2,1,C,7,L,1,S,9,0.297256,0.808267,0.240262
1,133,9,2,9,2,1,C,7,L,7,L,9,0.82724,0.287301,0.237667
1,134,8,9,9,1,0,I,1,S,8,L,11,0.750873,0.418036,0.313892
1,135,8,1,1,9,1,I,7,L,8,L,12,0.767925,0.513114,0.394033
1,136,1,8,1,9,1,C,7,L,8,L,8,0.288092,0.76042,0.219071
1,137,2,1,1,8,1,I,1,S,7,L,15,0.771675,0.576476,0.444852
1,138,1,9,2,1,1,I,8,L,1,S,10,0.373718,0.768925,0.287361
1,139,2,9,1,9,1,C,7,L,8,L,9,0.31813,0.778369,0.247623
1,140,2,9,2,1,1,I,7,L,1,S,11,0.408892,0.757461,0.30972
1,141,8,9,2,1,1,I,1,S,1,S,27,0.623573,0.764525,0.476738
1,142,8,1,9,2,1,C,7,L,7,L,9,0.815349,0.293376,0.239204
1,143,2,1,8,2,1,C,1,S,6,S,10,0.827287,0.314519,0.260198
1,144,9,8,1,8,0,I,1,S,7,L,13,0.480976,0.753615,0.362471
2,1,9,8,1,9,0,I,1,S,8,L,11,0.381147,0.794282,0.302738
2,2,9,8,9,8,1,C,1,S,1,S,26,0.767249,0.480443,0.36862
2,3,9,8,8,9,1,I,1,S,1,S,21,0.76751,0.477219,0.36627
2,4,2,9,8,1,1,I,7,L,7,L,11,0.49266,0.751992,0.370477
2,5,1,2,1,9,1,C,1,S,8,L,10,0.323495,0.819899,0.265233
2,6,8,1,1,9,1,I,7,L,8,L,11,0.754938,0.505507,0.381626
2,7,1,2,2,9,1,C,1,S,7,L,10,0.357084,0.774193,0.276452
2,8,8,1,9,8,1,C,7,L,1,S,9,0.788958,0.325386,0.256716
2,9,2,8,1,9,1,C,6,S,8,L,8,0.282583,0.766439,0.216582
2,10,8,1,2,1,1,C,7,L,1,S,9,0.812854,0.301393,0.244988
2,11,8,2,8,1,1,C,6,S,7,L,9,0.852121,0.26679,0.227337
2,12,1,9,8,9,1,C,8,L,1,S,9,0.342805,0.760086,0.260561
2,13,8,2,9,8,1,C,6,S,1,S,10,0.797835,0.353304,0.281878
2,14,1,8,9,1,1,I,7,L,8,L,12,0.51294,0.756003,0.387784
2,15,1,9,9,1,1,I,8,L,8,L,11,0.47329,0.765542,0.362323
2,16,9,1,1,2,1,I,8,L,1,S,10,0.754101,0.420437,0.317052
2,17,2,1,9,2,1,C,1,S,7,L,10,0.771576,0.354794,0.273751
2,18,2,8,9,8,1,I,6,S,1,S,10,0.349575,0.797169,0.27867
2,19,1,8,8,2,1,I,7,L,6,S,12,0.502653,0.761592,0.382817
2,20,2,9,1,2,1,C,7,L,1,S,9,0.270313,0.843776,0.228083
2,21,1,2,1,2,1,C,1,S,1,S,11,0.353115,0.808562,0.285515
2,22,2,1,8,1,1,C,1,S,7,L,10,0.822581,0.317055,0.260804
2,23,2,8,2,8,1,C,6,S,6,S,9,0.288149,0.818584,0.235874
2,24,2,8,2,9,1,C,6,S,7,L,9,0.274426,0.837111,0.229725
2,25,2,9,2,9,1,C,7,L,7,L,8,0.284272,0.768119,0.218355
2,26,9,8,9,1,1,C,1,S,8,L,12,0.796582,0.399012,0.317846
2,27,2,1,1,2,1,I,1,S,1,S,17,0.763425,0.592776,0.45254
2,28,9,2,9,2,1,C,7,L,7,L,9,0.779262,0.318729,0.248374
2,29,9,2,2,9,1,I,7,L,7,L,13,0.756546,0.54586,0.412969
2,30,2,8,1,8,1,C,6,S,7,L,8,0.290803,0.754903,0.219528
2,31,2,1,9,8,1,C,1,S,1,S,12,0.768027,0.414849,0.318615
2,32,2,9,2,1,1,I,7,L,1,S,10,0.352859,0.8095,0.285639
2,33,1,8,1,8,1,C,7,L,7,L,8,0.290132,0.753664,0.218662
2,34,8,2,2,9,1,I,6,S,7,L,12,0.757624,0.517936,0.3924
2,35,2,8,9,2,1,I,6,S,7,L,12,0.475462,0.785019,0.373246
2,36,8,1,2,9,1,I,7,L,7,L,11,0.79033,0.457936,0.36192
2,37,8,2,1,8,1,I,6,S,7,L,13,0.76529,0.554289,0.424192
2,38,9,8,9,2,1,C,1,S,7,L,12,0.759166,0.425998,0.323403
2,39,9,8,2,8,0,I,1,S,6,S,12,0.418267,0.771383,0.322644
2,40,9,8,2,1,1,C,1,S,1,S,16,0.784401,0.449739,0.352776
2,41,8,2,1,2,1,I,6,S,1,S,11,0.75177,0.464303,0.349049
2,42,1,8,1,9,1,C,7,L,8,L,8,0.281912,0.7652,0.215719
2,43,8,2,2,1,1,C,6,S,1,S,10,0.832118,0.319988,0.266268
2,44,9,1,2,1,1,C,8,L,1,S,9,0.793038,0.313599,0.248696
2,45,9,1,8,9,1,I,8,L,1,S,9,0.771746,0.333,0.256991
2,46,2,8,2,1,1,I,6,S,1,S,10,0.383857,0.763853,0.29321
2,47,9,2,2,1,1,C,7,L,1,S,10,0.800184,0.341191,0.273016
2,48,2,8,1,2,1,C,6,S,1,S,9,0.298729,0.801287,0.239368
2,49,1,9,2,1,1,I,8,L,1,S,10,0.352715,0.807747,0.284905
2,50,9,2,8,9,1,I,7,L,1,S,10,0.770008,0.368375,0.283652
2,51,2,1,8,2,1,C,1,S,6,S,10,0.795124,0.336104,0.267244
2,52,1,8,2,8,1,C,7,L,6,S,9,0.287641,0.817121,0.235037
2,53,1,9,1,8,1,C,8,L,7,L,8,0.265533,0.790759,0.209972
2,54,1,2,9,2,1,I,1,S,7,L,19,0.628692,0.752292,0.47296
2,55,9,1,2,8,1,I,8,L,6,S,11,0.786429,0.448291,0.352549
2,56,1,8,9,2,1,I,7,L,7,L,12,0.475524,0.782989,0.37233
2,57,1,9,8,1,1,I,8,L,7,L,11,0.492691,0.75009,0.369563
2,58,2,1,8,9,1,I,1,S,1,S,12,0.776956,0.403981,0.313875
2,59,9,8,1,8,0,I,1,S,7,L,11,0.391697,0.779834,0.305459
2,60,8,9,9,1,1,I,1,S,8,L,22,0.654121,0.755438,0.494148
2,61,2,9,9,8,1,I,7,L,1,S,9,0.340522,0.766253,0.260926
2,62,8,1,8,2,1,C,7,L,6,S,8,0.780946,0.274392,0.214286
2,63,8,9,9,2,1,I,1,S,7,L,21,0.647288,0.750083,0.485519
2,64,9,1,9,8,1,C,8,L,1,S,9,0.769142,0.337593,0.259657
2,65,1,2,9,1,1,I,1,S,8,L,20,0.642655,0.754378,0.484805
2,66,1,2,2,1,1,I,1,S,1,S,15,0.516971,0.753229,0.389397
2,67,9,2,8,1,1,C,7,L,7,L,9,0.823607,0.285521,0.235158
2,68,1,9,8,2,1,I,8,L,6,S,11,0.463457,0.770627,0.357152
2,69,9,2,2,8,1,I,7,L,6,S,13,0.774886,0.521622,0.404197
2,70,1,8,8,9,1,C,7,L,1,S,10,0.35336,0.789359,0.278928
2,71,9,1,1,8,1,I,8,L,7,L,12,0.781026,0.511545,0.39953
2,72,8,2,9,1,1,C,6,S,8,L,9,0.835593,0.280108,0.234056
2,73,9,8,8,2,1,C,1,S,6,S,12,0.786296,0.404601,0.318136
2,74,9,1,2,9,1,I,8,L,7,L,11,0.769259,0.471692,0.362853
2,75,1,2,8,9,1,C,1,S,1,S,13,0.445076,0.753925,0.335554
2,76,9,2,9,1,1,C,7,L,8,L,9,0.80708,0.298839,0.241187
2,77,8,9,2,8,1,C,1,S,6,S,11,0.367219,0.800978,0.294134
2,78,8,1,9,2,1,C,7,L,7,L,8,0.765299,0.28787,0.220307
2,79,9,1,1,9,1,I,8,L,8,L,12,0.77034,0.525868,0.405097
2,80,2,1,2,9,1,I,1,S,7,L,18,0.755043,0.626621,0.473126
2,81,1,2,9,8,1,I,1,S,1,S,13,0.432419,0.768338,0.332244
2,82,1,9,1,9,1,C,8,L,8,L,8,0.257313,0.802294,0.20644
2,83,2,1,2,8,1,I,1,S,6,S,18,0.770223,0.608375,0.468585
2,84,1,9,9,8,1,I,8,L,1,S,9,0.340201,0.764679,0.260144
2,85,1,2,8,1,1,I,1,S,7,L,21,0.63936,0.767002,0.490391
2,86,2,9,9,2,1,I,7,L,7,L,11,0.437466,0.79292,0.346876
2,87,8,1,2,8,1,I,7,L,6,S,10,0.761948,0.428099,0.32619
2,88,9,1,8,2,1,C,8,L,6,S,8,0.763006,0.285172,0.217588
2,89,8,9,8,1,0,I,1,S,7,L,14,0.753877,0.522383,0.393813
2,90,1,9,1,2,1,C,8,L,1,S,9,0.269991,0.842202,0.227387
2,91,8,9,2,9,1,C,1,S,7,L,10,0.380267,0.75102,0.285588
2,92,2,9,1,8,1,C,7,L,7,L,8,0.266022,0.792128,0.210724
2,93,2,9,9,1,1,I,7,L,8,L,11,0.473259,0.767444,0.3632
2,94,2,8,9,1,1,I,6,S,8,L,12,0.512878,0.758033,0.388778
2,95,8,9,1,9,1,C,1,S,8,L,10,0.346678,0.796726,0.276207
2,96,2,8,8,9,1,C,6,S,1,S,10,0.353681,0.791036,0.279774
2,97,9,1,9,2,1,C,8,L,7,L,9,0.853257,0.264062,0.225313
2,98,8,2,8,2,1,C,6,S,6,S,9,0.827744,0.283669,0.234805
2,99,2,9,2,8,1,C,7,L,6,S,8,0.295544,0.753315,0.222638
2,100,2,9,1,9,1,C,7,L,8,L,8,0.257802,0.803663,0.207186
2,101,8,9,2,1,1,I,1,S,1,S,18,0.560173,0.772847,0.432928
2,102,8,2,8,9,1,I,6,S,1,S,10,0.801941,0.347172,0.278411
2,103,8,1,9,1,1,C,7,L,8,L,8,0.787364,0.271767,0.21398
2,104,8,2,9,2,1,C,6,S,7,L,9,0.807775,0.299998,0.242331
2,105,9,2,1,9,1,I,7,L,8,L,14,0.750925,0.591539,0.444202
2,106,8,1,8,9,1,I,7,L,1,S,9,0.791561,0.320794,0.253928
2,107,9,8,1,2,0,I,1,S,1,S,13,0.416806,0.790579,0.329518
2,108,1,2,1,8,1,C,1,S,7,L,10,0.333615,0.80579,0.268824
2,109,1,2,2,8,1,C,1,S,6,S,10,0.372816,0.752702,0.280619
2,110,8,1,1,8,1,I,7,L,7,L,11,0.765488,0.491059,0.3759
2,111,1,9,2,9,1,C,8,L,7,L,8,0.283782,0.76675,0.21759
2,112,8,1,1,2,1,I,7,L,1,S,10,0.774903,0.407249,0.315578
2,113,1,8,1,2,1,C,7,L,1,S,9,0.29822,0.799825,0.238524
2,114,2,8,8,1,1,I,6,S,7,L,13,0.536213,0.774871,0.415496
2,115,2,9,8,2,1,I,7,L,6,S,11,0.463426,0.772529,0.35801
2,116,9,2,9,8,1,C,7,L,1,S,10,0.765901,0.374507,0.286836
2,117,1,8,9,8,1,I,7,L,1,S,10,0.349253,0.795491,0.277828
2,118,1,8,2,9,1,C,7,L,7,L,9,0.273917,0.835648,0.228898
2,119,2,1,1,9,1,I,1,S,8,L,19,0.75105,0.647631,0.486404
2,120,1,8,8,1,1,I,7,L,7,L,13,0.536449,0.772708,0.414519
2,121,9,8,8,1,1,C,1,S,7,L,11,0.766901,0.400003,0.306763
2,122,8,2,1,9,1,I,6,S,8,L,13,0.754705,0.568167,0.428798
2,123,2,8,8,2,1,I,6,S,6,S,12,0.502591,0.763622,0.38379
2,124,8,9,1,8,1,C,1,S,7,L,10,0.356798,0.782617,0.279236
2,125,1,8,2,1,1,I,7,L,1,S,10,0.383536,0.762175,0.292321
2,126,2,1,2,1,1,C,1,S,1,S,11,0.760007,0.391556,0.297586
2,127,2,1,9,1,1,C,1,S,8,L,10,0.804145,0.331703,0.266737
2,128,8,9,8,2,1,I,1,S,6,S,22,0.646455,0.760321,0.491514
2,129,8,9,9,8,1,I,1,S,1,S,14,0.449608,0.766296,0.344533
2,130,8,1,8,1,1,C,7,L,7,L,8,0.801106,0.260277,0.20851
2,131,1,9,2,8,1,C,8,L,6,S,8,0.295054,0.751946,0.221865
2,132,9,2,8,2,1,C,7,L,6,S,9,0.799231,0.3024,0.241688
2,133,8,9,8,9,1,C,1,S,1,S,15,0.446184,0.789891,0.352436
2,134,9,2,1,8,1,I,7,L,7,L,14,0.761231,0.578305,0.440224
2,135,8,9,1,2,1,C,1,S,1,S,11,0.382142,0.77737,0.297066
2,136,2,9,8,9,1,C,7,L,1,S,9,0.343126,0.76166,0.261346
2,137,9,1,8,1,1,C,8,L,7,L,8,0.783166,0.271057,0.212282
2,138,9,8,2,9,0,I,1,S,7,L,12,0.400246,0.79564,0.318452
2,139,1,9,9,2,1,I,8,L,7,L,11,0.437497,0.791018,0.346068
2,140,9,1,9,1,1,C,8,L,8,L,8,0.769425,0.282547,0.217399
2,141,1,2,8,2,1,I,1,S,6,S,20,0.634325,0.759722,0.48191
2,142,9,2,1,2,1,I,7,L,1,S,12,0.757507,0.492201,0.372846
2,143,2,1,1,8,1,I,1,S,7,L,19,0.758848,0.638218,0.48431
2,144,8,2,2,8,1,I,6,S,6,S,12,0.775644,0.493678,0.382919
3,1,8,1,8,9,1,I,7,L,1,S,11,0.778467,0.450103,0.35039
3,2,2,8,2,1,1,I,6,S,1,S,11,0.408305,0.779494,0.318272
3,3,2,9,1,9,1,C,7,L,8,L,8,0.265013,0.792159,0.209932
3,4,2,1,9,2,1,C,1,S,7,L,11,0.792999,0.374378,0.296881
3,5,9,2,9,8,1,C,7,L,1,S,9,0.774442,0.325577,0.252141
3,6,2,1,8,1,1,C,1,S,7,L,11,0.780446,0.384435,0.300031
3,7,8,2,9,1,1,C,6,S,8,L,8,0.802287,0.258558,0.207438
3,8,2,8,9,1,1,I,6,S,8,L,14,0.577857,0.761185,0.439857
3,9,1,9,1,9,1,C,8,L,8,L,8,0.246731,0.819706,0.202247
3,10,2,8,1,8,1,C,6,S,7,L,9,0.295127,0.810903,0.239319
3,11,9,1,8,9,1,I,8,L,1,S,12,0.767272,0.493727,0.378823
3,12,2,1,1,2,1,I,1,S,1,S,23,0.763591,0.621794,0.474796
3,13,2,9,8,1,1,I,7,L,7,L,12,0.489781,0.78698,0.385448
3,14,9,8,2,8,0,I,1,S,6,S,12,0.425209,0.768786,0.326895
3,15,2,9,2,1,1,I,7,L,1,S,10,0.374312,0.781672,0.29259
3,16,1,2,9,1,0,I,1,S,8,L,11,0.768972,0.406695,0.312737
3,17,1,9,8,9,1,C,8,L,1,S,8,0.288644,0.760563,0.219532
3,18,1,9,2,8,1,C,8,L,6,S,8,0.284616,0.767049,0.218315
3,19,1,9,8,2,1,I,8,L,6,S,10,0.415426,0.763973,0.317375
3,20,2,8,8,2,1,I,6,S,6,S,12,0.491714,0.758551,0.37299
3,21,1,9,2,1,1,I,8,L,1,S,10,0.352075,0.814265,0.286682
3,22,9,1,8,1,1,C,8,L,7,L,9,0.823226,0.286594,0.235932
3,23,1,9,9,2,1,I,8,L,7,L,11,0.472829,0.772258,0.365146
3,24,1,8,9,2,1,I,7,L,7,L,12,0.513466,0.764362,0.392474
3,25,1,2,8,9,1,C,1,S,1,S,12,0.400014,0.789797,0.31593
3,26,9,2,2,8,1,I,7,L,6,S,12,0.784254,0.486989,0.381923
3,27,8,2,8,9,1,I,6,S,1,S,10,0.750077,0.431331,0.323531
3,28,8,1,2,9,1,I,7,L,7,L,12,0.764462,0.52673,0.402665
3,29,8,1,9,2,1,C,7,L,7,L,8,0.766909,0.282909,0.216965
3,30,1,2,8,2,0,I,1,S,6,S,13,0.765498,0.447699,0.342713
3,31,8,9,8,2,0,I,1,S,6,S,13,0.791986,0.416239,0.329655
3,32,8,9,9,2,0,I,1,S,7,L,11,0.754736,0.408611,0.308393
3,33,8,1,8,1,1,C,7,L,7,L,8,0.758298,0.29026,0.220104
3,34,8,9,2,1,0,I,1,S,1,S,15,0.764133,0.458369,0.350255
3,35,8,1,1,8,1,I,7,L,7,L,11,0.757815,0.481524,0.364906
3,36,2,9,2,9,1,C,7,L,7,L,8,0.271145,0.781653,0.211941
3,37,2,1,8,2,1,C,1,S,6,S,12,0.800189,0.386673,0.309411
3,38,1,2,8,1,0,I,1,S,7,L,12,0.771563,0.426363,0.328966
3,39,9,8,1,9,0,I,1,S,8,L,11,0.385624,0.795643,0.306819
3,40,2,9,9,2,1,I,7,L,7,L,12,0.502508,0.776672,0.390284
3,41,2,1,9,1,1,C,1,S,8,L,10,0.756535,0.377973,0.28595
3,42,8,1,9,1,1,C,7,L,8,L,8,0.787409,0.268901,0.211735
3,43,8,2,2,9,1,I,6,S,7,L,12,0.78183,0.513867,0.401757
3,44,8,2,1,9,1,I,6,S,8,L,12,0.773317,0.52686,0.40743
3,45,9,2,1,8,1,I,7,L,7,L,12,0.76974,0.508387,0.391326
3,46,2,8,9,8,1,I,6,S,1,S,11,0.42494,0.766281,0.325624
3,47,1,8,2,1,1,I,7,L,1,S,10,0.385112,0.769251,0.296248
3,48,8,2,2,8,1,I,6,S,6,S,11,0.789157,0.44813,0.353645
3,49,9,8,8,9,0,I,1,S,1,S,12,0.432733,0.757357,0.327733
3,50,9,1,9,1,1,C,8,L,8,L,9,0.857771,0.261635,0.224423
3,51,1,8,2,9,1,C,7,L,7,L,8,0.280393,0.771457,0.216311
3,52,1,8,1,9,1,C,7,L,8,L,8,0.27426,0.781963,0.214461
3,53,8,9,9,1,0,I,1,S,8,L,11,0.782308,0.389327,0.304573
3,54,9,2,1,9,1,I,7,L,8,L,13,0.763277,0.562596,0.429417
3,55,9,2,2,9,1,I,7,L,7,L,13,0.771822,0.549888,0.424415
3,56,1,8,1,2,1,C,7,L,1,S,9,0.335998,0.762869,0.256323
3,57,2,9,1,2,1,C,7,L,1,S,9,0.325781,0.774517,0.252323
3,58,2,8,9,2,1,I,6,S,7,L,13,0.55097,0.751015,0.413787
3,59,2,8,1,9,1,C,6,S,8,L,9,0.261444,0.856778,0.224
3,60,1,2,1,9,1,C,1,S,8,L,10,0.380209,0.760087,0.288992
3,61,2,1,2,1,1,C,1,S,1,S,13,0.762328,0.428711,0.326818
3,62,1,8,9,8,1,I,7,L,1,S,10,0.397779,0.758847,0.301853
3,63,9,8,1,2,0,I,1,S,1,S,16,0.482571,0.758566,0.366062
3,64,9,1,8,2,1,C,8,L,6,S,9,0.792232,0.308842,0.244674
3,65,1,9,8,1,1,I,8,L,7,L,11,0.460276,0.782316,0.360081
3,66,8,1,1,9,1,I,7,L,8,L,12,0.755949,0.539723,0.408003
3,67,9,1,2,1,1,C,8,L,1,S,10,0.829778,0.317955,0.263832
3,68,8,2,2,1,1,C,6,S,1,S,9,0.805613,0.303418,0.244438
3,69,9,1,1,9,1,I,8,L,8,L,14,0.769136,0.579756,0.445911
3,70,9,2,9,1,1,C,7,L,8,L,8,0.766502,0.285318,0.218697
3,71,9,8,8,1,1,C,1,S,7,L,11,0.752673,0.41271,0.310636
3,72,1,9,1,8,1,C,8,L,7,L,8,0.276035,0.780321,0.215396
3,73,2,1,1,8,0,I,1,S,7,L,12,0.449396,0.752162,0.338019
3,74,8,1,2,8,1,I,7,L,6,S,11,0.771501,0.460911,0.355593
3,75,8,9,9,8,0,I,1,S,1,S,14,0.754465,0.456624,0.344507
3,76,2,8,8,9,1,C,6,S,1,S,9,0.310942,0.786244,0.244476
3,77,9,8,9,2,1,C,1,S,7,L,11,0.765226,0.402653,0.30812
3,78,9,1,9,8,1,C,8,L,1,S,9,0.753075,0.340826,0.256667
3,79,9,2,1,2,1,I,7,L,1,S,10,0.773177,0.381141,0.294689
3,80,8,1,2,1,1,C,7,L,1,S,9,0.789039,0.314988,0.248538
3,81,1,9,9,1,1,I,8,L,8,L,11,0.500401,0.752974,0.376789
3,82,9,8,9,1,1,C,1,S,8,L,11,0.792798,0.383368,0.303934
3,83,8,1,9,8,1,C,7,L,1,S,9,0.798256,0.307171,0.245201
3,84,9,2,8,1,1,C,7,L,7,L,9,0.844593,0.271346,0.229177
3,85,1,2,2,9,1,C,1,S,7,L,11,0.370089,0.805942,0.29827
3,86,2,8,8,1,1,I,6,S,7,L,13,0.538494,0.7613,0.409955
3,87,8,9,1,9,1,C,1,S,8,L,11,0.375134,0.801601,0.300708
3,88,8,2,9,2,1,C,6,S,7,L,8,0.781788,0.272567,0.213089
3,89,9,2,9,2,1,C,7,L,7,L,9,0.855083,0.262771,0.224691
3,90,1,8,8,2,1,I,7,L,6,S,11,0.453792,0.765494,0.347375
3,91,8,2,8,2,1,C,6,S,6,S,9,0.853987,0.263617,0.225125
3,92,2,8,2,9,1,C,6,S,7,L,9,0.268561,0.8449,0.226907
3,93,2,9,8,9,1,C,7,L,1,S,9,0.273157,0.837793,0.228849
3,94,9,1,2,9,1,I,8,L,7,L,14,0.777566,0.56749,0.441261
3,95,9,1,1,8,1,I,8,L,7,L,13,0.778439,0.530354,0.412848
3,96,2,1,9,8,1,C,1,S,1,S,13,0.786702,0.410288,0.322774
3,97,8,9,2,9,1,C,1,S,7,L,11,0.383424,0.788574,0.302358
3,98,1,2,9,8,0,I,1,S,1,S,16,0.765079,0.49023,0.375065
3,99,8,2,9,8,1,C,6,S,1,S,9,0.81483,0.295601,0.240865
3,100,9,8,1,8,0,I,1,S,7,L,12,0.410695,0.790184,0.324525
3,101,1,9,2,9,1,C,8,L,7,L,8,0.252864,0.8092,0.204617
3,102,8,9,8,1,0,I,1,S,7,L,12,0.790568,0.402959,0.318566
3,103,9,2,8,2,1,C,7,L,6,S,9,0.813599,0.293593,0.238867
3,104,1,8,8,1,1,I,7,L,7,L,12,0.500739,0.77467,0.387907
3,105,8,1,1,2,1,I,7,L,1,S,10,0.798611,0.361441,0.288651
3,106,2,8,1,2,1,C,6,S,1,S,10,0.33577,0.805053,0.270313
3,107,1,8,1,8,1,C,7,L,7,L,9,0.26756,0.850804,0.227641
3,108,8,2,1,8,1,I,6,S,7,L,11,0.77547,0.468742,0.363496
3,109,2,1,1,9,0,I,1,S,8,L,11,0.413397,0.767368,0.317228
3,110,2,8,2,8,1,C,6,S,6,S,9,0.305781,0.794465,0.242932
3,111,1,9,9,8,1,I,8,L,1,S,10,0.364742,0.803861,0.293202
3,112,1,2,2,1,0,I,1,S,1,S,17,0.751522,0.514311,0.386516
3,113,8,9,2,8,1,C,1,S,6,S,12,0.411495,0.777822,0.32007
3,114,9,2,8,9,1,I,7,L,1,S,11,0.752548,0.470443,0.35403
3,115,1,2,1,8,1,C,1,S,7,L,11,0.400432,0.767164,0.307197
3,116,9,1,2,8,1,I,8,L,6,S,12,0.759749,0.505157,0.383792
3,117,1,2,1,2,1,C,1,S,1,S,14,0.447079,0.760419,0.339967
3,118,8,9,1,8,1,C,1,S,7,L,12,0.396981,0.79922,0.317275
3,119,9,1,1,2,1,I,8,L,1,S,11,0.806953,0.387252,0.312494
3,120,1,8,2,8,1,C,7,L,6,S,9,0.278214,0.834366,0.232132
3,121,1,8,8,9,1,C,7,L,1,S,9,0.283375,0.826145,0.234109
3,122,2,1,2,9,0,I,1,S,7,L,11,0.421687,0.754341,0.318096
3,123,9,1,9,2,1,C,8,L,7,L,9,0.833716,0.278019,0.231789
3,124,2,9,1,8,1,C,7,L,7,L,8,0.294316,0.752773,0.221553
3,125,8,2,1,2,1,I,6,S,1,S,10,0.816063,0.34907,0.284863
3,126,1,9,1,2,1,C,8,L,1,S,9,0.30514,0.805335,0.24574
3,127,9,8,9,8,1,C,1,S,1,S,14,0.778186,0.437979,0.34083
3,128,2,9,9,8,1,I,7,L,1,S,10,0.386979,0.771268,0.298465
3,129,2,9,9,1,1,I,7,L,8,L,12,0.530252,0.75684,0.401316
3,130,8,9,8,9,1,C,1,S,1,S,12,0.419019,0.766393,0.321133
3,131,2,1,8,9,0,I,1,S,1,S,14,0.473975,0.77063,0.365259
3,132,1,8,9,1,1,I,7,L,8,L,13,0.544229,0.7772,0.422975
3,133,2,9,8,2,1,I,7,L,6,S,11,0.442766,0.778087,0.34451
3,134,8,9,1,2,1,C,1,S,1,S,15,0.463774,0.755621,0.350438
3,135,2,9,2,8,1,C,7,L,6,S,9,0.267997,0.846014,0.226729
3,136,2,1,2,8,0,I,1,S,6,S,13,0.463248,0.76014,0.352133
3,137,9,8,8,2,1,C,1,S,6,S,12,0.761488,0.424695,0.3234
3,138,8,2,8,1,1,C,6,S,7,L,8,0.773177,0.279918,0.216426
3,139,1,2,9,2,0,I,1,S,7,L,12,0.78429,0.416056,0.326308
3,140,1,2,2,8,1,C,1,S,6,S,12,0.392491,0.801226,0.314474
3,141,8,1,8,2,1,C,7,L,6,S,9,0.837413,0.275187,0.230445
3,142,9,8,2,1,1,C,1,S,1,S,14,0.751073,0.458304,0.34422
3,143,9,8,2,9,0,I,1,S,7,L,11,0.393914,0.782616,0.308284
3,144,9,2,2,1,1,C,7,L,1,S,9,0.765225,0.333395,0.255122
4,1,1,2,9,2,0,I,1,S,7,L,14,0.759706,0.516236,0.392188
4,2,1,2,2,9,1,C,1,S,7,L,10,0.367032,0.763714,0.280307
4,3,8,2,1,2,1,I,6,S,1,S,12,0.788512,0.416197,0.328177
4,4,8,9,9,1,1,I,1,S,8,L,21,0.658016,0.752263,0.495001
4,5,2,8,2,8,1,C,6,S,6,S,9,0.276173,0.829692,0.229138
4,6,2,9,9,1,1,I,7,L,8,L,13,0.563554,0.754505,0.425204
4,7,8,2,1,9,1,I,6,S,8,L,16,0.753555,0.61466,0.463181
4,8,9,1,2,8,1,I,8,L,6,S,11,0.7856,0.450503,0.353915
4,9,1,8,8,2,1,I,7,L,6,S,13,0.545373,0.772829,0.42148
4,10,1,8,1,8,1,C,7,L,7,L,9,0.257943,0.857583,0.221207
4,11,9,2,2,8,1,I,7,L,6,S,13,0.775243,0.521798,0.40452
4,12,1,9,9,2,1,I,8,L,7,L,13,0.54533,0.770877,0.420382
4,13,9,2,2,9,1,I,7,L,7,L,13,0.756051,0.546984,0.413548
4,14,9,1,8,1,1,C,8,L,7,L,8,0.815478,0.248221,0.202419
4,15,9,8,1,9,0,I,1,S,8,L,11,0.392719,0.77546,0.304538
4,16,9,2,1,9,1,I,7,L,8,L,14,0.768406,0.570237,0.438173
4,17,8,9,1,8,1,C,1,S,7,L,10,0.347341,0.78818,0.273767
4,18,9,8,9,2,1,C,1,S,7,L,11,0.777409,0.388394,0.301941
4,19,2,9,9,2,1,I,7,L,7,L,13,0.546989,0.767048,0.419567
4,20,2,1,2,8,1,I,1,S,6,S,16,0.764705,0.589072,0.450466
4,21,8,2,2,9,1,I,6,S,7,L,16,0.769453,0.594323,0.457303
4,22,2,9,1,8,1,C,7,L,7,L,9,0.267845,0.846827,0.226819
4,23,9,1,9,1,1,C,8,L,8,L,8,0.809281,0.251302,0.203374
4,24,8,1,9,8,1,C,7,L,1,S,9,0.759401,0.335825,0.255026
4,25,9,8,9,1,1,C,1,S,8,L,11,0.794447,0.376033,0.298739
4,26,9,8,2,1,1,C,1,S,1,S,14,0.785847,0.423131,0.332516
4,27,1,8,8,1,1,I,7,L,7,L,13,0.560787,0.761092,0.42681
4,28,8,1,8,1,1,C,7,L,7,L,8,0.784238,0.270625,0.212235
4,29,8,1,1,2,1,I,7,L,1,S,10,0.79264,0.35812,0.28386
4,30,9,1,1,2,1,I,8,L,1,S,9,0.759783,0.345838,0.262762
4,31,8,9,1,2,1,C,1,S,1,S,12,0.410389,0.764329,0.313672
4,32,9,1,2,9,1,I,8,L,7,L,11,0.767166,0.475567,0.364839
4,33,2,9,8,1,1,I,7,L,7,L,14,0.570831,0.779158,0.444767
4,34,2,9,2,8,1,C,7,L,6,S,9,0.285338,0.821909,0.234522
4,35,1,2,2,1,1,I,1,S,1,S,20,0.601493,0.772187,0.464465
4,36,1,2,9,1,0,I,1,S,8,L,13,0.766522,0.484883,0.371674
4,37,9,2,9,1,1,C,7,L,8,L,9,0.852598,0.262717,0.223992
4,38,2,1,9,1,1,C,1,S,8,L,9,0.782296,0.314223,0.245815
4,39,2,1,8,2,1,C,1,S,6,S,9,0.774877,0.3208,0.248581
4,40,2,8,1,9,1,C,6,S,8,L,8,0.284088,0.76064,0.216089
4,41,9,2,9,2,1,C,7,L,7,L,9,0.837436,0.27347,0.229013
4,42,1,2,8,9,1,C,1,S,1,S,14,0.409324,0.804614,0.329348
4,43,9,2,8,1,1,C,7,L,7,L,8,0.75022,0.295853,0.221955
4,44,8,1,1,9,1,I,7,L,8,L,12,0.75002,0.533883,0.400423
4,45,9,2,8,2,1,C,7,L,6,S,9,0.845178,0.269295,0.227602
4,46,1,2,8,2,0,I,1,S,6,S,13,0.758971,0.491789,0.373253
4,47,9,8,8,2,1,C,1,S,6,S,11,0.786359,0.383162,0.301303
4,48,9,1,9,2,1,C,8,L,7,L,8,0.796214,0.260641,0.207526
4,49,9,8,1,2,0,I,1,S,1,S,19,0.508897,0.761093,0.387318
4,50,1,9,1,8,1,C,8,L,7,L,9,0.267099,0.84982,0.226986
4,51,2,1,8,9,1,I,1,S,1,S,12,0.795283,0.399164,0.317448
4,52,2,9,2,9,1,C,7,L,7,L,9,0.269935,0.842843,0.227513
4,53,8,2,9,8,1,C,6,S,1,S,11,0.805392,0.359592,0.289613
4,54,1,8,1,2,1,C,7,L,1,S,10,0.318525,0.828576,0.263922
4,55,8,9,1,9,1,C,1,S,8,L,10,0.333504,0.807196,0.269203
4,56,9,1,1,8,1,I,8,L,7,L,11,0.764495,0.480251,0.36715
4,57,8,2,2,8,1,I,6,S,6,S,15,0.76138,0.576773,0.439143
4,58,1,9,2,1,1,I,8,L,1,S,11,0.410937,0.790153,0.324703
4,59,2,1,1,2,1,I,1,S,1,S,12,0.765838,0.431492,0.330453
4,60,2,8,1,2,1,C,6,S,1,S,10,0.319545,0.825261,0.263708
4,61,8,9,8,2,1,I,1,S,6,S,21,0.654721,0.756011,0.494976
4,62,8,1,8,9,1,I,7,L,1,S,10,0.809301,0.341229,0.276157
4,63,2,9,9,8,1,I,7,L,1,S,10,0.377746,0.767357,0.289866
4,64,1,2,1,9,1,C,1,S,8,L,10,0.350772,0.787154,0.276111
4,65,8,9,8,9,1,C,1,S,1,S,13,0.410014,0.789707,0.323791
4,66,8,1,8,2,1,C,7,L,6,S,8,0.771591,0.279639,0.215767
4,67,1,8,2,8,1,C,7,L,6,S,9,0.275436,0.832666,0.229346
4,68,1,9,9,8,1,I,8,L,1,S,10,0.376702,0.770714,0.290329
4,69,8,2,9,2,1,C,6,S,7,L,9,0.781901,0.315164,0.246427
4,70,1,2,8,1,0,I,1,S,7,L,12,0.756654,0.466362,0.352875
4,71,9,8,8,1,1,C,1,S,7,L,11,0.802361,0.371495,0.298073
4,72,1,8,9,8,1,I,7,L,1,S,10,0.367165,0.779089,0.286054
4,73,9,8,2,9,0,I,1,S,7,L,11,0.409873,0.751159,0.30788
4,74,9,2,1,8,1,I,7,L,7,L,13,0.753128,0.551761,0.415547
4,75,2,9,1,9,1,C,7,L,8,L,8,0.292498,0.754042,0.220556
4,76,9,1,2,1,1,C,8,L,1,S,9,0.822058,0.28599,0.235101
4,77,1,2,9,8,1,I,1,S,1,S,16,0.509473,0.758295,0.386331
4,78,8,2,2,1,1,C,6,S,1,S,10,0.772029,0.354663,0.27381
4,79,8,2,8,9,1,I,6,S,1,S,11,0.760553,0.404571,0.307697
4,80,1,9,9,1,1,I,8,L,8,L,13,0.561895,0.758334,0.426104
4,81,8,2,9,1,1,C,6,S,8,L,9,0.797063,0.304411,0.242635
4,82,1,2,1,8,1,C,1,S,7,L,10,0.364609,0.768138,0.28007
4,83,2,1,2,9,1,I,1,S,7,L,17,0.772069,0.603067,0.46561
4,84,2,1,9,2,1,C,1,S,7,L,9,0.767134,0.324975,0.2493
4,85,2,8,1,8,1,C,6,S,7,L,9,0.25868,0.85461,0.22107
4,86,1,9,1,2,1,C,8,L,1,S,10,0.328061,0.820201,0.269076
4,87,9,2,2,1,1,C,7,L,1,S,10,0.836602,0.306913,0.256764
4,88,8,1,9,1,1,C,7,L,8,L,8,0.77804,0.273706,0.212955
4,89,2,1,1,9,1,I,1,S,8,L,17,0.756996,0.622098,0.470926
4,90,2,8,2,1,1,I,6,S,1,S,11,0.402608,0.795077,0.320104
4,91,8,9,2,8,1,C,1,S,6,S,10,0.366984,0.760186,0.278976
4,92,8,9,2,1,1,I,1,S,1,S,17,0.579162,0.752232,0.435664
4,93,9,2,8,9,1,I,7,L,1,S,10,0.765916,0.372982,0.285673
4,94,8,9,2,9,1,C,1,S,7,L,10,0.349764,0.783756,0.274129
4,95,8,1,9,2,1,C,7,L,7,L,8,0.764973,0.283045,0.216522
4,96,1,8,9,1,1,I,7,L,8,L,13,0.552924,0.765923,0.423497
4,97,8,2,1,8,1,I,6,S,7,L,16,0.766595,0.598686,0.458949
4,98,2,8,9,2,1,I,6,S,7,L,13,0.537966,0.77471,0.416768
4,99,1,9,8,9,1,C,8,L,1,S,10,0.344722,0.803311,0.276919
4,100,9,8,1,8,0,I,1,S,7,L,11,0.407202,0.755843,0.307781
4,101,2,1,2,1,1,C,1,S,1,S,10,0.753909,0.366687,0.276448
4,102,9,1,1,9,1,I,8,L,8,L,11,0.750012,0.499868,0.374907
4,103,9,8,9,8,1,C,1,S,1,S,16,0.769819,0.447791,0.344718
4,104,1,8,2,1,1,I,7,L,1,S,11,0.401345,0.798626,0.320525
4,105,2,1,8,1,1,C,1,S,7,L,9,0.789371,0.310514,0.245111
4,106,1,8,1,9,1,C,7,L,8,L,8,0.283656,0.763176,0.21648
4,107,8,9,9,8,1,I,1,S,1,S,15,0.475374,0.780176,0.370875
4,108,1,9,8,1,1,I,8,L,7,L,13,0.569758,0.753503,0.429314
4,109,9,8,8,9,1,I,1,S,1,S,28,0.764902,0.62098,0.474988
4,110,2,9,1,2,1,C,7,L,1,S,10,0.329105,0.816843,0.268827
4,111,2,9,8,9,1,C,7,L,1,S,10,0.345766,0.799953,0.276597
4,112,9,1,9,8,1,C,8,L,1,S,9,0.794257,0.310842,0.246888
4,113,8,9,9,2,1,I,1,S,7,L,21,0.648305,0.760351,0.49294
4,114,8,1,2,9,1,I,7,L,7,L,12,0.767572,0.509553,0.391119
4,115,2,8,8,9,1,C,6,S,1,S,10,0.336205,0.808371,0.271779
4,116,1,9,8,2,1,I,8,L,6,S,13,0.554344,0.765239,0.424206
4,117,1,2,2,8,1,C,1,S,6,S,11,0.355485,0.81177,0.288572
4,118,1,8,9,2,1,I,7,L,7,L,13,0.536359,0.778466,0.417537
4,119,8,9,8,1,1,I,1,S,7,L,22,0.647909,0.771229,0.499687
4,120,2,8,2,9,1,C,6,S,7,L,9,0.26077,0.850625,0.221817
4,121,9,2,1,2,1,I,7,L,1,S,11,0.808668,0.376088,0.30413
4,122,9,1,8,2,1,C,8,L,6,S,8,0.802831,0.257234,0.206516
4,123,1,9,2,8,1,C,8,L,6,S,9,0.284591,0.824902,0.23476
4,124,1,8,8,9,1,C,7,L,1,S,10,0.335185,0.811686,0.272065
4,125,1,2,1,2,1,C,1,S,1,S,13,0.405055,0.790714,0.320283
4,126,2,8,9,8,1,I,6,S,1,S,10,0.368185,0.775774,0.285628
4,127,1,9,2,9,1,C,8,L,7,L,9,0.269188,0.845836,0.227689
4,128,2,8,8,2,1,I,6,S,6,S,13,0.54698,0.769072,0.420667
4,129,8,2,8,2,1,C,6,S,6,S,9,0.789643,0.310989,0.24557
4,130,2,8,8,1,1,I,6,S,7,L,13,0.562394,0.757335,0.425921
4,131,8,1,2,1,1,C,7,L,1,S,9,0.787203,0.310974,0.244799
4,132,9,2,9,8,1,C,7,L,1,S,10,0.797895,0.340386,0.271592
4,133,1,8,2,9,1,C,7,L,7,L,9,0.260032,0.853599,0.221964
4,134,9,8,2,8,0,I,1,S,6,S,12,0.416548,0.770636,0.321007
4,135,2,8,9,1,1,I,6,S,8,L,13,0.554531,0.762166,0.422645
4,136,2,1,9,8,1,C,1,S,1,S,11,0.784544,0.373486,0.293017
4,137,9,1,8,9,1,I,8,L,1,S,9,0.771895,0.334073,0.257869
4,138,2,1,1,8,1,I,1,S,7,L,17,0.769299,0.607245,0.467153
4,139,2,9,8,2,1,I,7,L,6,S,13,0.556003,0.761411,0.423346
4,140,8,1,2,8,1,I,7,L,6,S,12,0.786638,0.484026,0.380754
4,141,8,2,8,1,1,C,6,S,7,L,9,0.804137,0.300702,0.241806
4,142,8,1,1,8,1,I,7,L,7,L,12,0.764737,0.514343,0.393337
4,143,1,9,1,9,1,C,8,L,8,L,8,0.29207,0.756576,0.220973
4,144,2,9,2,1,1,I,7,L,1,S,11,0.412236,0.786543,0.324242
5,1,2,1,9,2,1,C,1,S,7,L,10,0.792061,0.347112,0.274934
5,2,2,8,2,9,1,C,6,S,7,L,8,0.288607,0.763512,0.220355
5,3,9,8,1,9,0,I,1,S,8,L,11,0.393212,0.786582,0.309294
5,4,9,8,2,1,1,C,1,S,1,S,12,0.776802,0.411224,0.319439
5,5,1,2,1,8,1,C,1,S,7,L,10,0.327072,0.816289,0.266986
5,6,9,1,1,9,1,I,8,L,8,L,12,0.76989,0.528775,0.407098
5,7,8,1,8,2,1,C,7,L,6,S,8,0.764418,0.282726,0.216121
5,8,1,2,8,1,1,I,1,S,7,L,21,0.642805,0.772495,0.496564
5,9,1,8,1,8,1,C,7,L,7,L,8,0.281128,0.770787,0.21669
5,10,1,2,8,2,1,I,1,S,6,S,20,0.640147,0.764219,0.489212
5,11,1,2,9,8,1,I,1,S,1,S,14,0.49278,0.75486,0.37198
5,12,8,9,2,8,1,C,1,S,6,S,10,0.317491,0.820736,0.260576
5,13,1,9,1,9,1,C,8,L,8,L,8,0.250567,0.812646,0.203622
5,14,9,1,2,1,1,C,8,L,1,S,9,0.853488,0.265275,0.226409
5,15,1,8,9,2,1,I,7,L,7,L,12,0.529808,0.757397,0.401275
5,16,8,1,1,2,1,I,7,L,1,S,10,0.778351,0.372403,0.28986
5,17,2,1,8,2,1,C,1,S,6,S,10,0.786724,0.349552,0.275001
5,18,2,8,1,9,1,C,6,S,8,L,8,0.267315,0.79088,0.211414
5,19,1,8,9,8,1,I,7,L,1,S,10,0.367771,0.788596,0.290023
5,20,8,9,2,1,1,I,1,S,1,S,15,0.57305,0.750469,0.430057
5,21,9,8,8,9,1,I,1,S,1,S,27,0.765064,0.634832,0.485687
5,22,8,1,1,9,1,I,7,L,8,L,13,0.770085,0.553453,0.426206
5,23,8,9,2,9,1,C,1,S,7,L,9,0.332763,0.756529,0.251745
5,24,8,9,8,9,1,C,1,S,1,S,11,0.373575,0.78225,0.292229
5,25,1,8,9,1,1,I,7,L,8,L,13,0.560044,0.769248,0.430813
5,26,9,8,2,8,0,I,1,S,6,S,12,0.432979,0.763413,0.330542
5,27,9,2,9,2,1,C,7,L,7,L,9,0.850871,0.267089,0.227258
5,28,2,1,1,8,1,I,1,S,7,L,22,0.76691,0.64617,0.495554
5,29,8,9,9,2,1,I,1,S,7,L,17,0.626543,0.750713,0.470354
5,30,2,9,8,2,1,I,7,L,6,S,11,0.492685,0.75561,0.372278
5,31,2,1,8,9,1,I,1,S,1,S,16,0.777323,0.506437,0.393665
5,32,8,2,1,8,1,I,6,S,7,L,15,0.759348,0.59429,0.451273
5,33,1,8,1,2,1,C,7,L,1,S,9,0.328848,0.769803,0.253148
5,34,1,9,2,1,1,I,8,L,1,S,10,0.42414,0.754794,0.320138
5,35,1,9,9,2,1,I,8,L,7,L,12,0.506858,0.786662,0.398726
5,36,9,1,9,1,1,C,8,L,8,L,8,0.817974,0.248486,0.203255
5,37,8,1,2,8,1,I,7,L,6,S,11,0.750061,0.478376,0.358811
5,38,2,9,9,2,1,I,7,L,7,L,11,0.498323,0.752853,0.375164
5,39,2,8,2,8,1,C,6,S,6,S,9,0.268724,0.849556,0.228296
5,40,1,8,2,9,1,C,7,L,7,L,8,0.290538,0.760591,0.220981
5,41,8,1,9,1,1,C,7,L,8,L,8,0.791533,0.264899,0.209676
5,42,2,9,1,8,1,C,7,L,7,L,8,0.260803,0.798038,0.208131
5,43,2,1,1,2,1,I,1,S,1,S,17,0.774266,0.54194,0.419606
5,44,8,9,9,1,1,I,1,S,8,L,18,0.636762,0.757859,0.482576
5,45,1,9,8,1,1,I,8,L,7,L,12,0.530058,0.768175,0.407177
5,46,9,8,9,8,1,C,1,S,1,S,15,0.790136,0.432347,0.341613
5,47,9,1,9,2,1,C,8,L,7,L,8,0.795008,0.264756,0.210483
5,48,9,8,1,2,0,I,1,S,1,S,19,0.540253,0.754195,0.407456
5,49,2,8,9,8,1,I,6,S,1,S,10,0.365341,0.792188,0.289419
5,50,1,2,2,9,1,C,1,S,7,L,10,0.338328,0.803368,0.271802
5,51,8,1,1,8,1,I,7,L,7,L,12,0.753038,0.529679,0.398868
5,52,2,1,2,1,1,C,1,S,1,S,11,0.799523,0.364439,0.291378
5,53,2,8,1,2,1,C,6,S,1,S,9,0.326625,0.773143,0.252528
5,54,8,2,1,9,1,I,6,S,8,L,16,0.770901,0.606197,0.467318
5,55,2,1,8,1,1,C,1,S,7,L,10,0.815231,0.32925,0.268415
5,56,8,2,1,2,1,I,6,S,1,S,11,0.751125,0.423763,0.318299
5,57,9,8,9,1,1,C,1,S,8,L,10,0.764864,0.377223,0.288524
5,58,8,1,8,9,1,I,7,L,1,S,10,0.789561,0.361096,0.285108
5,59,9,8,2,9,0,I,1,S,7,L,11,0.420034,0.752008,0.315869
5,60,1,2,1,9,1,C,1,S,8,L,9,0.342743,0.752546,0.25793
5,61,8,1,9,2,1,C,7,L,7,L,8,0.768568,0.281169,0.216098
5,62,8,9,1,9,1,C,1,S,8,L,9,0.308736,0.787931,0.243262
5,63,8,1,2,9,1,I,7,L,7,L,12,0.764634,0.516584,0.394998
5,64,9,8,1,8,0,I,1,S,7,L,11,0.408443,0.765279,0.312573
5,65,9,2,1,2,1,I,7,L,1,S,11,0.801943,0.389048,0.311994
5,66,8,2,2,1,1,C,6,S,1,S,9,0.751897,0.336756,0.253206
5,67,1,8,2,1,1,I,7,L,1,S,11,0.451772,0.771934,0.348738
5,68,9,1,9,8,1,C,8,L,1,S,9,0.794003,0.314736,0.249901
5,69,1,9,1,8,1,C,8,L,7,L,8,0.262449,0.795474,0.208771
5,70,1,2,1,2,1,C,1,S,1,S,12,0.373331,0.810893,0.302731
5,71,1,2,2,8,1,C,1,S,6,S,10,0.359342,0.774028,0.278141
5,72,9,2,9,1,1,C,7,L,8,L,8,0.765336,0.286984,0.219639
5,73,1,8,8,9,1,C,7,L,1,S,9,0.337261,0.761893,0.256957
5,74,2,9,2,1,1,I,7,L,1,S,10,0.422147,0.757783,0.319896
5,75,9,1,8,1,1,C,8,L,7,L,8,0.814188,0.249809,0.203391
5,76,2,1,2,9,1,I,1,S,7,L,22,0.772534,0.641323,0.495444
5,77,1,9,8,2,1,I,8,L,6,S,11,0.494755,0.752585,0.372345
5,78,9,2,2,9,1,I,7,L,7,L,13,0.763831,0.548226,0.418752
5,79,8,2,2,8,1,I,6,S,6,S,14,0.765533,0.55529,0.425092
5,80,9,1,2,8,1,I,8,L,6,S,11,0.782553,0.456799,0.35747
5,81,1,8,8,1,1,I,7,L,7,L,13,0.555284,0.771706,0.428516
5,82,9,2,9,8,1,C,7,L,1,S,10,0.815726,0.330887,0.269914
5,83,2,8,8,2,1,I,6,S,6,S,12,0.52143,0.764055,0.398401
5,84,1,9,2,8,1,C,8,L,6,S,8,0.287465,0.763965,0.219613
5,85,2,8,9,1,1,I,6,S,8,L,13,0.557447,0.772829,0.430811
5,86,2,9,9,8,1,I,7,L,1,S,9,0.356853,0.752243,0.26844
5,87,8,2,8,2,1,C,6,S,6,S,9,0.804855,0.296775,0.238861
5,88,1,8,1,9,1,C,7,L,8,L,8,0.269246,0.787959,0.212155
5,89,9,2,2,1,1,C,7,L,1,S,9,0.793073,0.309104,0.245142
5,90,1,8,2,8,1,C,7,L,6,S,9,0.270946,0.846215,0.229279
5,91,1,2,8,9,1,C,1,S,1,S,12,0.391453,0.790339,0.30938
5,92,8,9,9,8,1,I,1,S,1,S,13,0.438854,0.791723,0.347451
5,93,8,9,1,2,1,C,1,S,1,S,11,0.359075,0.797811,0.286474
5,94,2,9,8,9,1,C,7,L,1,S,9,0.314565,0.792502,0.249294
5,95,2,8,8,1,1,I,6,S,7,L,13,0.552686,0.775286,0.42849
5,96,1,9,9,8,1,I,8,L,1,S,10,0.345547,0.817988,0.282653
5,97,9,1,1,2,1,I,8,L,1,S,10,0.810118,0.351862,0.28505
5,98,1,9,8,9,1,C,8,L,1,S,9,0.316419,0.789659,0.249863
5,99,8,2,9,2,1,C,6,S,7,L,9,0.809694,0.294741,0.23865
5,100,1,9,2,9,1,C,8,L,7,L,8,0.271859,0.785278,0.213485
5,101,2,9,2,9,1,C,7,L,7,L,8,0.270213,0.787842,0.212885
5,102,8,2,2,9,1,I,6,S,7,L,15,0.769654,0.583444,0.44905
5,103,2,9,9,1,1,I,7,L,8,L,12,0.532742,0.7688,0.409572
5,104,2,1,9,8,1,C,1,S,1,S,12,0.761691,0.413596,0.315033
5,105,9,2,8,1,1,C,7,L,7,L,8,0.761551,0.288307,0.21956
5,106,8,2,8,9,1,I,6,S,1,S,11,0.765625,0.408203,0.31253
5,107,2,9,1,2,1,C,7,L,1,S,9,0.306152,0.800412,0.245048
5,108,1,9,9,1,1,I,8,L,8,L,12,0.534835,0.765817,0.409586
5,109,9,1,8,9,1,I,8,L,1,S,9,0.751715,0.354996,0.266856
5,110,2,1,2,8,1,I,1,S,6,S,21,0.765431,0.638068,0.488397
5,111,1,2,9,1,1,I,1,S,8,L,21,0.646787,0.770234,0.498177
5,112,9,2,8,2,1,C,7,L,6,S,9,0.846031,0.269124,0.227687
5,113,1,9,1,2,1,C,8,L,1,S,9,0.308006,0.797569,0.245656
5,114,1,8,8,2,1,I,7,L,6,S,12,0.524035,0.760379,0.398465
5,115,2,8,9,2,1,I,6,S,7,L,12,0.527203,0.761073,0.40124
5,116,2,9,2,8,1,C,7,L,6,S,8,0.285819,0.766529,0.219088
5,117,2,9,1,9,1,C,7,L,8,L,8,0.248921,0.815211,0.202923
5,118,8,9,8,2,1,I,1,S,6,S,17,0.621284,0.753842,0.46835
5,119,2,1,1,9,0,I,1,S,8,L,13,0.503576,0.755882,0.380644
5,120,8,9,1,8,1,C,1,S,7,L,9,0.322229,0.768438,0.247613
5,121,1,2,2,1,1,I,1,S,1,S,18,0.617138,0.756363,0.466781
5,122,8,1,8,1,1,C,7,L,7,L,8,0.787747,0.266222,0.209715
5,123,2,8,2,1,1,I,6,S,1,S,11,0.449218,0.775626,0.348425
5,124,9,2,8,9,1,I,7,L,1,S,10,0.756269,0.388062,0.293479
5,125,8,9,8,1,1,I,1,S,7,L,18,0.632486,0.760289,0.480872
5,126,9,1,1,8,1,I,8,L,7,L,12,0.785332,0.507657,0.39868
5,127,9,1,8,2,1,C,8,L,6,S,8,0.790859,0.266313,0.210616
5,128,8,1,2,1,1,C,7,L,1,S,9,0.823672,0.284104,0.234008
5,129,2,1,9,1,1,C,1,S,8,L,10,0.819787,0.327274,0.268295
5,130,8,2,9,1,1,C,6,S,8,L,9,0.835704,0.276341,0.230939
5,131,8,1,9,8,1,C,7,L,1,S,9,0.764187,0.333564,0.254905
5,132,9,2,2,8,1,I,7,L,6,S,12,0.754048,0.512807,0.386681
5,133,8,2,8,1,1,C,6,S,7,L,9,0.831451,0.278023,0.231162
5,134,1,2,9,2,1,I,1,S,7,L,20,0.644911,0.761352,0.491004
5,135,9,2,1,9,1,I,7,L,8,L,14,0.767238,0.580064,0.445048
5,136,9,8,9,2,1,C,1,S,7,L,11,0.795265,0.379574,0.301862
5,137,9,8,8,1,1,C,1,S,7,L,10,0.760308,0.379199,0.288308
5,138,9,2,1,8,1,I,7,L,7,L,13,0.752492,0.560771,0.421976
5,139,2,8,8,9,1,C,6,S,1,S,9,0.335038,0.765233,0.256382
5,140,9,8,8,2,1,C,1,S,6,S,11,0.789627,0.38233,0.301898
5,141,9,1,2,9,1,I,8,L,7,L,11,0.759921,0.488122,0.370934
5,142,8,2,9,8,1,C,6,S,1,S,10,0.768628,0.36264,0.278735
5,143,2,9,8,1,1,I,7,L,7,L,12,0.527965,0.771158,0.407145
5,144,2,8,1,8,1,C,6,S,7,L,8,0.279197,0.773708,0.216017
6,1,9,1,8,2,1,C,8,L,6,S,9,0.814013,0.293273,0.238728
6,2,1,9,9,8,1,I,8,L,1,S,9,0.342783,0.75841,0.25997
6,3,2,8,1,9,1,C,6,S,8,L,9,0.310407,0.788554,0.244773
6,4,8,1,2,8,1,I,7,L,6,S,13,0.771511,0.522735,0.403295
6,5,9,2,8,2,1,C,7,L,6,S,9,0.794272,0.30519,0.242404
6,6,2,8,2,8,1,C,6,S,6,S,10,0.303783,0.841156,0.255529
6,7,8,1,8,2,1,C,7,L,6,S,9,0.794925,0.305612,0.242938
6,8,8,9,2,9,1,C,1,S,7,L,11,0.396155,0.761365,0.301618
6,9,9,1,2,9,1,I,8,L,7,L,12,0.751831,0.511939,0.384891
6,10,9,2,1,9,1,I,7,L,8,L,14,0.762145,0.573997,0.437469
6,11,9,8,8,1,1,C,1,S,7,L,10,0.806619,0.334902,0.270139
6,12,1,9,1,9,1,C,8,L,8,L,8,0.286301,0.76399,0.218731
6,13,2,9,2,9,1,C,7,L,7,L,9,0.308409,0.786113,0.242445
6,14,1,8,9,1,1,I,7,L,8,L,13,0.560099,0.755654,0.423241
6,15,1,2,9,8,1,I,1,S,1,S,11,0.397196,0.760114,0.301914
6,16,8,1,1,9,1,I,7,L,8,L,14,0.763271,0.573914,0.438052
6,17,9,8,1,2,1,I,1,S,1,S,15,0.75349,0.515792,0.388644
6,18,2,9,1,8,1,C,7,L,7,L,9,0.292246,0.815892,0.238441
6,19,9,8,9,1,1,C,1,S,8,L,10,0.804884,0.337193,0.271402
6,20,9,1,1,2,1,I,8,L,1,S,10,0.751637,0.395872,0.297552
6,21,9,8,9,2,1,C,1,S,7,L,10,0.756661,0.371667,0.281226
6,22,9,8,9,8,1,C,1,S,1,S,15,0.775193,0.490538,0.380262
6,23,1,2,1,2,1,C,1,S,1,S,11,0.38593,0.770316,0.297288
6,24,8,1,9,2,1,C,7,L,7,L,9,0.792035,0.30895,0.244699
6,25,1,9,2,8,1,C,8,L,6,S,9,0.277742,0.834402,0.231749
6,26,2,1,2,8,0,I,1,S,6,S,14,0.488815,0.763084,0.373007
6,27,9,2,9,2,1,C,7,L,7,L,9,0.791383,0.308528,0.244164
6,28,2,8,9,8,1,I,6,S,1,S,11,0.355776,0.815744,0.290222
6,29,8,2,8,1,1,C,6,S,7,L,9,0.815651,0.288906,0.235647
6,30,1,8,8,9,1,C,7,L,1,S,10,0.322176,0.822505,0.264991
6,31,2,9,1,2,1,C,7,L,1,S,10,0.349045,0.786878,0.274656
6,32,2,1,1,8,0,I,1,S,7,L,12,0.446756,0.764167,0.341396
6,33,1,8,1,8,1,C,7,L,7,L,9,0.271244,0.846829,0.229697
6,34,2,8,1,8,1,C,6,S,7,L,9,0.316412,0.783615,0.247945
6,35,8,1,8,9,1,I,7,L,1,S,11,0.783549,0.400137,0.313527
6,36,8,2,8,2,1,C,6,S,6,S,9,0.77383,0.318617,0.246556
6,37,1,8,8,1,1,I,7,L,7,L,13,0.561513,0.75362,0.423167
6,38,2,8,2,9,1,C,6,S,7,L,9,0.332575,0.753837,0.250708
6,39,9,2,2,8,1,I,7,L,6,S,13,0.770457,0.522722,0.402735
6,40,9,2,9,1,1,C,7,L,8,L,9,0.834433,0.277732,0.231749
6,41,1,2,8,9,1,C,1,S,1,S,11,0.382434,0.771539,0.295063
6,42,1,2,8,1,1,I,1,S,7,L,18,0.639203,0.750363,0.479635
6,43,1,9,8,2,1,I,8,L,6,S,12,0.487971,0.784607,0.382866
6,44,8,1,1,2,1,I,7,L,1,S,11,0.787045,0.398914,0.313963
6,45,8,1,2,1,1,C,7,L,1,S,9,0.773464,0.32029,0.247733
6,46,8,2,9,8,1,C,6,S,1,S,11,0.771619,0.405761,0.313093
6,47,2,8,2,1,1,I,6,S,1,S,14,0.544551,0.7605,0.414131
6,48,2,8,9,2,1,I,6,S,7,L,15,0.570238,0.770115,0.439149
6,49,1,2,2,1,1,I,1,S,1,S,16,0.590102,0.751749,0.443609
6,50,2,8,8,1,1,I,6,S,7,L,16,0.611876,0.758334,0.464006
6,51,2,1,9,1,1,C,1,S,8,L,10,0.760998,0.375641,0.285862
6,52,9,1,1,8,1,I,8,L,7,L,13,0.762291,0.552892,0.421465
6,53,9,8,1,8,1,I,1,S,7,L,21,0.764247,0.646821,0.494331
6,54,8,9,9,2,0,I,1,S,7,L,13,0.774962,0.446436,0.345971
6,55,1,9,9,2,1,I,8,L,7,L,12,0.484328,0.788422,0.381855
6,56,9,8,1,9,1,I,1,S,8,L,21,0.761818,0.647464,0.493249
6,57,9,1,2,1,1,C,8,L,1,S,9,0.792552,0.307952,0.244067
6,58,1,9,1,2,1,C,8,L,1,S,9,0.336026,0.763191,0.256452
6,59,8,9,8,2,0,I,1,S,6,S,13,0.778491,0.442693,0.344632
6,60,9,1,9,8,1,C,8,L,1,S,10,0.760453,0.38871,0.295596
6,61,8,2,8,9,1,I,6,S,1,S,11,0.756858,0.417186,0.31575
6,62,1,2,9,1,1,I,1,S,8,L,18,0.638809,0.751552,0.480098
6,63,9,2,1,2,1,I,7,L,1,S,11,0.786174,0.398689,0.313439
6,64,2,1,2,1,1,C,1,S,1,S,11,0.751394,0.403456,0.303154
6,65,9,2,2,9,1,I,7,L,7,L,13,0.761355,0.531629,0.404758
6,66,9,1,8,1,1,C,8,L,7,L,9,0.855834,0.263562,0.225565
6,67,9,2,9,8,1,C,7,L,1,S,11,0.79744,0.388487,0.309795
6,68,2,9,9,2,1,I,7,L,7,L,13,0.536186,0.756248,0.405489
6,69,2,9,9,1,1,I,7,L,8,L,15,0.584245,0.775352,0.452996
6,70,1,9,2,9,1,C,8,L,7,L,9,0.269825,0.841497,0.227057
6,71,2,1,9,8,1,C,1,S,1,S,20,0.759316,0.586818,0.445581
6,72,8,1,1,8,1,I,7,L,7,L,14,0.7687,0.569674,0.437909
6,73,9,8,8,2,1,C,1,S,6,S,10,0.76001,0.368039,0.279713
6,74,2,9,9,8,1,I,7,L,1,S,10,0.357861,0.779716,0.27903
6,75,1,9,1,8,1,C,8,L,7,L,8,0.291844,0.759777,0.221736
6,76,2,1,1,2,1,I,1,S,1,S,21,0.759876,0.605627,0.460202
6,77,1,2,2,8,1,C,1,S,6,S,10,0.33974,0.793711,0.269656
6,78,9,1,1,9,1,I,8,L,8,L,13,0.75649,0.557629,0.421841
6,79,8,2,9,1,1,C,6,S,8,L,9,0.81399,0.29116,0.237001
6,80,8,9,1,2,1,C,1,S,1,S,14,0.429618,0.77623,0.333482
6,81,8,9,2,8,1,C,1,S,6,S,11,0.405252,0.752411,0.304916
6,82,9,8,2,9,1,I,1,S,7,L,20,0.76019,0.633438,0.481534
6,83,1,9,8,9,1,C,8,L,1,S,9,0.333416,0.763413,0.254534
6,84,8,1,9,8,1,C,7,L,1,S,11,0.798311,0.388712,0.310313
6,85,1,9,9,1,1,I,8,L,8,L,12,0.536271,0.750229,0.402326
6,86,2,8,8,2,1,I,6,S,6,S,15,0.573236,0.766734,0.439519
6,87,9,1,9,1,1,C,8,L,8,L,9,0.854173,0.265815,0.227052
6,88,9,2,1,8,1,I,7,L,7,L,14,0.767575,0.569758,0.437332
6,89,2,9,2,8,1,C,7,L,6,S,9,0.316327,0.779019,0.246424
6,90,1,8,2,8,1,C,7,L,6,S,9,0.295324,0.809956,0.2392
6,91,8,2,9,2,1,C,6,S,7,L,9,0.77094,0.321956,0.248209
6,92,8,2,1,8,1,I,6,S,7,L,15,0.768424,0.586368,0.45058
6,93,1,8,1,2,1,C,7,L,1,S,10,0.325222,0.821826,0.267276
6,94,8,9,1,8,1,C,1,S,7,L,11,0.374932,0.79765,0.299065
6,95,2,1,1,9,0,I,1,S,8,L,12,0.440671,0.769296,0.339006
6,96,8,1,9,1,1,C,7,L,8,L,9,0.835085,0.278154,0.232282
6,97,1,8,1,9,1,C,7,L,8,L,9,0.265239,0.851768,0.225922
6,98,9,8,2,8,1,I,1,S,6,S,20,0.765361,0.629834,0.482051
6,99,1,8,2,1,1,I,7,L,1,S,12,0.478664,0.777724,0.372268
6,100,2,1,2,9,0,I,1,S,7,L,13,0.472658,0.753002,0.355912
6,101,9,2,8,1,1,C,7,L,7,L,9,0.836094,0.275478,0.230326
6,102,2,9,1,9,1,C,7,L,8,L,9,0.286241,0.820831,0.234955
6,103,1,2,8,2,1,I,1,S,6,S,17,0.610964,0.756633,0.462276
6,104,1,8,9,2,1,I,7,L,7,L,12,0.505036,0.760705,0.384184
6,105,8,9,9,1,0,I,1,S,8,L,11,0.755146,0.419012,0.316415
6,106,1,8,2,9,1,C,7,L,7,L,9,0.287407,0.817051,0.234826
6,107,8,2,2,1,1,C,6,S,1,S,9,0.752369,0.333296,0.250761
6,108,9,2,8,9,1,I,7,L,1,S,11,0.782678,0.399912,0.313003
6,109,2,9,8,2,1,I,7,L,6,S,13,0.539714,0.752505,0.406138
6,110,2,9,8,1,1,I,7,L,7,L,15,0.58525,0.773645,0.452776
6,111,2,1,8,2,1,C,1,S,6,S,11,0.779763,0.384039,0.299459
6,112,8,9,8,9,1,C,1,S,1,S,14,0.425118,0.779021,0.331176
6,113,8,2,2,8,1,I,6,S,6,S,14,0.773662,0.543321,0.420347
6,114,8,2,2,9,1,I,6,S,7,L,14,0.764887,0.55171,0.421995
6,115,2,1,9,2,1,C,1,S,7,L,11,0.776165,0.387823,0.301014
6,116,2,8,9,1,1,I,6,S,8,L,16,0.611082,0.759866,0.46434
6,117,8,2,1,2,1,I,6,S,1,S,11,0.760354,0.415963,0.316279
6,118,2,1,8,1,1,C,1,S,7,L,10,0.762733,0.37335,0.284766
6,119,2,8,8,9,1,C,6,S,1,S,11,0.341014,0.827169,0.282076
6,120,8,1,2,9,1,I,7,L,7,L,13,0.762408,0.531642,0.405328
6,121,9,1,2,8,1,I,8,L,6,S,12,0.761059,0.502805,0.382664
6,122,8,9,9,8,1,I,1,S,1,S,14,0.449132,0.754331,0.338794
6,123,8,9,1,9,1,C,1,S,8,L,11,0.36869,0.802996,0.296056
6,124,9,8,8,9,1,I,1,S,1,S,16,0.778035,0.516463,0.401826
6,125,1,9,8,1,1,I,8,L,7,L,13,0.540886,0.780635,0.422234
6,126,1,2,1,8,1,C,1,S,7,L,10,0.312041,0.835737,0.260784
6,127,1,2,9,2,1,I,1,S,7,L,17,0.608656,0.759501,0.462275
6,128,2,8,1,2,1,C,6,S,1,S,11,0.34451,0.825946,0.284547
6,129,1,8,8,2,1,I,7,L,6,S,12,0.50868,0.75689,0.385015
6,130,1,2,1,9,1,C,1,S,8,L,9,0.339973,0.750727,0.255227
6,131,8,2,1,9,1,I,6,S,8,L,15,0.763419,0.590057,0.450461
6,132,1,9,2,1,1,I,8,L,1,S,11,0.453674,0.765615,0.347339
6,133,9,1,9,2,1,C,8,L,7,L,9,0.811123,0.296612,0.240588
6,134,8,1,8,1,1,C,7,L,7,L,9,0.836746,0.2759,0.230859
6,135,2,9,8,9,1,C,7,L,1,S,10,0.345998,0.787558,0.272494
6,136,1,2,2,9,1,C,1,S,7,L,10,0.331075,0.801988,0.265518
6,137,9,2,2,1,1,C,7,L,1,S,9,0.772811,0.319868,0.247198
6,138,8,9,2,1,0,I,1,S,1,S,14,0.773654,0.462685,0.357958
6,139,9,8,2,1,1,C,1,S,1,S,11,0.810987,0.35297,0.286254
6,140,2,1,8,9,1,I,1,S,1,S,21,0.756926,0.606874,0.459358
6,141,9,1,8,9,1,I,8,L,1,S,11,0.806552,0.384804,0.310365
6,142,2,9,2,1,1,I,7,L,1,S,13,0.509189,0.774111,0.394168
6,143,1,8,9,8,1,I,7,L,1,S,10,0.334038,0.814663,0.272129
6,144,8,9,8,1,0,I,1,S,7,L,11,0.756844,0.416757,0.31542
7,1,9,1,1,2,1,I,8,L,1,S,10,0.784465,0.36839,0.288989
7,2,1,2,8,1,0,I,1,S,7,L,12,0.77078,0.449573,0.346522
7,3,9,2,2,8,1,I,7,L,6,S,12,0.759931,0.509083,0.386868
7,4,9,1,2,8,1,I,8,L,6,S,12,0.786377,0.487335,0.383229
7,5,8,2,8,9,1,I,6,S,1,S,11,0.781381,0.38877,0.303777
7,6,8,9,8,9,1,C,1,S,1,S,11,0.378068,0.79384,0.300125
7,7,9,2,9,8,1,C,7,L,1,S,10,0.798392,0.345949,0.276203
7,8,1,9,9,2,1,I,8,L,7,L,11,0.457531,0.776664,0.355348
7,9,8,1,9,8,1,C,7,L,1,S,10,0.761323,0.372413,0.283526
7,10,9,8,2,9,0,I,1,S,7,L,12,0.449377,0.750206,0.337125
7,11,2,8,1,2,1,C,6,S,1,S,10,0.32547,0.814811,0.265197
7,12,1,9,8,2,1,I,8,L,6,S,11,0.462951,0.773727,0.358198
7,13,8,2,1,9,1,I,6,S,8,L,15,0.75711,0.590686,0.447214
7,14,9,2,8,1,1,C,7,L,7,L,8,0.771196,0.280874,0.216609
7,15,8,9,9,2,1,I,1,S,7,L,14,0.560228,0.757403,0.424319
7,16,2,9,8,2,1,I,7,L,6,S,12,0.491478,0.778369,0.382551
7,17,9,2,1,9,1,I,7,L,8,L,12,0.750701,0.522253,0.392056
7,18,2,8,9,8,1,I,6,S,1,S,10,0.365628,0.771378,0.282038
7,19,2,8,9,2,1,I,6,S,7,L,13,0.516801,0.779384,0.402787
7,20,9,8,8,2,1,C,1,S,6,S,11,0.772526,0.390333,0.301543
7,21,1,8,2,8,1,C,7,L,6,S,9,0.267013,0.848067,0.226445
7,22,1,9,1,2,1,C,8,L,1,S,9,0.31283,0.792115,0.247797
7,23,1,2,1,8,1,C,1,S,7,L,11,0.352344,0.817316,0.287976
7,24,1,8,9,1,1,I,7,L,8,L,13,0.555265,0.769934,0.427517
7,25,2,9,1,8,1,C,7,L,7,L,9,0.262455,0.850494,0.223216
7,26,2,9,1,2,1,C,7,L,1,S,9,0.33204,0.761733,0.252926
7,27,1,9,1,8,1,C,8,L,7,L,8,0.281887,0.768813,0.216718
7,28,1,2,2,1,1,I,1,S,1,S,22,0.632969,0.764506,0.483909
7,29,8,9,9,1,1,I,1,S,8,L,16,0.613495,0.764029,0.468728
7,30,8,1,9,2,1,C,7,L,7,L,9,0.790265,0.307331,0.242873
7,31,1,8,8,9,1,C,7,L,1,S,10,0.338308,0.813825,0.275323
7,32,8,1,2,1,1,C,7,L,1,S,9,0.759097,0.330607,0.250963
7,33,8,9,8,1,1,I,1,S,7,L,16,0.616891,0.762054,0.470104
7,34,2,1,8,2,1,C,1,S,6,S,10,0.776844,0.349019,0.271133
7,35,8,1,2,9,1,I,7,L,7,L,13,0.750306,0.547457,0.41076
7,36,2,9,2,8,1,C,7,L,6,S,9,0.267059,0.84391,0.225373
7,37,1,9,1,9,1,C,8,L,8,L,8,0.279729,0.772245,0.216019
7,38,9,1,2,9,1,I,8,L,7,L,12,0.782756,0.492709,0.385671
7,39,1,8,1,2,1,C,7,L,1,S,9,0.331994,0.76589,0.254271
7,40,2,9,9,1,1,I,7,L,8,L,13,0.556827,0.764455,0.425669
7,41,9,1,8,1,1,C,8,L,7,L,8,0.792471,0.263367,0.208711
7,42,8,2,2,8,1,I,6,S,6,S,15,0.766174,0.578584,0.443296
7,43,8,1,1,2,1,I,7,L,1,S,11,0.775674,0.408018,0.316489
7,44,2,1,1,2,1,I,1,S,1,S,15,0.769414,0.506294,0.38955
7,45,1,9,8,1,1,I,8,L,7,L,12,0.53479,0.763413,0.408266
7,46,2,1,2,8,1,I,1,S,6,S,19,0.756875,0.62743,0.474887
7,47,2,1,2,9,1,I,1,S,7,L,19,0.75387,0.63138,0.475978
7,48,1,9,9,8,1,I,8,L,1,S,9,0.341781,0.761431,0.260243
7,49,9,1,1,9,1,I,8,L,8,L,12,0.777147,0.500505,0.388966
7,50,9,8,8,1,1,C,1,S,7,L,10,0.772988,0.367175,0.283822
7,51,1,9,9,1,1,I,8,L,8,L,12,0.531131,0.765312,0.406481
7,52,9,8,8,9,1,I,1,S,1,S,17,0.789898,0.45325,0.358021
7,53,2,8,2,8,1,C,6,S,6,S,9,0.289804,0.812951,0.235597
7,54,9,2,2,1,1,C,7,L,1,S,9,0.792347,0.306865,0.243143
7,55,8,1,8,1,1,C,7,L,7,L,9,0.850997,0.265371,0.22583
7,56,9,1,8,2,1,C,8,L,6,S,9,0.852137,0.26193,0.2232
7,57,1,2,1,9,1,C,1,S,8,L,10,0.37715,0.751675,0.283494
7,58,8,9,1,2,1,C,1,S,1,S,10,0.362603,0.767407,0.278264
7,59,9,8,1,8,0,I,1,S,7,L,12,0.447149,0.752972,0.33669
7,60,2,9,9,2,1,I,7,L,7,L,12,0.485751,0.781608,0.379666
7,61,8,1,1,8,1,I,7,L,7,L,14,0.777958,0.550951,0.428617
7,62,2,1,1,9,1,I,1,S,8,L,20,0.771871,0.624651,0.48215
7,63,2,1,9,1,1,C,1,S,8,L,10,0.835824,0.30635,0.256055
7,64,8,1,9,1,1,C,7,L,8,L,9,0.847759,0.266752,0.226141
7,65,2,8,8,2,1,I,6,S,6,S,13,0.52265,0.775947,0.405548
7,66,8,2,9,8,1,C,6,S,1,S,11,0.784208,0.384009,0.301143
7,67,8,9,1,8,1,C,1,S,7,L,9,0.318005,0.778607,0.247601
7,68,2,9,8,1,1,I,7,L,7,L,13,0.560465,0.762487,0.427347
7,69,9,1,1,8,1,I,8,L,7,L,12,0.780528,0.495474,0.386731
7,70,2,9,8,9,1,C,7,L,1,S,10,0.338792,0.809176,0.274142
7,71,1,9,8,9,1,C,8,L,1,S,9,0.340775,0.764236,0.260433
7,72,2,9,9,8,1,I,7,L,1,S,10,0.340567,0.80553,0.274337
7,73,1,2,9,2,1,I,1,S,7,L,23,0.64423,0.764714,0.492652
7,74,1,2,9,8,1,I,1,S,1,S,15,0.434203,0.790298,0.34315
7,75,8,1,1,9,1,I,7,L,8,L,14,0.774532,0.555807,0.43049
7,76,2,9,2,9,1,C,7,L,7,L,9,0.264318,0.848195,0.224193
7,77,9,8,2,8,0,I,1,S,6,S,13,0.453389,0.773155,0.35054
7,78,8,9,9,8,1,I,1,S,1,S,11,0.380895,0.789079,0.300557
7,79,8,2,1,8,1,I,6,S,7,L,15,0.760464,0.586032,0.445656
7,80,8,2,2,1,1,C,6,S,1,S,10,0.81251,0.326546,0.265322
7,81,9,1,9,1,1,C,8,L,8,L,8,0.78961,0.264466,0.208825
7,82,1,2,8,2,1,I,1,S,6,S,23,0.648223,0.762084,0.494
7,83,9,2,9,2,1,C,7,L,7,L,9,0.823515,0.283589,0.23354
7,84,1,8,8,1,1,I,7,L,7,L,13,0.558903,0.767966,0.429219
7,85,1,9,2,1,1,I,8,L,1,S,10,0.412433,0.759102,0.313079
7,86,9,8,9,1,1,C,1,S,8,L,10,0.769503,0.368786,0.283782
7,87,1,8,1,9,1,C,7,L,8,L,9,0.259798,0.858775,0.223108
7,88,8,9,1,9,1,C,1,S,8,L,9,0.315395,0.78273,0.246869
7,89,1,8,1,8,1,C,7,L,7,L,9,0.262409,0.854652,0.224268
7,90,9,2,2,9,1,I,7,L,7,L,12,0.756309,0.514457,0.389089
7,91,1,8,8,2,1,I,7,L,6,S,12,0.490223,0.783663,0.38417
7,92,2,8,2,9,1,C,6,S,7,L,9,0.287064,0.817237,0.234599
7,93,2,1,2,1,1,C,1,S,1,S,11,0.813075,0.345001,0.280512
7,94,2,1,9,8,1,C,1,S,1,S,13,0.797644,0.401931,0.320598
7,95,8,9,2,9,1,C,1,S,7,L,9,0.319868,0.776308,0.248316
7,96,9,1,2,1,1,C,8,L,1,S,9,0.816776,0.287247,0.234616
7,97,1,9,2,9,1,C,8,L,7,L,8,0.283489,0.766916,0.217412
7,98,9,2,9,1,1,C,7,L,8,L,8,0.768336,0.281972,0.216649
7,99,8,2,9,2,1,C,6,S,7,L,9,0.754546,0.336512,0.253913
7,100,9,1,9,2,1,C,8,L,7,L,9,0.847944,0.263971,0.223833
7,101,1,2,9,1,0,I,1,S,8,L,12,0.767121,0.451472,0.346334
7,102,2,8,2,1,1,I,6,S,1,S,12,0.466334,0.779599,0.363553
7,103,9,8,1,9,0,I,1,S,8,L,12,0.443768,0.758003,0.336378
7,104,2,8,8,1,1,I,6,S,7,L,14,0.586797,0.757334,0.444402
7,105,2,9,1,9,1,C,7,L,8,L,9,0.259844,0.854617,0.222068
7,106,1,2,2,8,1,C,1,S,6,S,11,0.35796,0.809359,0.289718
7,107,1,8,2,9,1,C,7,L,7,L,9,0.264272,0.852353,0.225253
7,108,1,2,8,9,1,C,1,S,1,S,14,0.452415,0.754345,0.341277
7,109,1,8,2,1,1,I,7,L,1,S,11,0.435685,0.779483,0.339609
7,110,2,9,2,1,1,I,7,L,1,S,11,0.436579,0.774458,0.338112
7,111,1,8,9,8,1,I,7,L,1,S,10,0.340083,0.810179,0.275528
7,112,8,9,8,2,1,I,1,S,6,S,14,0.566055,0.753862,0.426727
7,113,9,8,1,2,1,I,1,S,1,S,23,0.766342,0.619831,0.475002
7,114,9,1,9,8,1,C,8,L,1,S,10,0.824623,0.324957,0.267967
7,115,9,2,8,9,1,I,7,L,1,S,10,0.796616,0.349595,0.278493
7,116,2,8,8,9,1,C,6,S,1,S,10,0.363853,0.775025,0.281995
7,117,8,1,8,2,1,C,7,L,6,S,9,0.794458,0.30529,0.24254
7,118,9,8,9,8,1,C,1,S,1,S,16,0.766481,0.458322,0.351295
7,119,2,1,8,9,1,I,1,S,1,S,13,0.791489,0.410143,0.324624
7,120,8,2,1,2,1,I,6,S,1,S,12,0.776732,0.437389,0.339734
7,121,8,9,2,8,1,C,1,S,6,S,9,0.322609,0.772023,0.249061
7,122,2,8,1,8,1,C,6,S,7,L,9,0.285201,0.819536,0.233732
7,123,2,8,9,1,1,I,6,S,8,L,14,0.58322,0.759333,0.442858
7,124,2,8,1,9,1,C,6,S,8,L,9,0.28259,0.823659,0.232758
7,125,9,8,9,2,1,C,1,S,7,L,11,0.767105,0.393271,0.30168
7,126,8,1,8,9,1,I,7,L,1,S,10,0.759548,0.376059,0.285635
7,127,1,8,9,2,1,I,7,L,7,L,12,0.484496,0.786902,0.381251
7,128,2,1,9,2,1,C,1,S,7,L,10,0.77194,0.351551,0.271376
7,129,2,1,1,8,1,I,1,S,7,L,19,0.752277,0.633094,0.476262
7,130,2,1,8,1,1,C,1,S,7,L,9,0.753152,0.33629,0.253278
7,131,1,2,1,2,1,C,1,S,1,S,13,0.390945,0.806968,0.31548
7,132,9,2,1,2,1,I,7,L,1,S,10,0.758233,0.389381,0.295242
7,133,9,1,8,9,1,I,8,L,1,S,10,0.822848,0.328603,0.270391
7,134,8,2,8,1,1,C,6,S,7,L,9,0.815278,0.294551,0.240141
7,135,8,2,8,2,1,C,6,S,6,S,9,0.758739,0.33447,0.253776
7,136,9,2,8,2,1,C,7,L,6,S,9,0.827709,0.281548,0.233039
7,137,9,2,1,8,1,I,7,L,7,L,12,0.754082,0.517222,0.390028
7,138,8,1,2,8,1,I,7,L,6,S,13,0.754007,0.542098,0.408746
7,139,8,2,2,9,1,I,6,S,7,L,15,0.762548,0.583601,0.445024
7,140,1,9,2,8,1,C,8,L,6,S,8,0.285733,0.763395,0.218127
7,141,8,2,9,1,1,C,6,S,8,L,9,0.81204,0.295932,0.240309
7,142,9,8,2,1,1,C,1,S,1,S,12,0.783298,0.398611,0.312231
7,143,1,2,2,9,1,C,1,S,7,L,11,0.35452,0.814583,0.288786
7,144,8,9,2,1,1,I,1,S,1,S,13,0.51111,0.761842,0.389385
8,1,8,1,8,2,1,C,7,L,6,S,9,0.81909,0.289278,0.236945
8,2,9,8,9,1,1,C,1,S,8,L,10,0.774631,0.364609,0.282438
8,3,2,8,1,9,1,C,6,S,8,L,8,0.280905,0.771212,0.216637
8,4,1,8,8,9,1,C,7,L,1,S,10,0.335469,0.814004,0.273073
8,5,8,2,9,2,1,C,6,S,7,L,10,0.779106,0.352426,0.274577
8,6,9,2,1,8,1,I,7,L,7,L,13,0.763188,0.55277,0.421867
8,7,1,9,1,8,1,C,8,L,7,L,9,0.27002,0.848394,0.229084
8,8,1,8,1,9,1,C,7,L,8,L,8,0.289489,0.759684,0.21992
8,9,1,9,2,9,1,C,8,L,7,L,9,0.308072,0.795257,0.244997
8,10,2,1,8,1,1,C,1,S,7,L,9,0.781837,0.314813,0.246133
8,11,8,1,9,1,1,C,7,L,8,L,8,0.779455,0.274979,0.214334
8,12,9,1,2,1,1,C,8,L,1,S,8,0.787837,0.269292,0.212158
8,13,1,2,9,1,0,I,1,S,8,L,13,0.7635,0.489219,0.373519
8,14,8,2,2,9,1,I,6,S,7,L,16,0.753569,0.594448,0.447958
8,15,1,8,8,1,1,I,7,L,7,L,13,0.556437,0.764632,0.42547
8,16,8,2,8,9,1,I,6,S,1,S,12,0.768194,0.421914,0.324112
8,17,8,2,1,2,1,I,6,S,1,S,16,0.762018,0.58343,0.444584
8,18,2,9,2,8,1,C,7,L,6,S,9,0.298726,0.80877,0.2416
8,19,8,1,8,9,1,I,7,L,1,S,10,0.806344,0.345965,0.278967
8,20,2,8,2,9,1,C,6,S,7,L,9,0.280739,0.830594,0.23318
8,21,1,9,1,9,1,C,8,L,8,L,9,0.268844,0.849207,0.228304
8,22,9,1,9,8,1,C,8,L,1,S,9,0.797958,0.319508,0.254954
8,23,2,1,2,8,1,I,1,S,6,S,15,0.750378,0.577186,0.433108
8,24,2,1,8,2,1,C,1,S,6,S,10,0.79372,0.338207,0.268442
8,25,2,9,2,9,1,C,7,L,7,L,9,0.29678,0.810425,0.240518
8,26,1,2,2,9,1,C,1,S,7,L,11,0.368428,0.793769,0.292446
8,27,1,2,8,1,0,I,1,S,7,L,13,0.762305,0.489596,0.373222
8,28,8,2,8,2,1,C,6,S,6,S,10,0.778039,0.3525,0.274259
8,29,8,1,2,1,1,C,7,L,1,S,9,0.839215,0.273001,0.229107
8,30,9,8,2,8,0,I,1,S,6,S,15,0.523685,0.752265,0.39395
8,31,1,9,2,1,1,I,8,L,1,S,12,0.509977,0.753374,0.384204
8,32,2,8,8,1,1,I,6,S,7,L,13,0.545329,0.778856,0.424733
8,33,2,9,1,9,1,C,7,L,8,L,8,0.295098,0.753802,0.222446
8,34,9,2,8,2,1,C,7,L,6,S,9,0.797946,0.304408,0.242901
8,35,9,2,9,1,1,C,7,L,8,L,8,0.761271,0.288119,0.219337
8,36,9,2,1,2,1,I,7,L,1,S,12,0.787234,0.471119,0.370881
8,37,9,8,8,1,1,C,1,S,7,L,10,0.773586,0.364773,0.282184
8,38,9,1,8,9,1,I,8,L,1,S,9,0.794125,0.321664,0.255442
8,39,9,2,9,8,1,C,7,L,1,S,10,0.788422,0.359109,0.283129
8,40,8,2,9,1,1,C,6,S,8,L,9,0.770587,0.326701,0.251752
8,41,8,9,8,9,1,C,1,S,1,S,12,0.409633,0.77607,0.317904
8,42,8,9,1,8,1,C,1,S,7,L,10,0.320384,0.828856,0.265552
8,43,2,8,2,8,1,C,6,S,6,S,9,0.282684,0.828939,0.234328
8,44,9,2,2,9,1,I,7,L,7,L,12,0.778977,0.482771,0.376068
8,45,8,9,1,2,1,C,1,S,1,S,10,0.370249,0.758835,0.280958
8,46,9,2,8,9,1,I,7,L,1,S,10,0.783337,0.362515,0.283972
8,47,2,1,1,9,1,I,1,S,8,L,17,0.753299,0.625975,0.471547
8,48,9,8,1,9,0,I,1,S,8,L,12,0.442818,0.768962,0.34051
8,49,2,1,1,2,1,I,1,S,1,S,15,0.756853,0.567692,0.42966
8,50,2,9,9,8,1,I,7,L,1,S,10,0.347225,0.803143,0.278871
8,51,1,9,1,2,1,C,8,L,1,S,9,0.313682,0.787395,0.246991
8,52,8,9,8,1,1,I,1,S,7,L,19,0.65166,0.750294,0.488936
8,53,1,8,9,1,1,I,7,L,8,L,13,0.557632,0.764255,0.426173
8,54,8,2,1,9,1,I,6,S,8,L,18,0.759212,0.63243,0.480148
8,55,2,8,8,9,1,C,6,S,1,S,10,0.324864,0.82836,0.269105
8,56,9,8,9,8,1,C,1,S,1,S,16,0.766483,0.47338,0.362838
8,57,8,1,2,9,1,I,7,L,7,L,11,0.763595,0.460037,0.351282
8,58,1,9,9,1,1,I,8,L,8,L,14,0.576958,0.769738,0.444106
8,59,1,9,8,2,1,I,8,L,6,S,12,0.481261,0.775611,0.373271
8,60,1,8,2,1,1,I,7,L,1,S,12,0.489645,0.778593,0.381235
8,61,2,8,2,1,1,I,6,S,1,S,11,0.472768,0.754675,0.356786
8,62,9,1,1,8,1,I,8,L,7,L,11,0.78076,0.47839,0.373508
8,63,9,1,9,1,1,C,8,L,8,L,8,0.833797,0.236894,0.197522
8,64,8,9,9,1,1,I,1,S,8,L,20,0.638883,0.7732,0.493984
8,65,1,9,9,8,1,I,8,L,1,S,10,0.359684,0.786361,0.282841
8,66,9,8,2,9,0,I,1,S,7,L,15,0.521481,0.75433,0.393369
8,67,8,9,1,9,1,C,1,S,8,L,10,0.319189,0.829707,0.264834
8,68,8,1,1,2,1,I,7,L,1,S,11,0.771216,0.44919,0.346423
8,69,1,2,1,2,1,C,1,S,1,S,11,0.376049,0.782922,0.294417
8,70,2,9,8,2,1,I,7,L,6,S,11,0.463598,0.753203,0.349183
8,71,2,9,8,1,1,I,7,L,7,L,13,0.563106,0.757438,0.426518
8,72,2,9,1,2,1,C,7,L,1,S,9,0.30239,0.802562,0.242687
8,73,1,2,1,8,1,C,1,S,7,L,10,0.353963,0.782968,0.277142
8,74,8,2,8,1,1,C,6,S,7,L,9,0.769639,0.326774,0.251498
8,75,1,2,9,8,1,I,1,S,1,S,14,0.419003,0.796376,0.333684
8,76,8,9,2,8,1,C,1,S,6,S,10,0.365697,0.766376,0.280261
8,77,9,8,2,1,1,C,1,S,1,S,11,0.778074,0.384187,0.298926
8,78,9,1,8,2,1,C,8,L,6,S,8,0.772325,0.282499,0.218181
8,79,8,9,9,2,1,I,1,S,7,L,17,0.605203,0.757339,0.458344
8,80,9,8,1,8,0,I,1,S,7,L,12,0.443942,0.76819,0.341032
8,81,9,1,1,2,1,I,8,L,1,S,10,0.787871,0.398745,0.31416
8,82,2,8,1,2,1,C,6,S,1,S,9,0.286349,0.822731,0.235588
8,83,9,1,2,9,1,I,8,L,7,L,10,0.781149,0.408292,0.318937
8,84,9,2,8,1,1,C,7,L,7,L,8,0.760446,0.288098,0.219083
8,85,2,8,1,8,1,C,6,S,7,L,8,0.282017,0.770504,0.217295
8,86,9,8,8,2,1,C,1,S,6,S,11,0.750983,0.405131,0.304247
8,87,9,2,2,8,1,I,7,L,6,S,12,0.78136,0.480427,0.375386
8,88,8,1,9,2,1,C,7,L,7,L,9,0.819974,0.289328,0.237242
8,89,1,8,2,8,1,C,7,L,6,S,9,0.292464,0.815645,0.238547
8,90,9,1,1,9,1,I,8,L,8,L,11,0.779586,0.479223,0.373595
8,91,2,8,9,2,1,I,6,S,7,L,11,0.446917,0.775411,0.346545
8,92,2,1,9,1,1,C,1,S,8,L,9,0.782785,0.31474,0.246374
8,93,1,2,8,9,1,C,1,S,1,S,13,0.437246,0.753664,0.329537
8,94,1,8,2,9,1,C,7,L,7,L,9,0.290519,0.8173,0.237441
8,95,8,9,8,2,1,I,1,S,6,S,17,0.603587,0.758052,0.457551
8,96,9,8,8,9,1,I,1,S,1,S,17,0.774689,0.48703,0.377297
8,97,8,9,2,9,1,C,1,S,7,L,10,0.363527,0.768382,0.279328
8,98,9,2,2,1,1,C,7,L,1,S,9,0.81807,0.288131,0.235712
8,99,2,1,9,2,1,C,1,S,7,L,10,0.794787,0.338132,0.268743
8,100,8,1,9,8,1,C,7,L,1,S,10,0.811428,0.342559,0.277962
8,101,8,2,1,8,1,I,6,S,7,L,18,0.759812,0.632284,0.480417
8,102,2,1,8,9,1,I,1,S,1,S,12,0.789064,0.404214,0.318951
8,103,1,2,2,1,1,I,1,S,1,S,22,0.636154,0.768724,0.489027
8,104,9,1,2,8,1,I,8,L,6,S,10,0.783319,0.406285,0.318251
8,105,9,2,9,2,1,C,7,L,7,L,9,0.79883,0.304459,0.243211
8,106,2,1,2,9,1,I,1,S,7,L,16,0.774098,0.576377,0.446172
8,107,1,8,1,2,1,C,7,L,1,S,9,0.296129,0.809437,0.239697
8,108,2,1,2,1,1,C,1,S,1,S,10,0.817883,0.319277,0.261132
8,109,2,8,9,1,1,I,6,S,8,L,13,0.546524,0.778479,0.425458
8,110,1,8,9,2,1,I,7,L,7,L,11,0.457985,0.760642,0.348363
8,111,1,9,8,9,1,C,8,L,1,S,10,0.354599,0.789767,0.280051
8,112,1,8,1,8,1,C,7,L,7,L,8,0.290601,0.758976,0.220559
8,113,9,8,9,2,1,C,1,S,7,L,11,0.752223,0.404924,0.304593
8,114,1,8,8,2,1,I,7,L,6,S,11,0.456746,0.760849,0.347515
8,115,9,2,1,9,1,I,7,L,8,L,13,0.762135,0.553453,0.421806
8,116,2,9,9,2,1,I,7,L,7,L,11,0.464838,0.752996,0.350021
8,117,2,9,1,8,1,C,7,L,7,L,8,0.296211,0.753094,0.223075
8,118,8,2,9,8,1,C,6,S,1,S,12,0.777047,0.414519,0.322101
8,119,8,1,8,1,1,C,7,L,7,L,8,0.77863,0.274957,0.21409
8,120,1,2,2,8,1,C,1,S,6,S,11,0.370745,0.791528,0.293455
8,121,1,9,2,8,1,C,8,L,6,S,9,0.310017,0.793603,0.24603
8,122,2,8,8,2,1,I,6,S,6,S,11,0.445678,0.775619,0.345676
8,123,8,1,1,8,1,I,7,L,7,L,12,0.754036,0.531763,0.400968
8,124,2,9,8,9,1,C,7,L,1,S,10,0.34214,0.806549,0.275953
8,125,1,8,9,8,1,I,7,L,1,S,10,0.340553,0.810598,0.276052
8,126,9,8,1,2,1,I,1,S,1,S,24,0.765279,0.644082,0.492903
8,127,2,1,9,8,1,C,1,S,1,S,12,0.797916,0.39682,0.316629
8,128,8,2,2,8,1,I,6,S,6,S,16,0.755633,0.592583,0.447775
8,129,2,1,1,8,1,I,1,S,7,L,17,0.75399,0.625727,0.471791
8,130,2,8,9,8,1,I,6,S,1,S,10,0.329949,0.824954,0.272193
8,131,2,9,2,1,1,I,7,L,1,S,12,0.496483,0.771065,0.382821
8,132,8,9,9,8,1,I,1,S,1,S,12,0.418485,0.768675,0.321679
8,133,1,2,8,2,1,I,1,S,6,S,21,0.634291,0.760747,0.482535
8,134,9,1,8,1,1,C,8,L,7,L,8,0.832971,0.236873,0.197308
8,135,1,2,9,2,1,I,1,S,7,L,21,0.635837,0.759983,0.483226
8,136,1,2,1,9,1,C,1,S,8,L,10,0.352769,0.783819,0.276507
8,137,1,9,8,1,1,I,8,L,7,L,14,0.575743,0.770162,0.443416
8,138,8,2,2,1,1,C,6,S,1,S,10,0.802202,0.333571,0.267591
8,139,9,1,9,2,1,C,8,L,7,L,8,0.773037,0.282655,0.218503
8,140,8,1,2,8,1,I,7,L,6,S,11,0.765912,0.457796,0.350631
8,141,2,9,9,1,1,I,7,L,8,L,13,0.564301,0.757061,0.427211
8,142,8,1,1,9,1,I,7,L,8,L,12,0.752912,0.532535,0.400952
8,143,8,9,2,1,1,I,1,S,1,S,18,0.618342,0.762984,0.471785
8,144,1,9,9,2,1,I,8,L,7,L,12,0.482644,0.775277,0.374183
9,1,2,9,8,1,1,I,7,L,7,L,15,0.598952,0.769668,0.460994
9,2,2,1,2,9,1,I,1,S,7,L,16,0.76114,0.606891,0.461929
9,3,1,2,8,1,1,I,1,S,7,L,17,0.631248,0.758622,0.478879
9,4,9,2,8,1,1,C,7,L,7,L,8,0.791701,0.267235,0.211571
9,5,8,2,1,2,1,I,6,S,1,S,14,0.758365,0.564463,0.428069
9,6,2,8,2,1,1,I,6,S,1,S,13,0.492122,0.779418,0.383569
9,7,2,9,9,1,1,I,7,L,8,L,15,0.60211,0.766321,0.46141
9,8,8,9,8,2,0,I,1,S,6,S,12,0.761382,0.428468,0.326228
9,9,8,9,2,8,1,C,1,S,6,S,11,0.389586,0.774105,0.30158
9,10,9,1,9,1,1,C,8,L,8,L,8,0.858173,0.219215,0.188125
9,11,2,1,1,8,1,I,1,S,7,L,17,0.769613,0.619143,0.4765
9,12,8,2,1,9,1,I,6,S,8,L,16,0.771044,0.606561,0.467686
9,13,1,8,2,8,1,C,7,L,6,S,9,0.26558,0.850406,0.225851
9,14,9,8,1,2,1,I,1,S,1,S,15,0.776299,0.572148,0.444158
9,15,8,9,9,2,0,I,1,S,7,L,12,0.772492,0.419086,0.32374
9,16,1,9,2,1,1,I,8,L,1,S,10,0.407468,0.753353,0.306967
9,17,8,1,8,2,1,C,7,L,6,S,8,0.755491,0.292648,0.221093
9,18,9,2,8,2,1,C,7,L,6,S,9,0.836027,0.277931,0.232358
9,19,8,2,8,9,1,I,6,S,1,S,10,0.765718,0.364368,0.279003
9,20,1,8,1,8,1,C,7,L,7,L,8,0.283219,0.767567,0.217389
9,21,1,8,8,9,1,C,7,L,1,S,10,0.377642,0.770368,0.290923
9,22,8,9,9,8,0,I,1,S,1,S,15,0.76433,0.468227,0.35788
9,23,8,2,8,2,1,C,6,S,6,S,9,0.772226,0.322725,0.249217
9,24,1,8,1,2,1,C,7,L,1,S,9,0.276857,0.835313,0.231262
9,25,1,8,1,9,1,C,7,L,8,L,8,0.279507,0.772135,0.215817
9,26,8,1,1,9,1,I,7,L,8,L,12,0.75997,0.534952,0.406547
9,27,2,8,2,9,1,C,6,S,7,L,9,0.308064,0.795839,0.245169
9,28,9,8,2,9,1,I,1,S,7,L,15,0.757332,0.595243,0.450797
9,29,2,8,9,1,1,I,6,S,8,L,16,0.628774,0.753559,0.473818
9,30,8,1,2,8,1,I,7,L,6,S,11,0.751979,0.489875,0.368375
9,31,8,2,2,8,1,I,6,S,6,S,15,0.772203,0.579525,0.447511
9,32,8,9,8,9,1,C,1,S,1,S,28,0.64315,0.755529,0.485919
9,33,8,1,2,1,1,C,7,L,1,S,9,0.820169,0.288303,0.236457
9,34,8,9,2,1,0,I,1,S,1,S,14,0.762552,0.457498,0.348866
9,35,2,1,9,8,1,C,1,S,1,S,10,0.772823,0.356423,0.275452
9,36,2,8,9,8,1,I,6,S,1,S,12,0.467497,0.759646,0.355132
9,37,1,9,1,8,1,C,8,L,7,L,8,0.264947,0.788379,0.208879
9,38,8,1,2,9,1,I,7,L,7,L,12,0.782959,0.504101,0.39469
9,39,2,8,8,2,1,I,6,S,6,S,14,0.563575,0.759191,0.427861
9,40,1,2,9,2,1,I,1,S,7,L,15,0.586857,0.75391,0.442437
9,41,1,8,9,8,1,I,7,L,1,S,11,0.410432,0.791438,0.324832
9,42,9,2,1,8,1,I,7,L,7,L,13,0.766872,0.55649,0.426757
9,43,8,1,1,8,1,I,7,L,7,L,12,0.76436,0.52966,0.404851
9,44,1,9,8,9,1,C,8,L,1,S,10,0.356021,0.796004,0.283394
9,45,9,2,2,9,1,I,7,L,7,L,12,0.75264,0.528279,0.397604
9,46,2,1,1,9,1,I,1,S,8,L,17,0.766185,0.622874,0.477236
9,47,9,1,1,2,1,I,8,L,1,S,10,0.764202,0.433881,0.331573
9,48,8,1,9,8,1,C,7,L,1,S,9,0.808148,0.297563,0.240475
9,49,9,8,1,9,1,I,1,S,8,L,16,0.762674,0.615109,0.469128
9,50,2,9,1,8,1,C,7,L,7,L,9,0.262804,0.853396,0.224276
9,51,1,8,2,9,1,C,7,L,7,L,9,0.260252,0.857087,0.223058
9,52,1,9,2,8,1,C,8,L,6,S,8,0.283458,0.76271,0.216197
9,53,9,8,9,2,1,C,1,S,7,L,9,0.773298,0.323018,0.24979
9,54,1,8,2,1,1,I,7,L,1,S,11,0.430045,0.777016,0.334152
9,55,2,8,9,2,1,I,6,S,7,L,14,0.574057,0.750025,0.430557
9,56,2,9,2,9,1,C,7,L,7,L,9,0.278727,0.830356,0.231443
9,57,9,2,9,8,1,C,7,L,1,S,9,0.779769,0.319399,0.249057
9,58,8,9,1,8,1,C,1,S,7,L,11,0.365248,0.807411,0.294905
9,59,2,1,2,1,1,C,1,S,1,S,10,0.788638,0.34454,0.271717
9,60,8,1,9,1,1,C,7,L,8,L,8,0.82066,0.243946,0.200197
9,61,2,9,1,2,1,C,7,L,1,S,9,0.295332,0.808582,0.2388
9,62,2,9,9,8,1,I,7,L,1,S,11,0.432503,0.760112,0.32875
9,63,1,8,9,2,1,I,7,L,7,L,12,0.509831,0.761461,0.388216
9,64,2,8,8,9,1,C,6,S,1,S,11,0.420675,0.755955,0.318012
9,65,8,9,1,9,1,C,1,S,8,L,10,0.378511,0.754869,0.285726
9,66,1,9,9,8,1,I,8,L,1,S,10,0.391652,0.765236,0.299706
9,67,1,9,1,9,1,C,8,L,8,L,8,0.261235,0.792947,0.207146
9,68,1,2,2,9,1,C,1,S,7,L,9,0.315525,0.77995,0.246094
9,69,9,1,2,8,1,I,8,L,6,S,10,0.751604,0.450872,0.338877
9,70,1,8,8,1,1,I,7,L,7,L,14,0.580639,0.77243,0.448503
9,71,9,1,1,8,1,I,8,L,7,L,11,0.770786,0.492978,0.37998
9,72,9,8,2,1,1,C,1,S,1,S,10,0.808032,0.330625,0.267155
9,73,2,1,1,2,1,I,1,S,1,S,15,0.753292,0.589698,0.444214
9,74,1,8,9,1,1,I,7,L,8,L,14,0.584128,0.768846,0.449104
9,75,9,1,8,1,1,C,8,L,7,L,8,0.854199,0.222998,0.190484
9,76,8,9,9,1,0,I,1,S,8,L,10,0.753183,0.385214,0.290137
9,77,8,9,2,9,1,C,1,S,7,L,11,0.383501,0.781766,0.299808
9,78,1,2,2,8,1,C,1,S,6,S,9,0.320853,0.773269,0.248106
9,79,2,1,8,9,1,I,1,S,1,S,11,0.811837,0.356453,0.289382
9,80,9,8,8,9,1,I,1,S,1,S,10,0.756585,0.373277,0.282416
9,81,2,8,1,8,1,C,6,S,7,L,9,0.29214,0.818879,0.239228
9,82,2,1,8,2,1,C,1,S,6,S,10,0.842899,0.305654,0.257635
9,83,1,9,2,9,1,C,8,L,7,L,8,0.278812,0.768354,0.214226
9,84,1,9,1,2,1,C,8,L,1,S,8,0.293007,0.750257,0.219831
9,85,9,8,9,1,1,C,1,S,8,L,9,0.840137,0.274922,0.230972
9,86,9,1,9,2,1,C,8,L,7,L,8,0.800038,0.261361,0.209099
9,87,2,1,9,2,1,C,1,S,7,L,9,0.757257,0.334713,0.253464
9,88,9,1,8,9,1,I,8,L,1,S,9,0.823548,0.293238,0.241496
9,89,2,9,8,2,1,I,7,L,6,S,13,0.52566,0.772596,0.406123
9,90,9,1,2,9,1,I,8,L,7,L,11,0.789039,0.467333,0.368744
9,91,1,9,8,2,1,I,8,L,6,S,11,0.470227,0.758694,0.356759
9,92,8,2,8,1,1,C,6,S,7,L,9,0.843546,0.270946,0.228555
9,93,2,9,2,1,1,I,7,L,1,S,12,0.453749,0.787648,0.357394
9,94,8,1,9,2,1,C,7,L,7,L,8,0.762525,0.286092,0.218152
9,95,2,8,1,9,1,C,6,S,8,L,9,0.288048,0.823991,0.237349
9,96,2,8,1,2,1,C,6,S,1,S,9,0.324669,0.774065,0.251315
9,97,1,2,8,9,1,C,1,S,1,S,12,0.420912,0.784007,0.329998
9,98,8,2,9,1,1,C,6,S,8,L,9,0.847841,0.266932,0.226316
9,99,1,8,8,2,1,I,7,L,6,S,12,0.498721,0.770843,0.384436
9,100,9,2,8,9,1,I,7,L,1,S,9,0.754026,0.342583,0.258317
9,101,2,1,8,1,1,C,1,S,7,L,9,0.819801,0.290631,0.23826
9,102,9,1,9,8,1,C,8,L,1,S,8,0.750658,0.299787,0.225038
9,103,1,9,8,1,1,I,8,L,7,L,13,0.560262,0.767565,0.430037
9,104,9,1,2,1,1,C,8,L,1,S,8,0.759326,0.292976,0.222464
9,105,8,2,2,9,1,I,6,S,7,L,15,0.766511,0.586153,0.449292
9,106,8,1,1,2,1,I,7,L,1,S,11,0.765445,0.471827,0.361158
9,107,2,9,2,8,1,C,7,L,6,S,9,0.284055,0.823675,0.233969
9,108,8,2,9,2,1,C,6,S,7,L,9,0.781003,0.315028,0.246038
9,109,2,1,9,1,1,C,1,S,8,L,9,0.824096,0.286617,0.2362
9,110,8,2,1,8,1,I,6,S,7,L,16,0.774716,0.602493,0.466761
9,111,9,1,8,2,1,C,8,L,6,S,8,0.793004,0.267917,0.21246
9,112,2,9,1,9,1,C,7,L,8,L,9,0.258712,0.858509,0.222106
9,113,9,8,2,8,1,I,1,S,6,S,15,0.763025,0.588615,0.449128
9,114,9,8,1,8,1,I,1,S,7,L,16,0.766346,0.611041,0.468268
9,115,1,2,1,2,1,C,1,S,1,S,9,0.33213,0.758176,0.251813
9,116,9,2,1,2,1,I,7,L,1,S,12,0.772721,0.502265,0.38811
9,117,2,8,2,8,1,C,6,S,6,S,9,0.313392,0.789158,0.247316
9,118,1,2,1,8,1,C,1,S,7,L,9,0.299602,0.80299,0.240577
9,119,9,2,1,9,1,I,7,L,8,L,13,0.762588,0.561542,0.428226
9,120,8,1,8,9,1,I,7,L,1,S,9,0.782405,0.320747,0.250954
9,121,2,9,8,9,1,C,7,L,1,S,11,0.385292,0.799277,0.307955
9,122,8,2,2,1,1,C,6,S,1,S,10,0.817165,0.321716,0.262895
9,123,1,2,1,9,1,C,1,S,8,L,9,0.29551,0.808103,0.238802
9,124,9,2,9,2,1,C,7,L,7,L,9,0.844804,0.270234,0.228295
9,125,1,2,2,1,1,I,1,S,1,S,13,0.506141,0.755187,0.382231
9,126,9,1,1,9,1,I,8,L,8,L,11,0.766375,0.498398,0.38196
9,127,1,9,9,2,1,I,8,L,7,L,12,0.487668,0.787129,0.383857
9,128,8,9,1,2,1,C,1,S,1,S,11,0.403053,0.756058,0.304731
9,129,8,9,8,1,0,I,1,S,7,L,11,0.799019,0.379199,0.302987
9,130,9,8,8,1,1,C,1,S,7,L,9,0.835842,0.278936,0.233147
9,131,9,2,2,8,1,I,7,L,6,S,12,0.758819,0.520615,0.395053
9,132,1,2,8,2,1,I,1,S,6,S,15,0.577026,0.762708,0.440103
9,133,1,9,9,1,1,I,8,L,8,L,13,0.564068,0.763766,0.430816
9,134,9,8,9,8,1,C,1,S,1,S,10,0.792216,0.342508,0.271341
9,135,9,2,9,1,1,C,7,L,8,L,8,0.795676,0.263453,0.209623
9,136,8,1,8,1,1,C,7,L,7,L,8,0.816685,0.247729,0.202316
9,137,1,2,9,1,1,I,1,S,8,L,17,0.633762,0.755773,0.47898
9,138,1,2,9,8,1,I,1,S,1,S,13,0.480925,0.773472,0.371982
9,139,9,2,2,1,1,C,7,L,1,S,9,0.79179,0.31014,0.245565
9,140,2,8,8,1,1,I,6,S,7,L,16,0.625945,0.756657,0.473626
9,141,9,8,8,2,1,C,1,S,6,S,9,0.764521,0.330716,0.252839
9,142,8,2,9,8,1,C,6,S,1,S,10,0.801349,0.3336,0.26733
9,143,2,1,2,8,1,I,1,S,6,S,16,0.766523,0.600754,0.460492
9,144,2,9,9,2,1,I,7,L,7,L,13,0.536604,0.763217,0.409545
10,1,2,1,2,8,1,I,1,S,6,S,22,0.759054,0.651564,0.494572
10,2,9,2,9,8,1,C,7,L,1,S,11,0.819108,0.358482,0.293635
10,3,8,9,2,9,1,C,1,S,7,L,11,0.355324,0.81582,0.28988
10,4,2,1,1,9,0,I,1,S,8,L,13,0.498156,0.752263,0.374745
10,5,8,2,8,1,1,C,6,S,7,L,9,0.803244,0.299031,0.240195
10,6,8,2,1,9,1,I,6,S,8,L,14,0.764176,0.570827,0.436212
10,7,8,1,9,1,1,C,7,L,8,L,9,0.848603,0.268258,0.227644
10,8,8,2,8,9,1,I,6,S,1,S,11,0.790231,0.395125,0.31224
10,9,1,2,9,2,1,I,1,S,7,L,16,0.596188,0.760057,0.453137
10,10,9,8,9,2,0,C,1,S,7,L,21,0.636987,0.769046,0.489872
10,11,2,1,1,2,1,I,1,S,1,S,20,0.760397,0.620312,0.471683
10,12,2,1,2,9,1,I,1,S,7,L,22,0.758519,0.651373,0.494079
10,13,1,2,1,2,1,C,1,S,1,S,10,0.357264,0.766881,0.273979
10,14,1,8,8,2,1,I,7,L,6,S,10,0.429365,0.752288,0.323006
10,15,2,1,8,2,1,C,1,S,6,S,11,0.789648,0.375426,0.296455
10,16,1,2,2,8,1,C,1,S,6,S,10,0.306927,0.837559,0.257069
10,17,8,2,2,1,1,C,6,S,1,S,10,0.783032,0.35397,0.27717
10,18,8,2,1,8,1,I,6,S,7,L,14,0.76524,0.570411,0.436501
10,19,8,9,1,8,1,C,1,S,7,L,10,0.364862,0.770757,0.28122
10,20,1,9,9,2,1,I,8,L,7,L,11,0.454684,0.788298,0.358427
10,21,2,8,8,1,1,I,6,S,7,L,12,0.516744,0.754756,0.390016
10,22,8,9,9,1,0,I,1,S,8,L,13,0.75138,0.491868,0.36958
10,23,9,8,2,9,0,I,1,S,7,L,10,0.365964,0.767098,0.28073
10,24,2,1,1,8,0,I,1,S,7,L,13,0.499332,0.751717,0.375357
10,25,2,9,8,1,1,I,7,L,7,L,12,0.508113,0.766774,0.389608
10,26,9,8,8,9,0,I,1,S,1,S,12,0.407448,0.771717,0.314434
10,27,9,2,8,2,1,C,7,L,6,S,9,0.760846,0.3313,0.252068
10,28,8,9,1,2,1,C,1,S,1,S,12,0.382671,0.800427,0.3063
10,29,2,9,1,8,1,C,7,L,7,L,8,0.296747,0.752937,0.223432
10,30,8,2,9,8,1,C,6,S,1,S,10,0.772414,0.366041,0.282736
10,31,2,1,9,1,1,C,1,S,8,L,10,0.765333,0.370422,0.283496
10,32,8,2,8,2,1,C,6,S,6,S,9,0.780471,0.31558,0.246301
10,33,9,1,9,2,1,C,8,L,7,L,9,0.811326,0.296149,0.240273
10,34,8,9,8,9,1,C,1,S,1,S,13,0.403018,0.795453,0.320582
10,35,9,8,1,9,0,I,1,S,8,L,10,0.345918,0.793553,0.274504
10,36,2,8,9,8,1,I,6,S,1,S,10,0.36539,0.783833,0.286405
10,37,9,1,8,2,1,C,8,L,6,S,9,0.791829,0.310538,0.245893
10,38,8,1,2,8,1,I,7,L,6,S,12,0.758558,0.514437,0.39023
10,39,2,8,2,1,1,I,6,S,1,S,10,0.376008,0.771761,0.290189
10,40,8,1,1,8,1,I,7,L,7,L,13,0.769176,0.546361,0.420248
10,41,1,8,9,8,1,I,7,L,1,S,9,0.342449,0.767434,0.262807
10,42,8,9,8,1,1,I,1,S,7,L,23,0.650326,0.762229,0.495697
10,43,2,9,1,9,1,C,7,L,8,L,8,0.295413,0.753595,0.222622
10,44,2,8,1,8,1,C,6,S,7,L,9,0.266344,0.853075,0.227211
10,45,8,1,9,8,1,C,7,L,1,S,10,0.804017,0.345122,0.277484
10,46,8,2,2,8,1,I,6,S,6,S,13,0.757687,0.542212,0.410827
10,47,8,9,9,8,1,I,1,S,1,S,15,0.459185,0.772753,0.354836
10,48,9,2,8,1,1,C,7,L,7,L,9,0.78362,0.314751,0.246645
10,49,8,2,2,9,1,I,6,S,7,L,13,0.755922,0.54346,0.410813
10,50,9,1,1,8,1,I,8,L,7,L,13,0.75013,0.561976,0.421555
10,51,8,1,8,2,1,C,7,L,6,S,9,0.808796,0.29703,0.240237
10,52,2,9,8,9,1,C,7,L,1,S,9,0.348201,0.750283,0.261249
10,53,9,1,9,1,1,C,8,L,8,L,9,0.831636,0.281766,0.234326
10,54,1,2,9,1,1,I,1,S,8,L,17,0.61077,0.767576,0.468813
10,55,2,9,2,1,1,I,7,L,1,S,10,0.368137,0.78315,0.288307
10,56,1,8,9,2,1,I,7,L,7,L,11,0.460287,0.780203,0.359118
10,57,1,8,8,1,1,I,7,L,7,L,11,0.464404,0.777434,0.361044
10,58,8,1,8,1,1,C,7,L,7,L,9,0.83157,0.280481,0.23324
10,59,2,9,2,8,1,C,7,L,6,S,9,0.277902,0.839029,0.233168
10,60,2,8,8,2,1,I,6,S,6,S,12,0.485527,0.777455,0.377476
10,61,8,9,2,1,1,I,1,S,1,S,16,0.504333,0.75675,0.381654
10,62,2,1,9,2,1,C,1,S,7,L,11,0.815257,0.356825,0.290904
10,63,2,9,9,1,1,I,7,L,8,L,12,0.529115,0.751343,0.397547
10,64,8,1,1,9,1,I,7,L,8,L,13,0.768,0.546907,0.420024
10,65,1,9,1,2,1,C,8,L,1,S,9,0.281259,0.833249,0.234358
10,66,1,9,2,8,1,C,8,L,6,S,8,0.278484,0.778723,0.216862
10,67,1,2,2,9,1,C,1,S,7,L,10,0.305042,0.838919,0.255906
10,68,9,8,8,2,0,C,1,S,6,S,20,0.633076,0.760664,0.481558
10,69,1,8,1,9,1,C,7,L,8,L,8,0.265599,0.792929,0.210601
10,70,1,9,9,1,1,I,8,L,8,L,11,0.479365,0.770673,0.369434
10,71,1,9,2,9,1,C,8,L,7,L,8,0.276835,0.779701,0.215849
10,72,9,2,2,1,1,C,7,L,1,S,10,0.760517,0.371623,0.282625
10,73,2,1,2,1,1,C,1,S,1,S,13,0.770907,0.424953,0.327599
10,74,2,9,9,8,1,I,7,L,1,S,10,0.357519,0.795222,0.284307
10,75,1,9,8,1,1,I,8,L,7,L,11,0.458801,0.785529,0.360401
10,76,1,9,9,8,1,I,8,L,1,S,9,0.337407,0.775064,0.261512
10,77,9,2,8,9,1,I,7,L,1,S,11,0.765976,0.414079,0.317175
10,78,9,2,2,9,1,I,7,L,7,L,14,0.761452,0.56427,0.429664
10,79,9,2,1,9,1,I,7,L,8,L,15,0.768072,0.58727,0.451065
10,80,1,8,1,2,1,C,7,L,1,S,9,0.2863,0.825618,0.236375
10,81,1,2,1,9,1,C,1,S,8,L,9,0.32251,0.770055,0.24835
10,82,8,1,1,2,1,I,7,L,1,S,11,0.778079,0.426989,0.332231
10,83,2,1,9,8,1,C,1,S,1,S,14,0.794093,0.424116,0.336788
10,84,1,2,9,8,1,I,1,S,1,S,12,0.394884,0.801043,0.316319
10,85,2,8,9,1,1,I,6,S,8,L,13,0.5413,0.772477,0.418142
10,86,2,8,8,9,1,C,6,S,1,S,10,0.326532,0.823475,0.268891
10,87,8,2,1,2,1,I,6,S,1,S,12,0.786758,0.450864,0.354721
10,88,8,1,2,1,1,C,7,L,1,S,10,0.814635,0.33305,0.271314
10,89,2,8,9,2,1,I,6,S,7,L,12,0.512471,0.757689,0.388294
10,90,9,1,2,1,1,C,8,L,1,S,10,0.79591,0.347807,0.276823
10,91,8,1,8,9,1,I,7,L,1,S,10,0.765158,0.384764,0.294405
10,92,8,1,2,9,1,I,7,L,7,L,12,0.756705,0.515792,0.390303
10,93,1,9,2,1,1,I,8,L,1,S,9,0.344591,0.766258,0.264045
10,94,1,9,8,2,1,I,8,L,6,S,10,0.423958,0.760296,0.322333
10,95,9,2,1,8,1,I,7,L,7,L,15,0.769017,0.586989,0.451405
10,96,9,1,2,8,1,I,8,L,6,S,13,0.77226,0.534071,0.412441
10,97,1,8,8,9,1,C,7,L,1,S,9,0.314621,0.795072,0.250146
10,98,1,9,1,9,1,C,8,L,8,L,8,0.261109,0.799821,0.208841
10,99,2,9,8,2,1,I,7,L,6,S,12,0.476897,0.789473,0.376497
10,100,1,8,1,8,1,C,7,L,7,L,8,0.266933,0.792271,0.211483
10,101,1,2,8,9,1,C,1,S,1,S,11,0.363726,0.798794,0.290542
10,102,2,8,2,9,1,C,6,S,7,L,9,0.283179,0.82992,0.235016
10,103,8,9,8,2,1,I,1,S,6,S,22,0.649171,0.753452,0.489119
10,104,9,2,1,2,1,I,7,L,1,S,12,0.761863,0.470497,0.358455
10,105,1,9,1,8,1,C,8,L,7,L,8,0.262443,0.799162,0.209735
10,106,2,9,2,9,1,C,7,L,7,L,9,0.2761,0.840246,0.231992
10,107,1,8,2,9,1,C,7,L,7,L,8,0.281325,0.772809,0.217411
10,108,9,8,1,2,0,I,1,S,1,S,11,0.391247,0.76341,0.298682
10,109,9,2,9,1,1,C,7,L,8,L,9,0.800653,0.302527,0.242219
10,110,9,8,1,8,0,I,1,S,7,L,10,0.347311,0.792771,0.275338
10,111,8,9,1,9,1,C,1,S,8,L,10,0.363469,0.771539,0.28043
10,112,9,2,9,2,1,C,7,L,7,L,9,0.780343,0.316911,0.247299
10,113,2,8,1,2,1,C,6,S,1,S,9,0.326959,0.770503,0.251923
10,114,1,8,2,1,1,I,7,L,1,S,9,0.349632,0.758628,0.265241
10,115,9,8,9,1,0,C,1,S,8,L,21,0.651908,0.756681,0.493286
10,116,8,2,9,2,1,C,6,S,7,L,9,0.799967,0.301191,0.240943
10,117,1,2,1,8,1,C,1,S,7,L,9,0.323901,0.769297,0.249176
10,118,9,1,1,9,1,I,8,L,8,L,14,0.778617,0.562465,0.437945
10,119,9,1,8,1,1,C,8,L,7,L,9,0.814603,0.293989,0.239484
10,120,1,8,9,1,1,I,7,L,8,L,11,0.484969,0.762579,0.369827
10,121,2,9,9,2,1,I,7,L,7,L,12,0.503841,0.769707,0.38781
10,122,9,1,9,8,1,C,8,L,1,S,10,0.785292,0.359879,0.28261
10,123,9,1,1,2,1,I,8,L,1,S,11,0.758533,0.442475,0.335632
10,124,1,2,8,1,1,I,1,S,7,L,16,0.600005,0.757198,0.454322
10,125,8,1,9,2,1,C,7,L,7,L,9,0.828293,0.282641,0.23411
10,126,9,1,2,9,1,I,8,L,7,L,13,0.770495,0.535318,0.41246
10,127,2,1,8,1,1,C,1,S,7,L,11,0.819373,0.354056,0.290104
10,128,9,1,8,9,1,I,8,L,1,S,11,0.804121,0.388063,0.31205
10,129,8,9,2,8,1,C,1,S,6,S,11,0.357221,0.81442,0.290928
10,130,9,8,9,8,0,C,1,S,1,S,14,0.439077,0.786447,0.345311
10,131,9,8,2,1,0,C,1,S,1,S,15,0.46727,0.786194,0.367365
10,132,9,2,2,8,1,I,7,L,6,S,14,0.763097,0.563171,0.429754
10,133,1,2,8,2,1,I,1,S,6,S,15,0.574415,0.753768,0.432976
10,134,2,9,1,2,1,C,7,L,1,S,9,0.31988,0.780829,0.249772
10,135,2,8,2,8,1,C,6,S,6,S,9,0.284981,0.828703,0.236165
10,136,2,1,8,9,1,I,1,S,1,S,17,0.755043,0.556669,0.420309
10,137,9,8,2,8,0,I,1,S,6,S,10,0.367848,0.765738,0.281676
10,138,2,8,1,9,1,C,6,S,8,L,9,0.264953,0.853832,0.226225
10,139,1,2,2,1,1,I,1,S,1,S,12,0.416338,0.779197,0.324409
10,140,1,8,2,8,1,C,7,L,6,S,8,0.282974,0.771831,0.218408
10,141,8,2,9,1,1,C,6,S,8,L,9,0.820277,0.286807,0.235261
10,142,8,9,9,2,1,I,1,S,7,L,23,0.647962,0.764071,0.495089
10,143,9,8,8,1,0,C,1,S,7,L,21,0.639704,0.766918,0.490601
10,144,1,9,8,9,1,C,8,L,1,S,9,0.309579,0.802702,0.2485
11,1,9,2,8,2,1,C,7,L,6,S,9,0.816474,0.292847,0.239102
11,2,9,1,2,8,1,I,8,L,6,S,11,0.760621,0.465509,0.354076
11,3,1,2,2,1,1,I,1,S,1,S,21,0.636327,0.771241,0.490761
11,4,2,1,2,8,1,I,1,S,6,S,23,0.772078,0.636038,0.491071
11,5,2,9,8,1,1,I,7,L,7,L,14,0.596248,0.755445,0.450432
11,6,1,2,8,9,1,C,1,S,1,S,12,0.374448,0.812165,0.304114
11,7,1,8,2,1,1,I,7,L,1,S,13,0.536687,0.770696,0.413622
11,8,9,2,8,9,1,I,7,L,1,S,11,0.752819,0.436166,0.328354
11,9,9,1,1,8,1,I,8,L,7,L,13,0.771535,0.554857,0.428091
11,10,2,1,1,8,0,I,1,S,7,L,12,0.448076,0.770905,0.345424
11,11,9,1,8,1,1,C,8,L,7,L,8,0.800192,0.260696,0.208607
11,12,8,9,9,1,0,I,1,S,8,L,10,0.80672,0.34803,0.280763
11,13,8,2,2,8,1,I,6,S,6,S,14,0.770829,0.548081,0.422477
11,14,2,8,9,1,1,I,6,S,8,L,14,0.599557,0.75967,0.455466
11,15,9,2,2,1,1,C,7,L,1,S,9,0.801634,0.302972,0.242873
11,16,8,2,8,1,1,C,6,S,7,L,9,0.839327,0.27782,0.233182
11,17,2,8,1,8,1,C,6,S,7,L,8,0.279292,0.774207,0.21623
11,18,1,2,1,8,1,C,1,S,7,L,10,0.322692,0.82473,0.266134
11,19,2,8,2,9,1,C,6,S,7,L,9,0.272146,0.843138,0.229457
11,20,1,8,1,9,1,C,7,L,8,L,8,0.277827,0.776488,0.215729
11,21,8,2,2,9,1,I,6,S,7,L,15,0.77523,0.576998,0.447306
11,22,2,9,2,8,1,C,7,L,6,S,9,0.303412,0.801194,0.243092
11,23,9,2,1,8,1,I,7,L,7,L,15,0.759801,0.604962,0.459651
11,24,2,8,1,2,1,C,6,S,1,S,9,0.321979,0.775433,0.249673
11,25,9,2,1,9,1,I,7,L,8,L,16,0.775451,0.611191,0.473948
11,26,9,2,9,8,1,C,7,L,1,S,10,0.81322,0.329953,0.268324
11,27,9,1,9,1,1,C,8,L,8,L,8,0.818622,0.248466,0.2034
11,28,1,2,1,2,1,C,1,S,1,S,11,0.390012,0.763272,0.297685
11,29,2,1,8,9,1,I,1,S,1,S,20,0.763401,0.6057,0.462392
11,30,9,8,1,9,0,I,1,S,8,L,10,0.387738,0.758657,0.29416
11,31,8,1,8,1,1,C,7,L,7,L,8,0.790711,0.267503,0.211518
11,32,9,1,2,1,1,C,8,L,1,S,8,0.753872,0.292719,0.220673
11,33,9,2,2,9,1,I,7,L,7,L,14,0.767405,0.563872,0.432718
11,34,9,1,1,2,1,I,8,L,1,S,10,0.75441,0.405025,0.305555
11,35,2,9,1,9,1,C,7,L,8,L,8,0.281892,0.773748,0.218114
11,36,2,8,8,9,1,C,6,S,1,S,9,0.335054,0.762564,0.2555
11,37,9,8,8,2,1,C,1,S,6,S,11,0.786759,0.387494,0.304865
11,38,1,2,2,9,1,C,1,S,7,L,10,0.357802,0.776668,0.277894
11,39,2,9,1,2,1,C,7,L,1,S,9,0.335478,0.758465,0.254448
11,40,9,2,9,2,1,C,7,L,7,L,9,0.843305,0.274405,0.231407
11,41,8,1,9,1,1,C,7,L,8,L,8,0.809141,0.255273,0.206552
11,42,2,1,9,1,1,C,1,S,8,L,9,0.753922,0.34621,0.261015
11,43,2,8,9,2,1,I,6,S,7,L,13,0.571172,0.752683,0.429912
11,44,8,2,1,9,1,I,6,S,8,L,16,0.757224,0.625887,0.473937
11,45,1,2,9,2,0,I,1,S,7,L,14,0.750424,0.545338,0.409235
11,46,9,8,2,9,0,I,1,S,7,L,12,0.4139,0.787969,0.326141
11,47,8,1,9,8,1,C,7,L,1,S,9,0.777993,0.321694,0.250276
11,48,1,8,9,2,1,I,7,L,7,L,14,0.581416,0.766843,0.445855
11,49,2,1,8,2,1,C,1,S,6,S,10,0.766864,0.366276,0.280883
11,50,8,2,1,2,1,I,6,S,1,S,12,0.755359,0.474095,0.358112
11,51,9,1,8,2,1,C,8,L,6,S,8,0.766373,0.284139,0.217756
11,52,2,1,9,2,1,C,1,S,7,L,10,0.795681,0.346216,0.275478
11,53,1,9,2,9,1,C,8,L,7,L,9,0.295774,0.811218,0.239937
11,54,1,2,8,1,0,I,1,S,7,L,13,0.758031,0.510457,0.386942
11,55,2,1,1,9,0,I,1,S,8,L,11,0.429459,0.758777,0.325863
11,56,8,1,2,9,1,I,7,L,7,L,12,0.764185,0.512078,0.391322
11,57,9,2,9,1,1,C,7,L,8,L,8,0.76628,0.289345,0.221719
11,58,1,8,8,2,1,I,7,L,6,S,13,0.553901,0.758142,0.419936
11,59,8,9,9,2,0,I,1,S,7,L,10,0.774122,0.370888,0.287113
11,60,8,9,9,8,0,I,1,S,1,S,13,0.793987,0.410583,0.325997
11,61,1,9,1,9,1,C,8,L,8,L,8,0.290279,0.761436,0.221029
11,62,9,8,8,9,0,I,1,S,1,S,15,0.485649,0.750784,0.364617
11,63,8,2,9,2,1,C,6,S,7,L,9,0.8279,0.285938,0.236728
11,64,1,9,1,2,1,C,8,L,1,S,10,0.311309,0.834215,0.259699
11,65,1,9,1,8,1,C,8,L,7,L,9,0.263501,0.855583,0.225447
11,66,2,9,9,1,1,I,7,L,8,L,15,0.609293,0.769297,0.468728
11,67,1,9,9,1,1,I,8,L,8,L,15,0.622054,0.752363,0.468011
11,68,1,8,8,9,1,C,7,L,1,S,10,0.311626,0.837209,0.260896
11,69,1,8,1,8,1,C,7,L,7,L,8,0.286946,0.76267,0.218845
11,70,8,9,8,1,0,I,1,S,7,L,10,0.786086,0.36226,0.284768
11,71,9,8,9,2,1,C,1,S,7,L,10,0.75863,0.383738,0.291115
11,72,2,8,8,1,1,I,6,S,7,L,14,0.581044,0.773598,0.449495
11,73,1,2,9,8,1,I,1,S,1,S,17,0.583449,0.752758,0.439196
11,74,8,9,1,8,1,C,1,S,7,L,11,0.409979,0.775043,0.317752
11,75,9,2,2,8,1,I,7,L,6,S,13,0.760595,0.531259,0.404072
11,76,2,9,2,9,1,C,7,L,7,L,9,0.285645,0.826171,0.235991
11,77,8,1,9,2,1,C,7,L,7,L,8,0.780379,0.274815,0.21446
11,78,1,8,1,2,1,C,7,L,1,S,9,0.331048,0.761777,0.252184
11,79,2,9,2,1,1,I,7,L,1,S,13,0.541005,0.767401,0.415168
11,80,1,8,2,9,1,C,7,L,7,L,9,0.281214,0.829483,0.233263
11,81,8,9,2,8,1,C,1,S,6,S,13,0.465193,0.760475,0.353767
11,82,9,1,1,9,1,I,8,L,8,L,13,0.760395,0.570067,0.433476
11,83,1,9,8,9,1,C,8,L,1,S,10,0.327756,0.816674,0.26767
11,84,2,8,8,2,1,I,6,S,6,S,13,0.542586,0.773916,0.419916
11,85,8,2,1,8,1,I,6,S,7,L,16,0.767193,0.612894,0.470208
11,86,2,9,8,9,1,C,7,L,1,S,10,0.316244,0.833577,0.263614
11,87,9,1,9,2,1,C,8,L,7,L,8,0.78986,0.268008,0.211689
11,88,9,1,8,9,1,I,8,L,1,S,10,0.770856,0.387484,0.298695
11,89,1,9,8,2,1,I,8,L,6,S,14,0.571198,0.766913,0.438059
11,90,8,1,2,1,1,C,7,L,1,S,9,0.853153,0.26319,0.224541
11,91,1,9,8,1,1,I,8,L,7,L,15,0.604515,0.765744,0.462904
11,92,2,8,9,8,1,I,6,S,1,S,11,0.40943,0.794764,0.325401
11,93,9,1,2,9,1,I,8,L,7,L,12,0.776205,0.503105,0.390512
11,94,9,8,1,8,0,I,1,S,7,L,11,0.388533,0.793268,0.30821
11,95,8,9,8,2,0,I,1,S,6,S,11,0.808206,0.36927,0.298446
11,96,9,8,9,1,1,C,1,S,8,L,10,0.791229,0.360879,0.285538
11,97,9,8,8,1,1,C,1,S,7,L,10,0.770594,0.37511,0.289058
11,98,8,2,9,8,1,C,6,S,1,S,10,0.795167,0.343265,0.272953
11,99,8,9,2,1,0,I,1,S,1,S,11,0.790905,0.381345,0.301608
11,100,2,9,9,2,1,I,7,L,7,L,14,0.585452,0.763913,0.447235
11,101,1,8,2,8,1,C,7,L,6,S,9,0.298982,0.804506,0.240533
11,102,1,9,9,8,1,I,8,L,1,S,11,0.437404,0.757154,0.331182
11,103,1,8,8,1,1,I,7,L,7,L,14,0.592212,0.758375,0.449119
11,104,8,9,1,9,1,C,1,S,8,L,11,0.398776,0.791065,0.315458
11,105,8,2,8,2,1,C,6,S,6,S,9,0.801069,0.30438,0.243829
11,106,1,8,9,8,1,I,7,L,1,S,11,0.42029,0.778904,0.327365
11,107,2,8,2,1,1,I,6,S,1,S,12,0.521984,0.753244,0.393181
11,108,2,9,1,8,1,C,7,L,7,L,8,0.291011,0.75993,0.221148
11,109,9,8,9,8,1,C,1,S,1,S,13,0.754088,0.444708,0.335349
11,110,8,1,2,8,1,I,7,L,6,S,12,0.787522,0.479755,0.377817
11,111,1,2,9,1,0,I,1,S,8,L,12,0.766743,0.473773,0.363263
11,112,2,1,2,1,1,C,1,S,1,S,10,0.750412,0.377576,0.283338
11,113,8,1,1,9,1,I,7,L,8,L,14,0.778022,0.577455,0.449273
11,114,8,2,2,1,1,C,6,S,1,S,9,0.786229,0.314505,0.247273
11,115,8,9,2,9,1,C,1,S,7,L,12,0.44331,0.762743,0.338132
11,116,2,8,1,9,1,C,6,S,8,L,8,0.270173,0.788025,0.212903
11,117,8,1,8,2,1,C,7,L,6,S,8,0.756892,0.290946,0.220215
11,118,2,1,9,8,1,C,1,S,1,S,12,0.779045,0.398832,0.310708
11,119,9,8,2,1,1,C,1,S,1,S,11,0.769458,0.39957,0.307452
11,120,8,2,8,9,1,I,6,S,1,S,12,0.778087,0.447147,0.347919
11,121,2,1,8,1,1,C,1,S,7,L,10,0.807645,0.337588,0.272651
11,122,8,9,8,9,0,C,1,S,1,S,24,0.763334,0.637757,0.486821
11,123,2,8,2,8,1,C,6,S,6,S,9,0.289914,0.818162,0.237196
11,124,8,1,1,8,1,I,7,L,7,L,13,0.759867,0.563761,0.428384
11,125,2,9,9,8,1,I,7,L,1,S,11,0.424931,0.775201,0.329407
11,126,8,2,9,1,1,C,6,S,8,L,8,0.754105,0.298746,0.225286
11,127,9,1,9,8,1,C,8,L,1,S,9,0.788895,0.313918,0.247648
11,128,2,1,1,2,1,I,1,S,1,S,21,0.764646,0.61919,0.473461
11,129,1,2,8,2,1,I,1,S,6,S,21,0.646809,0.762816,0.493397
11,130,9,8,1,2,0,I,1,S,1,S,14,0.468049,0.754892,0.353326
11,131,2,1,2,9,0,I,1,S,7,L,14,0.513576,0.753249,0.386851
11,132,1,9,9,2,1,I,8,L,7,L,15,0.594346,0.773854,0.459938
11,133,9,8,2,8,0,I,1,S,6,S,12,0.437237,0.755646,0.330396
11,134,1,8,9,1,1,I,7,L,8,L,15,0.605584,0.771814,0.467398
11,135,1,9,2,8,1,C,8,L,6,S,9,0.313542,0.786242,0.24652
11,136,9,2,8,1,1,C,7,L,7,L,9,0.854732,0.266287,0.227604
11,137,9,2,1,2,1,I,7,L,1,S,12,0.776038,0.45869,0.355961
11,138,2,9,8,2,1,I,7,L,6,S,13,0.558219,0.754847,0.42137
11,139,1,2,2,8,1,C,1,S,6,S,11,0.344788,0.825696,0.28469
11,140,8,9,1,2,0,C,1,S,1,S,25,0.771706,0.636553,0.491232
11,141,1,9,2,1,1,I,8,L,1,S,14,0.554598,0.779291,0.432193
11,142,8,1,8,9,1,I,7,L,1,S,10,0.759101,0.395935,0.300555
11,143,1,2,1,9,1,C,1,S,8,L,9,0.339896,0.759305,0.258085
11,144,8,1,1,2,1,I,7,L,1,S,11,0.793755,0.411923,0.326966
12,1,8,2,1,2,1,I,6,S,1,S,11,0.765548,0.415386,0.317998
12,2,2,1,1,9,1,I,1,S,8,L,14,0.752076,0.590774,0.444307
12,3,8,1,2,8,1,I,7,L,6,S,10,0.75607,0.442031,0.334206
12,4,2,9,9,2,1,I,7,L,7,L,13,0.541373,0.765799,0.414583
12,5,9,2,2,9,1,I,7,L,7,L,15,0.751518,0.604415,0.454229
12,6,2,8,9,1,1,I,6,S,8,L,15,0.59104,0.77353,0.457187
12,7,9,1,2,9,1,I,8,L,7,L,11,0.76832,0.489805,0.376327
12,8,9,8,1,2,0,I,1,S,1,S,15,0.445216,0.778136,0.346438
12,9,8,9,9,8,1,I,1,S,1,S,23,0.592497,0.751933,0.445518
12,10,1,8,9,1,1,I,7,L,8,L,13,0.569929,0.750689,0.427839
12,11,9,2,1,8,1,I,7,L,7,L,15,0.756305,0.596989,0.451505
12,12,2,8,8,1,1,I,6,S,7,L,15,0.596868,0.770588,0.459939
12,13,2,9,2,8,1,C,7,L,6,S,9,0.278253,0.831042,0.23124
12,14,9,2,2,1,1,C,7,L,1,S,10,0.821008,0.319643,0.262429
12,15,2,1,1,2,1,I,1,S,1,S,11,0.786413,0.399422,0.314111
12,16,1,8,2,1,1,I,7,L,1,S,11,0.441771,0.767894,0.339233
12,17,1,8,1,2,1,C,7,L,1,S,9,0.340742,0.751843,0.256185
12,18,1,8,8,2,1,I,7,L,6,S,13,0.541142,0.773752,0.41871
12,19,2,9,8,9,1,C,7,L,1,S,10,0.31469,0.833059,0.262155
12,20,9,1,2,8,1,I,8,L,6,S,11,0.791507,0.457124,0.361817
12,21,2,9,1,8,1,C,7,L,7,L,9,0.262142,0.852593,0.223501
12,22,1,9,9,8,1,I,8,L,1,S,10,0.347975,0.801176,0.278789
12,23,1,2,2,8,1,C,1,S,6,S,10,0.329188,0.809266,0.266401
12,24,8,2,1,8,1,I,6,S,7,L,14,0.750219,0.582675,0.437134
12,25,9,8,9,2,1,C,1,S,7,L,11,0.759496,0.408298,0.3101
12,26,9,2,9,8,1,C,7,L,1,S,11,0.814875,0.35528,0.289509
12,27,9,2,1,2,1,I,7,L,1,S,12,0.790952,0.424998,0.336153
12,28,2,8,2,9,1,C,6,S,7,L,9,0.273795,0.839508,0.229853
12,29,1,8,1,9,1,C,7,L,8,L,8,0.279204,0.773573,0.215985
12,30,8,2,8,1,1,C,6,S,7,L,9,0.848808,0.267576,0.227121
12,31,9,2,9,2,1,C,7,L,7,L,9,0.792948,0.305674,0.242384
12,32,8,9,1,2,1,C,1,S,1,S,14,0.430799,0.774315,0.333575
12,33,9,1,1,9,1,I,8,L,8,L,11,0.754141,0.508448,0.383441
12,34,2,9,8,1,1,I,7,L,7,L,14,0.582609,0.765903,0.446222
12,35,1,9,9,1,1,I,8,L,8,L,13,0.555165,0.769206,0.427036
12,36,9,2,1,9,1,I,7,L,8,L,16,0.764914,0.613144,0.469002
12,37,2,8,2,1,1,I,6,S,1,S,12,0.469941,0.773647,0.363568
12,38,9,2,8,2,1,C,7,L,6,S,9,0.798846,0.303611,0.242539
12,39,8,1,8,9,1,I,7,L,1,S,9,0.771844,0.346474,0.267424
12,40,1,8,9,2,1,I,7,L,7,L,13,0.533752,0.777408,0.414943
12,41,2,8,2,8,1,C,6,S,6,S,9,0.293553,0.811023,0.238078
12,42,2,9,2,9,1,C,7,L,7,L,9,0.258495,0.859527,0.222184
12,43,2,1,9,2,1,C,1,S,7,L,9,0.827449,0.278791,0.230685
12,44,9,8,8,9,0,I,1,S,1,S,15,0.43786,0.791854,0.346721
12,45,1,9,9,2,1,I,8,L,7,L,12,0.515512,0.763324,0.393503
12,46,8,2,9,1,1,C,6,S,8,L,9,0.843628,0.26926,0.227155
12,47,2,1,9,1,1,C,1,S,8,L,8,0.751547,0.292655,0.219944
12,48,9,8,8,1,1,C,1,S,7,L,11,0.802511,0.379649,0.304672
12,49,2,8,9,8,1,I,6,S,1,S,11,0.366186,0.813064,0.297733
12,50,9,1,1,2,1,I,8,L,1,S,9,0.764189,0.348383,0.26623
12,51,9,1,9,2,1,C,8,L,7,L,8,0.804368,0.255505,0.20552
12,52,1,2,1,8,1,C,1,S,7,L,10,0.311487,0.833016,0.259473
12,53,9,8,9,8,1,C,1,S,1,S,21,0.7582,0.510611,0.387145
12,54,9,2,8,9,1,I,7,L,1,S,12,0.787024,0.434103,0.34165
12,55,1,9,8,2,1,I,8,L,6,S,12,0.522816,0.759911,0.397294
12,56,2,9,9,1,1,I,7,L,8,L,14,0.576704,0.768789,0.443364
12,57,8,2,8,9,1,I,6,S,1,S,11,0.762878,0.422694,0.322464
12,58,1,8,8,9,1,C,7,L,1,S,9,0.340108,0.756283,0.257218
12,59,8,9,9,2,0,I,1,S,7,L,12,0.785768,0.412987,0.324512
12,60,8,2,2,9,1,I,6,S,7,L,15,0.772752,0.58713,0.453706
12,61,2,8,1,9,1,C,6,S,8,L,9,0.260923,0.856853,0.223573
12,62,9,1,2,1,1,C,8,L,1,S,8,0.755477,0.294578,0.222547
12,63,2,1,2,1,1,C,1,S,1,S,9,0.765217,0.326745,0.25003
12,64,1,8,2,8,1,C,7,L,6,S,9,0.272506,0.840893,0.229148
12,65,8,1,2,1,1,C,7,L,1,S,8,0.763186,0.288689,0.220324
12,66,9,2,2,8,1,I,7,L,6,S,15,0.774186,0.575058,0.445202
12,67,1,2,9,1,1,I,1,S,8,L,19,0.649279,0.751092,0.487668
12,68,8,9,9,1,0,I,1,S,8,L,11,0.78095,0.395788,0.309091
12,69,2,9,1,2,1,C,7,L,1,S,10,0.316237,0.827336,0.261634
12,70,9,8,2,9,0,I,1,S,7,L,11,0.384701,0.791131,0.304349
12,71,8,2,9,8,1,C,6,S,1,S,10,0.764114,0.367021,0.280446
12,72,8,9,1,8,1,C,1,S,7,L,11,0.373473,0.797014,0.297664
12,73,1,8,1,8,1,C,7,L,7,L,8,0.293726,0.752151,0.220926
12,74,1,2,9,2,1,I,1,S,7,L,19,0.624072,0.771313,0.481355
12,75,9,2,9,1,1,C,7,L,8,L,9,0.826292,0.282828,0.233698
12,76,8,9,2,1,0,I,1,S,1,S,14,0.764014,0.463924,0.354444
12,77,9,8,1,9,0,I,1,S,8,L,10,0.385485,0.754525,0.290858
12,78,2,9,9,8,1,I,7,L,1,S,10,0.368643,0.771633,0.284457
12,79,2,9,2,1,1,I,7,L,1,S,11,0.448899,0.756377,0.339537
12,80,9,8,2,8,0,I,1,S,6,S,11,0.407889,0.75845,0.309363
12,81,8,1,8,2,1,C,7,L,6,S,8,0.817069,0.248169,0.202772
12,82,2,1,8,9,1,I,1,S,1,S,11,0.783742,0.40673,0.318772
12,83,1,2,2,1,1,I,1,S,1,S,16,0.577026,0.757423,0.437053
12,84,1,9,2,9,1,C,8,L,7,L,8,0.279306,0.772949,0.215889
12,85,9,1,8,9,1,I,8,L,1,S,9,0.763555,0.352822,0.269399
12,86,9,8,8,2,1,C,1,S,6,S,11,0.76655,0.40523,0.310629
12,87,8,1,9,2,1,C,7,L,7,L,8,0.812077,0.249616,0.202708
12,88,1,9,2,8,1,C,8,L,6,S,9,0.259495,0.85806,0.222662
12,89,8,1,2,9,1,I,7,L,7,L,11,0.776717,0.483154,0.375274
12,90,8,1,1,8,1,I,7,L,7,L,11,0.781233,0.475282,0.371306
12,91,9,8,1,8,0,I,1,S,7,L,11,0.389217,0.783259,0.304858
12,92,1,2,1,9,1,C,1,S,8,L,9,0.327414,0.769455,0.25193
12,93,1,8,9,8,1,I,7,L,1,S,10,0.362088,0.782552,0.283352
12,94,1,9,1,2,1,C,8,L,1,S,9,0.327731,0.76901,0.252029
12,95,2,1,1,8,1,I,1,S,7,L,14,0.770479,0.566357,0.436366
12,96,1,8,8,1,1,I,7,L,7,L,14,0.575003,0.777204,0.446894
12,97,8,9,2,8,1,C,1,S,6,S,11,0.392145,0.772205,0.302816
12,98,1,2,8,1,1,I,1,S,7,L,20,0.640961,0.771087,0.494237
12,99,2,1,2,8,1,I,1,S,6,S,13,0.759747,0.54202,0.411798
12,100,2,9,8,2,1,I,7,L,6,S,13,0.548763,0.762143,0.418236
12,101,9,8,9,1,1,C,1,S,8,L,11,0.796694,0.382033,0.304364
12,102,9,2,8,1,1,C,7,L,7,L,9,0.831473,0.281144,0.233764
12,103,8,1,1,2,1,I,7,L,1,S,9,0.772478,0.342034,0.264214
12,104,2,8,1,8,1,C,6,S,7,L,9,0.277442,0.832574,0.230991
12,105,8,9,8,2,0,I,1,S,6,S,11,0.750806,0.418985,0.314576
12,106,2,8,9,2,1,I,6,S,7,L,14,0.560293,0.772225,0.432672
12,107,1,9,8,1,1,I,8,L,7,L,13,0.56111,0.766425,0.430048
12,108,1,9,2,1,1,I,8,L,1,S,11,0.427042,0.787106,0.336127
12,109,9,1,8,1,1,C,8,L,7,L,8,0.837927,0.234409,0.196418
12,110,2,1,9,8,1,C,1,S,1,S,10,0.783622,0.352115,0.275925
12,111,2,1,2,9,1,I,1,S,7,L,14,0.765627,0.574042,0.439502
12,112,9,1,1,8,1,I,8,L,7,L,11,0.772836,0.481933,0.372455
12,113,8,2,2,8,1,I,6,S,6,S,14,0.768799,0.559411,0.430075
12,114,8,2,9,2,1,C,6,S,7,L,9,0.810284,0.292106,0.236689
12,115,1,2,8,9,1,C,1,S,1,S,11,0.382299,0.774884,0.296238
12,116,8,2,1,9,1,I,6,S,8,L,15,0.759798,0.602829,0.458028
12,117,8,2,8,2,1,C,6,S,6,S,9,0.816182,0.290043,0.236728
12,118,8,1,9,8,1,C,7,L,1,S,9,0.810014,0.302602,0.245112
12,119,9,8,2,1,1,C,1,S,1,S,13,0.761845,0.443922,0.3382
12,120,1,9,1,8,1,C,8,L,7,L,8,0.28231,0.766938,0.216514
12,121,2,8,1,2,1,C,6,S,1,S,10,0.333235,0.804876,0.268213
12,122,2,8,8,2,1,I,6,S,6,S,14,0.567652,0.768418,0.436194
12,123,2,9,1,9,1,C,7,L,8,L,8,0.283937,0.765239,0.217279
12,124,1,2,9,8,1,I,1,S,1,S,13,0.423212,0.788642,0.333763
12,125,8,1,9,1,1,C,7,L,8,L,8,0.841043,0.229749,0.193229
12,126,8,9,8,1,0,I,1,S,7,L,11,0.786767,0.393403,0.309517
12,127,8,2,2,1,1,C,6,S,1,S,10,0.841232,0.304156,0.255865
12,128,8,9,1,9,1,C,1,S,8,L,10,0.373844,0.764036,0.28563
12,129,8,1,1,9,1,I,7,L,8,L,11,0.762538,0.501797,0.382639
12,130,1,2,2,9,1,C,1,S,7,L,9,0.340286,0.752109,0.255932
12,131,8,9,2,9,1,C,1,S,7,L,11,0.368957,0.804886,0.296968
12,132,9,1,9,1,1,C,8,L,8,L,8,0.833334,0.235638,0.196365
12,133,1,2,8,2,1,I,1,S,6,S,19,0.630624,0.76758,0.484054
12,134,1,2,1,2,1,C,1,S,1,S,11,0.38497,0.767576,0.295494
12,135,2,1,8,1,1,C,1,S,7,L,8,0.75614,0.291426,0.220359
12,136,9,1,9,8,1,C,8,L,1,S,9,0.801725,0.308951,0.247693
12,137,1,9,8,9,1,C,8,L,1,S,9,0.327097,0.77345,0.252993
12,138,2,1,8,2,1,C,1,S,6,S,9,0.833347,0.276728,0.23061
12,139,9,1,8,2,1,C,8,L,6,S,8,0.80936,0.254058,0.205625
12,140,2,8,8,9,1,C,6,S,1,S,10,0.331687,0.810599,0.268866
12,141,8,9,8,9,1,C,1,S,1,S,14,0.424423,0.786834,0.33395
12,142,1,9,1,9,1,C,8,L,8,L,8,0.267789,0.78836,0.211114
12,143,1,8,2,9,1,C,7,L,7,L,8,0.290722,0.758162,0.220414
12,144,8,1,8,1,1,C,7,L,7,L,8,0.845636,0.228521,0.193245
13,1,9,8,2,1,1,C,1,S,1,S,14,0.769666,0.436337,0.335834
13,2,2,9,9,8,1,I,7,L,1,S,11,0.402802,0.771583,0.310795
13,3,8,9,2,8,1,C,1,S,6,S,12,0.382993,0.804839,0.308247
13,4,1,2,1,2,1,C,1,S,1,S,10,0.34274,0.789792,0.270693
13,5,8,9,9,1,0,I,1,S,8,L,12,0.79041,0.407669,0.322225
13,6,1,2,8,1,1,I,1,S,7,L,17,0.602515,0.770443,0.464203
13,7,9,8,1,8,0,I,1,S,7,L,11,0.416136,0.764236,0.318026
13,8,1,9,1,8,1,C,8,L,7,L,8,0.276565,0.772573,0.213667
13,9,1,2,9,2,1,I,1,S,7,L,17,0.610847,0.7638,0.466565
13,10,8,9,1,9,1,C,1,S,8,L,11,0.368731,0.804118,0.296503
13,11,1,8,1,2,1,C,7,L,1,S,9,0.297132,0.80815,0.240128
13,12,8,9,9,2,0,I,1,S,7,L,12,0.775815,0.419908,0.325771
13,13,1,2,1,9,1,C,1,S,8,L,9,0.324198,0.772172,0.250336
13,14,1,9,9,8,1,I,8,L,1,S,10,0.364942,0.781037,0.285033
13,15,1,2,9,1,1,I,1,S,8,L,17,0.621361,0.753945,0.468472
13,16,2,8,8,2,1,I,6,S,6,S,14,0.550414,0.76965,0.423626
13,17,9,1,8,9,1,I,8,L,1,S,10,0.778029,0.367195,0.285688
13,18,2,8,8,1,1,I,6,S,7,L,14,0.569805,0.753267,0.429215
13,19,2,8,9,2,1,I,6,S,7,L,15,0.577391,0.773768,0.446767
13,20,1,8,2,1,1,I,7,L,1,S,10,0.373329,0.773107,0.288624
13,21,1,9,8,1,1,I,8,L,7,L,12,0.498363,0.773564,0.385516
13,22,9,8,1,9,0,I,1,S,8,L,11,0.421215,0.760126,0.320177
13,23,2,8,2,8,1,C,6,S,6,S,9,0.326164,0.766466,0.249994
13,24,8,9,1,2,1,C,1,S,1,S,12,0.407838,0.775324,0.316207
13,25,1,9,8,2,1,I,8,L,6,S,11,0.472365,0.751498,0.354982
13,26,9,8,1,2,0,I,1,S,1,S,14,0.477214,0.768328,0.366657
13,27,2,1,8,9,1,I,1,S,1,S,14,0.781048,0.437696,0.341862
13,28,2,9,8,1,1,I,7,L,7,L,14,0.558681,0.766043,0.427974
13,29,2,1,1,8,0,I,1,S,7,L,13,0.496829,0.757932,0.376562
13,30,1,9,2,1,1,I,8,L,1,S,10,0.366995,0.780164,0.286317
13,31,9,2,8,1,1,C,7,L,7,L,9,0.78481,0.315761,0.247813
13,32,2,1,9,8,1,C,1,S,1,S,13,0.802415,0.394425,0.316492
13,33,2,1,9,1,1,C,1,S,8,L,10,0.775042,0.359442,0.278583
13,34,9,1,9,8,1,C,8,L,1,S,10,0.803556,0.33762,0.271297
13,35,2,8,2,9,1,C,6,S,7,L,9,0.334229,0.758984,0.253675
13,36,2,9,2,9,1,C,7,L,7,L,9,0.325386,0.768835,0.250169
13,37,1,8,8,2,1,I,7,L,6,S,12,0.484604,0.783021,0.379455
13,38,1,2,2,8,1,C,1,S,6,S,10,0.320874,0.815118,0.26155
13,39,8,2,1,2,1,I,6,S,1,S,14,0.779935,0.530503,0.413757
13,40,1,2,8,9,1,C,1,S,1,S,12,0.391208,0.80177,0.313659
13,41,9,8,2,8,0,I,1,S,6,S,13,0.451632,0.773743,0.349448
13,42,1,8,8,1,1,I,7,L,7,L,12,0.504811,0.766506,0.38694
13,43,2,1,1,2,1,I,1,S,1,S,21,0.769389,0.629961,0.484685
13,44,8,9,2,1,1,I,1,S,1,S,26,0.638503,0.750135,0.478963
13,45,2,1,9,2,1,C,1,S,7,L,10,0.76112,0.370974,0.282356
13,46,8,2,8,9,1,I,6,S,1,S,11,0.7928,0.378451,0.300036
13,47,1,8,2,9,1,C,7,L,7,L,9,0.285986,0.821912,0.235055
13,48,8,1,1,2,1,I,7,L,1,S,12,0.756524,0.493471,0.373323
13,49,1,9,8,9,1,C,8,L,1,S,10,0.339414,0.810611,0.275133
13,50,2,9,2,1,1,I,7,L,1,S,11,0.405496,0.770218,0.31232
13,51,2,8,1,9,1,C,6,S,8,L,9,0.296424,0.812468,0.240835
13,52,8,1,9,2,1,C,7,L,7,L,9,0.811679,0.291843,0.236883
13,53,8,2,8,1,1,C,6,S,7,L,9,0.771924,0.321127,0.247885
13,54,2,8,8,9,1,C,6,S,1,S,11,0.377068,0.798412,0.301056
13,55,9,1,1,9,1,I,8,L,8,L,14,0.772833,0.572778,0.442662
13,56,1,2,2,9,1,C,1,S,7,L,10,0.329742,0.806372,0.265895
13,57,2,1,8,1,1,C,1,S,7,L,10,0.751727,0.377574,0.283833
13,58,8,2,2,9,1,I,6,S,7,L,14,0.764163,0.550293,0.420514
13,59,9,8,9,2,1,C,1,S,7,L,11,0.785933,0.385313,0.30283
13,60,2,8,1,2,1,C,6,S,1,S,10,0.308878,0.839252,0.259226
13,61,9,2,9,2,1,C,7,L,7,L,9,0.793075,0.309941,0.245806
13,62,9,1,1,2,1,I,8,L,1,S,12,0.771999,0.48572,0.374975
13,63,8,1,1,9,1,I,7,L,8,L,14,0.757216,0.581351,0.440208
13,64,8,1,1,8,1,I,7,L,7,L,14,0.752948,0.584377,0.440005
13,65,8,2,8,2,1,C,6,S,6,S,9,0.756522,0.334209,0.252836
13,66,2,9,9,2,1,I,7,L,7,L,14,0.568611,0.758558,0.431325
13,67,2,8,2,1,1,I,6,S,1,S,11,0.416286,0.757456,0.315318
13,68,1,8,9,8,1,I,7,L,1,S,10,0.371276,0.773979,0.28736
13,69,9,2,8,9,1,I,7,L,1,S,11,0.809757,0.370118,0.299705
13,70,9,1,8,2,1,C,8,L,6,S,9,0.800093,0.305993,0.244823
13,71,2,8,9,8,1,I,6,S,1,S,11,0.413593,0.758821,0.313843
13,72,1,9,2,9,1,C,8,L,7,L,9,0.280011,0.828466,0.23198
13,73,8,9,8,1,0,I,1,S,7,L,12,0.765492,0.42736,0.327141
13,74,2,9,2,8,1,C,7,L,6,S,9,0.317322,0.776317,0.246342
13,75,1,9,9,2,1,I,8,L,7,L,12,0.508686,0.766111,0.38971
13,76,8,2,9,2,1,C,6,S,7,L,9,0.780188,0.315307,0.245999
13,77,2,9,9,1,1,I,7,L,8,L,15,0.579188,0.774618,0.448649
13,78,1,8,1,9,1,C,7,L,8,L,8,0.286733,0.763316,0.218868
13,79,8,2,9,8,1,C,6,S,1,S,10,0.753283,0.370449,0.279053
13,80,1,8,9,2,1,I,7,L,7,L,12,0.515134,0.759053,0.391014
13,81,1,2,2,1,1,I,1,S,1,S,13,0.434991,0.791636,0.344355
13,82,9,2,1,2,1,I,7,L,1,S,13,0.768031,0.518317,0.398083
13,83,1,2,8,2,1,I,1,S,6,S,16,0.59225,0.760482,0.450395
13,84,8,2,2,8,1,I,6,S,6,S,14,0.755047,0.559295,0.422294
13,85,8,1,2,9,1,I,7,L,7,L,13,0.774998,0.51731,0.400914
13,86,9,2,9,8,1,C,7,L,1,S,10,0.768477,0.363488,0.279333
13,87,8,1,8,2,1,C,7,L,6,S,9,0.788013,0.310745,0.244871
13,88,9,2,2,1,1,C,7,L,1,S,10,0.770531,0.362616,0.279407
13,89,2,9,1,8,1,C,7,L,7,L,9,0.28252,0.826365,0.233464
13,90,9,1,8,1,1,C,8,L,7,L,9,0.815495,0.292911,0.238867
13,91,8,1,2,1,1,C,7,L,1,S,10,0.791885,0.342727,0.271401
13,92,9,1,1,8,1,I,8,L,7,L,14,0.768565,0.575804,0.442543
