ANN,trial,N1,N2,P1,P2,Succ.,Cong,Ndist,Ndist,Pdist,Pdist,rt,a1,a2,x_acc
1,1,1,8,9,2,1,I,7,L,7,L,11,0.478341,0.759532,0.363315
1,2,8,1,9,1,1,C,7,L,8,L,8,0.785167,0.272284,0.213788
1,3,9,8,8,2,1,C,1,S,6,S,11,0.795729,0.368979,0.293607
1,4,1,8,1,2,1,C,7,L,1,S,9,0.286789,0.821893,0.23571
1,5,2,9,9,8,1,I,7,L,1,S,11,0.382849,0.792782,0.303516
1,6,8,2,2,1,1,C,6,S,1,S,9,0.766387,0.329401,0.252448
1,7,9,1,2,8,1,I,8,L,6,S,10,0.765844,0.429905,0.32924
1,8,9,2,9,2,1,C,7,L,7,L,8,0.765062,0.288558,0.220765
1,9,8,1,1,8,1,I,7,L,7,L,12,0.763735,0.529184,0.404156
1,10,1,8,1,8,1,C,7,L,7,L,8,0.266679,0.791727,0.211137
1,11,8,2,1,2,1,I,6,S,1,S,11,0.753486,0.452008,0.340581
1,12,8,2,9,1,1,C,6,S,8,L,9,0.85483,0.26502,0.226547
1,13,8,1,8,9,1,I,7,L,1,S,10,0.821797,0.334926,0.275242
1,14,8,1,8,2,1,C,7,L,6,S,8,0.753684,0.292649,0.220564
1,15,2,1,9,8,1,C,1,S,1,S,11,0.809172,0.36627,0.296375
1,16,8,2,9,2,1,C,6,S,7,L,9,0.823496,0.286707,0.236102
1,17,9,1,8,1,1,C,8,L,7,L,8,0.818269,0.248866,0.20364
1,18,8,2,1,9,1,I,6,S,8,L,14,0.773375,0.573277,0.443358
1,19,2,1,9,2,1,C,1,S,7,L,9,0.77905,0.318467,0.248102
1,20,1,9,2,9,1,C,8,L,7,L,9,0.27726,0.835973,0.231782
1,21,2,9,1,2,1,C,7,L,1,S,10,0.317198,0.82297,0.261045
1,22,1,2,2,9,1,C,1,S,7,L,11,0.378824,0.790269,0.299373
1,23,2,1,2,9,1,I,1,S,7,L,14,0.757083,0.565224,0.427921
1,24,1,2,1,2,1,C,1,S,1,S,12,0.392881,0.792447,0.311337
1,25,9,8,9,8,1,C,1,S,1,S,14,0.756541,0.450178,0.340578
1,26,8,9,1,9,1,C,1,S,8,L,11,0.373968,0.80294,0.300274
1,27,8,1,9,8,1,C,7,L,1,S,9,0.762357,0.342545,0.261142
1,28,2,9,1,9,1,C,7,L,8,L,9,0.287309,0.821706,0.236083
1,29,2,9,2,1,1,I,7,L,1,S,12,0.477567,0.753532,0.359862
1,30,9,1,9,8,1,C,8,L,1,S,9,0.80408,0.314514,0.252894
1,31,9,8,9,2,1,C,1,S,7,L,11,0.803577,0.365043,0.29334
1,32,2,8,1,2,1,C,6,S,1,S,9,0.321548,0.772082,0.248261
1,33,9,2,1,2,1,I,7,L,1,S,10,0.762833,0.409283,0.312214
1,34,9,8,1,9,0,I,1,S,8,L,12,0.444427,0.771772,0.342996
1,35,9,8,8,1,1,C,1,S,7,L,10,0.764097,0.369691,0.28248
1,36,9,2,1,8,1,I,7,L,7,L,12,0.771799,0.525238,0.405378
1,37,9,8,1,2,1,I,1,S,1,S,22,0.752635,0.641191,0.482583
1,38,1,2,2,1,1,I,1,S,1,S,23,0.637085,0.764144,0.486825
1,39,1,9,8,2,1,I,8,L,6,S,12,0.501143,0.769115,0.385437
1,40,8,2,8,1,1,C,6,S,7,L,9,0.849323,0.267241,0.226974
1,41,2,9,2,9,1,C,7,L,7,L,9,0.320013,0.776254,0.248411
1,42,2,8,1,9,1,C,6,S,8,L,8,0.29442,0.751756,0.221332
1,43,1,2,8,9,1,C,1,S,1,S,14,0.45151,0.752812,0.339902
1,44,2,8,2,8,1,C,6,S,6,S,9,0.294093,0.811029,0.238518
1,45,8,2,2,9,1,I,6,S,7,L,13,0.782824,0.522351,0.408909
1,46,2,1,9,1,1,C,1,S,8,L,9,0.810384,0.296779,0.240505
1,47,1,9,8,1,1,I,8,L,7,L,13,0.54285,0.774434,0.420401
1,48,1,2,1,8,1,C,1,S,7,L,10,0.36918,0.771613,0.284864
1,49,9,1,8,2,1,C,8,L,6,S,8,0.791529,0.267546,0.21177
1,50,2,9,8,9,1,C,7,L,1,S,11,0.356856,0.816104,0.291232
1,51,9,2,8,2,1,C,7,L,6,S,8,0.759964,0.290523,0.220787
1,52,9,8,2,8,0,I,1,S,6,S,15,0.528181,0.756888,0.399774
1,53,1,2,2,8,1,C,1,S,6,S,11,0.383666,0.784023,0.300803
1,54,9,1,1,8,1,I,8,L,7,L,11,0.770748,0.491858,0.379098
1,55,2,1,2,8,1,I,1,S,6,S,14,0.762094,0.55905,0.426048
1,56,8,1,9,2,1,C,7,L,7,L,8,0.758783,0.290684,0.220566
1,57,2,8,2,1,1,I,6,S,1,S,11,0.43896,0.761349,0.334202
1,58,9,2,2,8,1,I,7,L,6,S,11,0.774892,0.464092,0.359621
1,59,1,9,9,8,1,I,8,L,1,S,10,0.354533,0.796724,0.282465
1,60,9,8,8,9,1,I,1,S,1,S,16,0.759517,0.487873,0.370548
1,61,1,9,2,8,1,C,8,L,6,S,9,0.281236,0.830969,0.233698
1,62,2,1,8,1,1,C,1,S,7,L,9,0.804877,0.299,0.240659
1,63,2,8,1,8,1,C,6,S,7,L,9,0.260067,0.858095,0.223163
1,64,2,1,2,1,1,C,1,S,1,S,10,0.809627,0.328929,0.26631
1,65,9,1,9,1,1,C,8,L,8,L,8,0.823012,0.247181,0.203433
1,66,8,1,1,2,1,I,7,L,1,S,10,0.755184,0.412549,0.311551
1,67,9,8,2,9,0,I,1,S,7,L,14,0.504926,0.756088,0.381768
1,68,1,8,9,1,1,I,7,L,8,L,12,0.521422,0.770686,0.401853
1,69,9,8,2,1,1,C,1,S,1,S,12,0.787685,0.393326,0.309817
1,70,2,9,1,8,1,C,7,L,7,L,9,0.289963,0.818316,0.237282
1,71,8,2,9,8,1,C,6,S,1,S,10,0.791388,0.355081,0.281007
1,72,8,9,2,1,0,I,1,S,1,S,14,0.770268,0.452518,0.34856
1,73,8,2,2,8,1,I,6,S,6,S,12,0.754344,0.512243,0.386408
1,74,9,1,1,9,1,I,8,L,8,L,11,0.767842,0.495511,0.380475
1,75,9,1,8,9,1,I,8,L,1,S,9,0.790323,0.325555,0.257293
1,76,1,2,8,1,0,I,1,S,7,L,12,0.76746,0.445142,0.341629
1,77,8,2,8,9,1,I,6,S,1,S,10,0.772388,0.371345,0.286822
1,78,1,8,8,1,1,I,7,L,7,L,12,0.514896,0.773975,0.398517
1,79,1,9,8,9,1,C,8,L,1,S,10,0.335533,0.812988,0.272784
1,80,8,9,8,2,0,I,1,S,6,S,12,0.774645,0.418612,0.324275
1,81,8,9,8,1,0,I,1,S,7,L,11,0.767571,0.404122,0.310192
1,82,8,1,8,1,1,C,7,L,7,L,8,0.780424,0.273969,0.213812
1,83,1,2,9,1,0,I,1,S,8,L,12,0.773986,0.441853,0.341988
1,84,9,8,9,1,1,C,1,S,8,L,10,0.770148,0.367014,0.282655
1,85,2,9,9,2,1,I,7,L,7,L,14,0.568777,0.755031,0.429444
1,86,1,9,1,9,1,C,8,L,8,L,8,0.283614,0.768623,0.217992
1,87,2,8,8,9,1,C,6,S,1,S,10,0.349967,0.790935,0.276801
1,88,2,1,1,2,1,I,1,S,1,S,13,0.774267,0.497929,0.38553
1,89,8,9,9,8,1,I,1,S,1,S,26,0.607065,0.753804,0.457608
1,90,8,1,1,9,1,I,7,L,8,L,12,0.760826,0.532772,0.405347
1,91,2,8,8,2,1,I,6,S,6,S,13,0.520939,0.779269,0.405952
1,92,9,1,2,9,1,I,8,L,7,L,10,0.761354,0.435678,0.331705
1,93,9,2,9,8,1,C,7,L,1,S,9,0.769459,0.339796,0.261459
1,94,1,2,9,2,0,I,1,S,7,L,13,0.762379,0.472892,0.360523
1,95,2,8,2,9,1,C,6,S,7,L,9,0.290117,0.816033,0.236745
1,96,9,8,1,8,0,I,1,S,7,L,12,0.447336,0.768183,0.343636
1,97,8,1,2,9,1,I,7,L,7,L,11,0.762098,0.474003,0.361237
1,98,8,9,1,8,1,C,1,S,7,L,11,0.376874,0.799286,0.30123
1,99,1,9,2,1,1,I,8,L,1,S,11,0.423465,0.784521,0.332217
1,100,8,2,8,2,1,C,6,S,6,S,9,0.817257,0.289414,0.236526
1,101,1,9,1,8,1,C,8,L,7,L,8,0.285996,0.765628,0.218967
1,102,2,1,8,2,1,C,1,S,6,S,9,0.772812,0.321174,0.248207
1,103,8,9,8,9,1,C,1,S,1,S,17,0.467862,0.756739,0.35405
1,104,8,9,9,1,0,I,1,S,8,L,11,0.77395,0.401089,0.310423
1,105,9,1,2,1,1,C,8,L,1,S,8,0.752868,0.299239,0.225288
1,106,9,2,2,1,1,C,7,L,1,S,9,0.819085,0.293167,0.240129
1,107,1,8,2,9,1,C,7,L,7,L,8,0.292388,0.7562,0.221104
1,108,2,9,8,1,1,I,7,L,7,L,15,0.593966,0.760471,0.451694
1,109,9,1,9,2,1,C,8,L,7,L,8,0.796627,0.265581,0.211569
1,110,2,1,1,8,1,I,1,S,7,L,16,0.775828,0.601394,0.466578
1,111,8,9,2,8,1,C,1,S,6,S,12,0.397912,0.796269,0.316845
1,112,1,8,1,9,1,C,7,L,8,L,8,0.264296,0.794722,0.210042
1,113,9,2,8,9,1,I,7,L,1,S,9,0.755703,0.350837,0.265128
1,114,8,1,2,8,1,I,7,L,6,S,11,0.766941,0.467756,0.358741
1,115,2,9,9,1,1,I,7,L,8,L,15,0.600291,0.756906,0.454364
1,116,1,8,8,9,1,C,7,L,1,S,9,0.337214,0.765175,0.258028
1,117,9,2,8,1,1,C,7,L,7,L,8,0.786703,0.271844,0.21386
1,118,2,8,9,1,1,I,6,S,8,L,14,0.565643,0.777287,0.439666
1,119,1,8,2,8,1,C,7,L,6,S,8,0.295716,0.752189,0.222434
1,120,1,8,2,1,1,I,7,L,1,S,10,0.400044,0.76643,0.306606
1,121,8,9,2,9,1,C,1,S,7,L,11,0.412228,0.750519,0.309385
1,122,1,2,8,2,0,I,1,S,6,S,13,0.754003,0.477526,0.360056
1,123,2,8,8,1,1,I,6,S,7,L,13,0.559083,0.751321,0.420051
1,124,1,2,9,8,1,I,1,S,1,S,16,0.482597,0.760205,0.366873
1,125,2,9,8,2,1,I,7,L,6,S,14,0.560436,0.759823,0.425832
1,126,8,9,9,2,0,I,1,S,7,L,12,0.782876,0.414258,0.324313
1,127,2,8,9,8,1,I,6,S,1,S,10,0.368967,0.774672,0.285828
1,128,1,9,9,1,1,I,8,L,8,L,13,0.549389,0.770981,0.423568
1,129,9,2,2,9,1,I,7,L,7,L,11,0.770049,0.470338,0.362184
1,130,2,1,8,9,1,I,1,S,1,S,11,0.783179,0.389593,0.305121
1,131,1,2,1,9,1,C,1,S,8,L,10,0.366354,0.775214,0.284003
1,132,2,8,9,2,1,I,6,S,7,L,13,0.529316,0.774634,0.410026
1,133,2,1,1,9,1,I,1,S,8,L,16,0.773361,0.604197,0.467262
1,134,1,8,9,8,1,I,7,L,1,S,9,0.350971,0.754134,0.264679
1,135,1,9,9,2,1,I,8,L,7,L,12,0.509375,0.764761,0.38955
1,136,8,2,1,8,1,I,6,S,7,L,14,0.776124,0.570029,0.442413
1,137,1,9,1,2,1,C,8,L,1,S,9,0.308691,0.792022,0.24449
1,138,8,1,2,1,1,C,7,L,1,S,9,0.811983,0.295916,0.240279
1,139,9,2,9,1,1,C,7,L,8,L,8,0.791447,0.270158,0.213816
1,140,8,9,1,2,1,C,1,S,1,S,13,0.417328,0.786383,0.32818
1,141,9,2,1,9,1,I,7,L,8,L,12,0.76889,0.528826,0.406609
1,142,2,9,2,8,1,C,7,L,6,S,9,0.323988,0.77125,0.249876
1,143,1,8,8,2,1,I,7,L,6,S,11,0.470492,0.763468,0.359206
1,144,9,1,1,2,1,I,8,L,1,S,10,0.79883,0.382614,0.305643
2,1,2,1,9,2,1,C,1,S,7,L,10,0.75315,0.373113,0.28101
2,2,1,8,8,9,1,C,7,L,1,S,9,0.316007,0.782311,0.247216
2,3,2,9,8,9,1,C,7,L,1,S,9,0.283686,0.827721,0.234813
2,4,9,2,9,1,1,C,7,L,8,L,9,0.825243,0.285819,0.235871
2,5,9,8,8,9,0,I,1,S,1,S,15,0.49832,0.761579,0.37951
2,6,9,8,9,2,1,C,1,S,7,L,11,0.780791,0.388054,0.302989
2,7,9,8,8,1,1,C,1,S,7,L,10,0.766852,0.375331,0.287823
2,8,1,8,8,1,1,I,7,L,7,L,14,0.571084,0.776692,0.443557
2,9,1,2,2,8,1,C,1,S,6,S,10,0.340871,0.791729,0.269878
2,10,9,8,1,9,0,I,1,S,8,L,11,0.402754,0.782742,0.315253
2,11,1,8,1,8,1,C,7,L,7,L,9,0.271385,0.841551,0.228384
2,12,2,1,2,1,1,C,1,S,1,S,11,0.76588,0.387076,0.296454
2,13,8,1,2,9,1,I,7,L,7,L,13,0.780027,0.54224,0.422962
2,14,1,9,1,9,1,C,8,L,8,L,8,0.233117,0.835885,0.194859
2,15,1,8,2,9,1,C,7,L,7,L,8,0.288547,0.75918,0.219059
2,16,8,2,9,1,1,C,6,S,8,L,8,0.755272,0.291126,0.219879
2,17,2,1,9,1,1,C,1,S,8,L,10,0.792406,0.345274,0.273597
2,18,2,8,2,8,1,C,6,S,6,S,9,0.319282,0.777729,0.248315
2,19,1,2,2,9,1,C,1,S,7,L,9,0.333166,0.759507,0.253042
2,20,8,2,9,8,1,C,6,S,1,S,10,0.797456,0.345714,0.275692
2,21,8,1,8,9,1,I,7,L,1,S,11,0.792511,0.421759,0.334249
2,22,8,9,1,9,1,C,1,S,8,L,9,0.331354,0.761935,0.252471
2,23,8,9,2,9,1,C,1,S,7,L,10,0.311503,0.831568,0.259036
2,24,8,2,9,2,1,C,6,S,7,L,9,0.830152,0.278786,0.231435
2,25,1,9,9,1,1,I,8,L,8,L,11,0.496807,0.759286,0.377218
2,26,2,9,1,8,1,C,7,L,7,L,8,0.278328,0.773928,0.215406
2,27,1,2,9,1,1,I,1,S,8,L,19,0.640854,0.758266,0.485938
2,28,8,9,8,2,1,I,1,S,6,S,20,0.628983,0.771326,0.485151
2,29,8,1,8,1,1,C,7,L,7,L,8,0.787162,0.267319,0.210423
2,30,9,8,9,1,1,C,1,S,8,L,10,0.759221,0.380107,0.288585
2,31,1,9,2,9,1,C,8,L,7,L,8,0.242804,0.821989,0.199582
2,32,8,9,2,8,1,C,1,S,6,S,10,0.352799,0.774483,0.273237
2,33,8,9,8,9,1,C,1,S,1,S,11,0.352542,0.808075,0.284881
2,34,9,2,9,8,1,C,7,L,1,S,10,0.751425,0.381657,0.286787
2,35,2,1,1,9,0,I,1,S,8,L,12,0.46044,0.762368,0.351025
2,36,1,2,8,2,1,I,1,S,6,S,18,0.632234,0.751773,0.475297
2,37,9,8,2,1,1,C,1,S,1,S,12,0.776129,0.409066,0.317488
2,38,8,2,8,2,1,C,6,S,6,S,9,0.839177,0.273021,0.229113
2,39,2,1,8,9,1,I,1,S,1,S,21,0.771859,0.619855,0.478441
2,40,2,8,9,8,1,I,6,S,1,S,11,0.378106,0.79861,0.301959
2,41,8,2,1,8,1,I,6,S,7,L,13,0.772222,0.536504,0.4143
2,42,2,9,1,9,1,C,7,L,8,L,8,0.250547,0.812619,0.203599
2,43,8,1,2,1,1,C,7,L,1,S,9,0.813869,0.290235,0.236213
2,44,2,1,9,8,1,C,1,S,1,S,14,0.806037,0.406373,0.327552
2,45,2,9,2,9,1,C,7,L,7,L,8,0.260233,0.798724,0.207855
2,46,8,1,1,2,1,I,7,L,1,S,10,0.79239,0.358754,0.284273
2,47,9,8,1,2,1,I,1,S,1,S,23,0.764838,0.6151,0.470452
2,48,9,1,1,9,1,I,8,L,8,L,14,0.762511,0.585783,0.446666
2,49,8,9,1,8,1,C,1,S,7,L,10,0.334182,0.800288,0.267442
2,50,1,9,1,2,1,C,8,L,1,S,9,0.301481,0.808191,0.243654
2,51,2,9,2,1,1,I,7,L,1,S,10,0.412724,0.758173,0.312916
2,52,2,8,2,1,1,I,6,S,1,S,13,0.496354,0.782261,0.388279
2,53,1,9,2,1,1,I,8,L,1,S,10,0.392546,0.784843,0.308087
2,54,9,1,1,8,1,I,8,L,7,L,13,0.768592,0.539923,0.414981
2,55,8,9,9,1,1,I,1,S,8,L,20,0.64713,0.755839,0.489126
2,56,2,8,2,9,1,C,6,S,7,L,9,0.282031,0.829205,0.233861
2,57,8,2,2,1,1,C,6,S,1,S,9,0.78418,0.313024,0.245468
2,58,2,8,1,9,1,C,6,S,8,L,9,0.27118,0.844722,0.229071
2,59,1,9,8,1,1,I,8,L,7,L,11,0.504642,0.754236,0.380619
2,60,9,1,2,9,1,I,8,L,7,L,14,0.774109,0.570777,0.441843
2,61,1,8,9,2,1,I,7,L,7,L,13,0.523635,0.782817,0.40991
2,62,9,2,2,1,1,C,7,L,1,S,10,0.836546,0.309462,0.258879
2,63,1,8,2,8,1,C,7,L,6,S,9,0.287861,0.818859,0.235717
2,64,8,1,9,1,1,C,7,L,8,L,8,0.780871,0.271063,0.211666
2,65,8,2,8,9,1,I,6,S,1,S,11,0.759345,0.447452,0.33977
2,66,2,1,1,2,1,I,1,S,1,S,17,0.771832,0.528841,0.408176
2,67,1,9,9,8,1,I,8,L,1,S,9,0.328087,0.781788,0.256494
2,68,1,2,1,8,1,C,1,S,7,L,10,0.322254,0.817533,0.263453
2,69,9,1,2,1,1,C,8,L,1,S,9,0.780816,0.316187,0.246884
2,70,8,2,8,1,1,C,6,S,7,L,8,0.761563,0.287381,0.218859
2,71,8,2,1,9,1,I,6,S,8,L,14,0.765905,0.582505,0.446144
2,72,2,1,8,2,1,C,1,S,6,S,10,0.763318,0.366533,0.279781
2,73,1,2,1,9,1,C,1,S,8,L,9,0.322315,0.775023,0.249802
2,74,1,9,8,2,1,I,8,L,6,S,11,0.466651,0.781623,0.364745
2,75,9,2,2,8,1,I,7,L,6,S,14,0.77462,0.549118,0.425358
2,76,9,2,8,1,1,C,7,L,7,L,9,0.832373,0.281477,0.234294
2,77,2,8,9,2,1,I,6,S,7,L,14,0.563433,0.763364,0.430104
2,78,1,9,1,8,1,C,8,L,7,L,8,0.260898,0.797193,0.207986
2,79,9,1,9,2,1,C,8,L,7,L,9,0.826788,0.281949,0.233112
2,80,9,1,9,1,1,C,8,L,8,L,8,0.752442,0.293942,0.221174
2,81,1,9,9,2,1,I,8,L,7,L,11,0.455806,0.788783,0.359532
2,82,1,8,9,8,1,I,7,L,1,S,10,0.362717,0.78143,0.283438
2,83,9,1,8,9,1,I,8,L,1,S,11,0.75552,0.450946,0.340699
2,84,1,9,8,9,1,C,8,L,1,S,8,0.297006,0.75073,0.222971
2,85,2,8,8,9,1,C,6,S,1,S,10,0.312146,0.833387,0.260139
2,86,2,8,8,2,1,I,6,S,6,S,14,0.574158,0.755751,0.43392
2,87,8,2,2,8,1,I,6,S,6,S,12,0.760063,0.504497,0.38345
2,88,9,8,8,2,1,C,1,S,6,S,11,0.791636,0.380894,0.301529
2,89,9,1,8,1,1,C,8,L,7,L,8,0.758733,0.290197,0.220182
2,90,2,1,1,8,1,I,1,S,7,L,22,0.752479,0.654481,0.492483
2,91,1,2,8,1,1,I,1,S,7,L,19,0.646537,0.754132,0.487574
2,92,8,1,9,2,1,C,7,L,7,L,8,0.750514,0.292712,0.219684
2,93,2,9,9,2,1,I,7,L,7,L,11,0.476404,0.762056,0.363046
2,94,1,2,9,2,1,I,1,S,7,L,18,0.62361,0.758293,0.472879
2,95,9,1,8,2,1,C,8,L,6,S,9,0.835813,0.276184,0.230838
2,96,1,8,1,9,1,C,7,L,8,L,8,0.278861,0.773076,0.215581
2,97,2,9,1,2,1,C,7,L,1,S,9,0.320629,0.782588,0.25092
2,98,8,9,9,2,1,I,1,S,7,L,19,0.633365,0.754722,0.478015
2,99,9,8,2,9,0,I,1,S,7,L,11,0.414766,0.766162,0.317778
2,100,2,8,1,2,1,C,6,S,1,S,10,0.360643,0.772555,0.278617
2,101,2,8,9,1,1,I,6,S,8,L,15,0.598319,0.761855,0.455832
2,102,8,2,2,9,1,I,6,S,7,L,14,0.777503,0.567499,0.441232
2,103,8,1,8,2,1,C,7,L,6,S,8,0.75799,0.287964,0.218274
2,104,9,2,8,2,1,C,7,L,6,S,9,0.798563,0.305265,0.243773
2,105,2,8,1,8,1,C,6,S,7,L,9,0.302807,0.800421,0.242373
2,106,2,9,9,8,1,I,7,L,1,S,9,0.347235,0.756185,0.262574
2,107,2,9,8,2,1,I,7,L,6,S,11,0.487249,0.754896,0.367822
2,108,2,9,2,8,1,C,7,L,6,S,8,0.292095,0.755385,0.220644
2,109,9,8,2,8,0,I,1,S,6,S,13,0.451511,0.775212,0.350017
2,110,8,2,1,2,1,I,6,S,1,S,10,0.760211,0.383414,0.291476
2,111,9,2,1,8,1,I,7,L,7,L,14,0.753708,0.576313,0.434372
2,112,2,8,8,1,1,I,6,S,7,L,15,0.605359,0.756875,0.458181
2,113,9,1,2,8,1,I,8,L,6,S,12,0.756276,0.507995,0.384184
2,114,1,8,1,2,1,C,7,L,1,S,10,0.325473,0.81913,0.266605
2,115,1,9,2,8,1,C,8,L,6,S,8,0.274665,0.77865,0.213868
2,116,8,9,9,8,1,I,1,S,1,S,13,0.431113,0.77288,0.333199
2,117,1,8,2,1,1,I,7,L,1,S,11,0.4517,0.756482,0.341703
2,118,9,2,9,2,1,C,7,L,7,L,9,0.789538,0.311029,0.24557
2,119,8,1,2,8,1,I,7,L,6,S,11,0.754894,0.472414,0.356623
2,120,1,2,9,8,1,I,1,S,1,S,13,0.411623,0.801203,0.329794
2,121,1,2,2,1,1,I,1,S,1,S,16,0.581149,0.753829,0.438086
2,122,9,2,2,9,1,I,7,L,7,L,15,0.75863,0.602165,0.456821
2,123,8,9,1,2,1,C,1,S,1,S,12,0.381167,0.797013,0.303795
2,124,8,1,9,8,1,C,7,L,1,S,9,0.751458,0.344826,0.259122
2,125,1,8,9,1,1,I,7,L,8,L,13,0.564003,0.752538,0.424434
2,126,2,9,9,1,1,I,7,L,8,L,12,0.523839,0.769416,0.40305
2,127,9,2,1,2,1,I,7,L,1,S,11,0.770948,0.407683,0.314302
2,128,9,8,1,8,0,I,1,S,7,L,12,0.433812,0.772174,0.334979
2,129,2,9,8,1,1,I,7,L,7,L,12,0.531654,0.764234,0.406308
2,130,9,8,9,8,1,C,1,S,1,S,16,0.797333,0.431611,0.344138
2,131,8,9,8,1,1,I,1,S,7,L,20,0.652516,0.751928,0.490645
2,132,2,1,8,1,1,C,1,S,7,L,10,0.800037,0.340497,0.27241
2,133,8,1,1,9,1,I,7,L,8,L,13,0.76809,0.557998,0.428592
2,134,8,9,2,1,1,I,1,S,1,S,18,0.592629,0.773017,0.458113
2,135,1,2,8,9,1,C,1,S,1,S,11,0.337724,0.829619,0.280182
2,136,9,1,9,8,1,C,8,L,1,S,10,0.793761,0.349102,0.277103
2,137,2,1,2,8,1,I,1,S,6,S,22,0.765361,0.639327,0.489316
2,138,1,2,1,2,1,C,1,S,1,S,11,0.398429,0.751501,0.29942
2,139,9,2,8,9,1,I,7,L,1,S,12,0.750596,0.489513,0.367427
2,140,8,1,1,8,1,I,7,L,7,L,12,0.772113,0.506851,0.391346
2,141,2,1,2,9,0,I,1,S,7,L,13,0.488253,0.762408,0.372248
2,142,1,8,8,2,1,I,7,L,6,S,13,0.534663,0.775173,0.414456
2,143,9,2,1,9,1,I,7,L,8,L,16,0.773579,0.609215,0.471276
2,144,9,1,1,2,1,I,8,L,1,S,10,0.756516,0.386802,0.292622
3,1,9,2,1,9,1,I,7,L,8,L,13,0.777153,0.53026,0.412093
3,2,1,2,1,2,1,C,1,S,1,S,12,0.360352,0.821555,0.296049
3,3,9,2,8,9,1,I,7,L,1,S,10,0.795516,0.34677,0.275861
3,4,2,9,2,8,1,C,7,L,6,S,9,0.294769,0.812123,0.239389
3,5,1,9,8,1,1,I,8,L,7,L,13,0.542155,0.779034,0.422357
3,6,9,1,9,1,1,C,8,L,8,L,8,0.793899,0.263361,0.209082
3,7,2,9,1,9,1,C,7,L,8,L,9,0.28762,0.821612,0.236312
3,8,2,1,9,1,1,C,1,S,8,L,10,0.821845,0.327577,0.269217
3,9,2,8,9,1,1,I,6,S,8,L,16,0.608614,0.772666,0.470256
3,10,2,9,8,2,1,I,7,L,6,S,13,0.535829,0.766524,0.410726
3,11,9,1,8,1,1,C,8,L,7,L,8,0.779095,0.274471,0.213839
3,12,2,8,2,1,1,I,6,S,1,S,12,0.439098,0.785242,0.344798
3,13,9,8,1,2,1,I,1,S,1,S,15,0.774771,0.509161,0.394483
3,14,1,2,2,1,1,I,1,S,1,S,16,0.537954,0.769462,0.413935
3,15,1,8,2,9,1,C,7,L,7,L,9,0.265236,0.846578,0.224543
3,16,2,9,9,1,1,I,7,L,8,L,15,0.593758,0.774821,0.460056
3,17,1,9,2,8,1,C,8,L,6,S,9,0.259146,0.856473,0.221952
3,18,8,9,1,9,1,C,1,S,8,L,11,0.387414,0.781033,0.302583
3,19,8,1,2,9,1,I,7,L,7,L,13,0.776115,0.534993,0.415216
3,20,1,8,8,1,1,I,7,L,7,L,13,0.556899,0.758942,0.422654
3,21,9,1,2,1,1,C,8,L,1,S,9,0.782745,0.316748,0.247933
3,22,2,8,8,2,1,I,6,S,6,S,14,0.559456,0.766506,0.428826
3,23,9,1,2,9,1,I,8,L,7,L,12,0.771617,0.508513,0.392377
3,24,9,2,9,1,1,C,7,L,8,L,8,0.774204,0.274317,0.212377
3,25,1,8,1,9,1,C,7,L,8,L,9,0.264419,0.84772,0.224154
3,26,8,2,1,2,1,I,6,S,1,S,11,0.775989,0.409969,0.318131
3,27,9,8,9,2,1,C,1,S,7,L,10,0.812982,0.325531,0.264651
3,28,8,2,1,9,1,I,6,S,8,L,14,0.773377,0.557887,0.431457
3,29,9,8,2,9,1,I,1,S,7,L,19,0.757285,0.633698,0.47989
3,30,9,1,1,9,1,I,8,L,8,L,12,0.770622,0.509862,0.392911
3,31,9,8,1,8,1,I,1,S,7,L,19,0.76211,0.628218,0.478771
3,32,1,2,1,8,1,C,1,S,7,L,10,0.339598,0.789641,0.268161
3,33,9,8,9,1,1,C,1,S,8,L,9,0.762767,0.330273,0.251921
3,34,1,9,9,8,1,I,8,L,1,S,10,0.402938,0.754315,0.303942
3,35,8,9,9,2,0,I,1,S,7,L,11,0.750352,0.42096,0.315868
3,36,1,8,9,1,1,I,7,L,8,L,14,0.572965,0.774756,0.443908
3,37,8,9,8,1,0,I,1,S,7,L,11,0.770504,0.405892,0.312741
3,38,8,9,2,8,1,C,1,S,6,S,11,0.395849,0.769827,0.304735
3,39,9,8,2,1,1,C,1,S,1,S,11,0.770408,0.380039,0.292785
3,40,9,2,2,9,1,I,7,L,7,L,13,0.778151,0.528935,0.411592
3,41,1,8,8,2,1,I,7,L,6,S,12,0.505576,0.763001,0.385755
3,42,2,8,9,2,1,I,6,S,7,L,15,0.583177,0.773093,0.45085
3,43,9,2,2,1,1,C,7,L,1,S,9,0.759947,0.329828,0.250652
3,44,1,2,9,1,1,I,1,S,8,L,21,0.644835,0.764617,0.493052
3,45,1,8,9,2,1,I,7,L,7,L,13,0.537402,0.774126,0.416017
3,46,9,2,9,2,1,C,7,L,7,L,9,0.852786,0.260612,0.222246
3,47,2,1,2,9,1,I,1,S,7,L,21,0.760366,0.647533,0.492362
3,48,1,2,8,2,1,I,1,S,6,S,19,0.631784,0.754219,0.476503
3,49,8,1,2,8,1,I,7,L,6,S,12,0.750498,0.521654,0.3915
3,50,1,8,1,8,1,C,7,L,7,L,9,0.270688,0.839449,0.227229
3,51,1,2,9,2,1,I,1,S,7,L,20,0.637291,0.761391,0.485228
3,52,8,1,9,8,1,C,7,L,1,S,9,0.767765,0.328746,0.2524
3,53,2,8,1,9,1,C,6,S,8,L,9,0.304453,0.798049,0.242969
3,54,1,2,1,9,1,C,1,S,8,L,10,0.332653,0.798877,0.265749
3,55,2,1,1,2,1,I,1,S,1,S,17,0.770623,0.556227,0.428641
3,56,9,8,2,8,1,I,1,S,6,S,19,0.762954,0.627206,0.478529
3,57,2,8,8,9,1,C,6,S,1,S,11,0.369329,0.806446,0.297844
3,58,9,2,1,8,1,I,7,L,7,L,12,0.752061,0.51652,0.388454
3,59,8,9,8,9,1,C,1,S,1,S,18,0.476931,0.756934,0.361005
3,60,2,8,2,8,1,C,6,S,6,S,9,0.311602,0.788561,0.245717
3,61,9,1,1,2,1,I,8,L,1,S,10,0.779244,0.377215,0.293943
3,62,8,2,2,1,1,C,6,S,1,S,10,0.816776,0.321816,0.262852
3,63,2,9,2,9,1,C,7,L,7,L,9,0.288437,0.82047,0.236654
3,64,9,1,1,8,1,I,8,L,7,L,12,0.778195,0.500007,0.389103
3,65,1,9,1,8,1,C,8,L,7,L,9,0.258267,0.857691,0.221513
3,66,8,2,2,8,1,I,6,S,6,S,13,0.752287,0.546118,0.410837
3,67,2,1,1,8,1,I,1,S,7,L,21,0.76448,0.642955,0.491526
3,68,8,1,1,2,1,I,7,L,1,S,10,0.751029,0.39928,0.299871
3,69,2,9,1,8,1,C,7,L,7,L,9,0.293889,0.813341,0.239032
3,70,8,1,9,1,1,C,7,L,8,L,8,0.771417,0.28141,0.217084
3,71,9,8,9,8,1,C,1,S,1,S,11,0.789394,0.366068,0.288972
3,72,1,2,9,8,1,I,1,S,1,S,17,0.564838,0.772623,0.436407
3,73,1,2,8,1,1,I,1,S,7,L,20,0.649233,0.751097,0.487637
3,74,8,1,2,1,1,C,7,L,1,S,9,0.756682,0.337194,0.255149
3,75,8,1,1,9,1,I,7,L,8,L,13,0.775117,0.536318,0.415709
3,76,2,9,8,9,1,C,7,L,1,S,10,0.373175,0.766756,0.286134
3,77,2,1,8,2,1,C,1,S,6,S,10,0.758682,0.3748,0.284354
3,78,8,2,9,2,1,C,6,S,7,L,9,0.823629,0.283441,0.23345
3,79,2,1,9,8,1,C,1,S,1,S,11,0.752382,0.401821,0.302322
3,80,8,9,2,9,1,C,1,S,7,L,11,0.38838,0.779699,0.30282
3,81,2,9,9,2,1,I,7,L,7,L,14,0.563577,0.774932,0.436734
3,82,1,8,1,2,1,C,7,L,1,S,9,0.33827,0.753949,0.255038
3,83,9,8,1,9,1,I,1,S,8,L,19,0.756532,0.634603,0.480098
3,84,8,9,9,8,0,I,1,S,1,S,15,0.759137,0.482841,0.366543
3,85,2,1,9,2,1,C,1,S,7,L,10,0.784741,0.355181,0.278725
3,86,2,9,9,8,1,I,7,L,1,S,11,0.441007,0.755278,0.333083
3,87,9,1,2,8,1,I,8,L,6,S,12,0.779294,0.498516,0.388491
3,88,8,9,9,1,0,I,1,S,8,L,11,0.788322,0.392285,0.309247
3,89,2,8,8,1,1,I,6,S,7,L,15,0.600686,0.758886,0.455853
3,90,1,9,2,9,1,C,8,L,7,L,8,0.290248,0.754378,0.218957
3,91,1,9,1,2,1,C,8,L,1,S,9,0.325848,0.772191,0.251617
3,92,8,1,1,8,1,I,7,L,7,L,13,0.782692,0.526654,0.412208
3,93,2,1,8,1,1,C,1,S,7,L,10,0.804257,0.340787,0.27408
3,94,9,2,8,1,1,C,7,L,7,L,8,0.7594,0.285427,0.216753
3,95,2,1,8,9,1,I,1,S,1,S,13,0.752819,0.446627,0.33623
3,96,2,8,9,8,1,I,6,S,1,S,12,0.461997,0.768656,0.355117
3,97,8,2,8,2,1,C,6,S,6,S,9,0.80046,0.301045,0.240975
3,98,8,2,9,8,1,C,6,S,1,S,10,0.831651,0.310654,0.258356
3,99,2,1,1,9,1,I,1,S,8,L,21,0.759716,0.648307,0.492529
3,100,1,9,1,9,1,C,8,L,8,L,8,0.289552,0.755337,0.218709
3,101,8,1,8,9,1,I,7,L,1,S,10,0.792151,0.354111,0.280509
3,102,8,2,2,9,1,I,6,S,7,L,14,0.774358,0.556613,0.431018
3,103,2,1,2,8,1,I,1,S,6,S,21,0.765207,0.642094,0.491335
3,104,8,9,1,8,1,C,1,S,7,L,11,0.394788,0.771289,0.304496
3,105,8,1,8,1,1,C,7,L,7,L,8,0.756613,0.292519,0.221324
3,106,1,8,2,8,1,C,7,L,6,S,9,0.271568,0.838232,0.227637
3,107,9,2,9,8,1,C,7,L,1,S,9,0.77103,0.32138,0.247794
3,108,2,8,1,8,1,C,6,S,7,L,9,0.310722,0.789779,0.245402
3,109,1,8,8,9,1,C,7,L,1,S,10,0.348031,0.795707,0.27693
3,110,9,2,1,2,1,I,7,L,1,S,10,0.754394,0.391939,0.295676
3,111,8,2,9,1,1,C,6,S,8,L,9,0.858241,0.257825,0.221276
3,112,8,9,8,2,0,I,1,S,6,S,12,0.764735,0.432961,0.3311
3,113,8,9,2,1,0,I,1,S,1,S,17,0.76306,0.507607,0.387335
3,114,1,9,9,1,1,I,8,L,8,L,13,0.558993,0.765622,0.427977
3,115,2,9,8,1,1,I,7,L,7,L,14,0.582171,0.760141,0.442532
3,116,9,1,8,9,1,I,8,L,1,S,10,0.820366,0.332046,0.272399
3,117,2,1,2,1,1,C,1,S,1,S,12,0.802821,0.381763,0.306488
3,118,9,8,8,9,1,I,1,S,1,S,13,0.805052,0.400892,0.322739
3,119,1,2,2,9,1,C,1,S,7,L,10,0.33356,0.797609,0.266051
3,120,9,8,8,2,1,C,1,S,6,S,10,0.786922,0.34515,0.271606
3,121,1,9,8,9,1,C,8,L,1,S,10,0.334379,0.815541,0.2727
3,122,8,1,8,2,1,C,7,L,6,S,9,0.826352,0.285582,0.235992
3,123,8,2,8,9,1,I,6,S,1,S,10,0.763092,0.37188,0.283779
3,124,2,9,2,1,1,I,7,L,1,S,11,0.422021,0.769248,0.324639
3,125,8,2,1,8,1,I,6,S,7,L,13,0.751178,0.547591,0.411338
3,126,9,1,8,2,1,C,8,L,6,S,9,0.852415,0.265137,0.226006
3,127,1,8,9,8,1,I,7,L,1,S,11,0.414812,0.78552,0.325843
3,128,9,1,9,8,1,C,8,L,1,S,9,0.793828,0.308301,0.244738
3,129,9,2,2,8,1,I,7,L,6,S,12,0.753161,0.515028,0.387899
3,130,1,9,8,2,1,I,8,L,6,S,12,0.490822,0.783574,0.384596
3,131,1,9,2,1,1,I,8,L,1,S,10,0.388062,0.765478,0.297053
3,132,2,8,1,2,1,C,6,S,1,S,10,0.35136,0.784736,0.275725
3,133,2,9,1,2,1,C,7,L,1,S,10,0.332052,0.811925,0.269602
3,134,8,2,8,1,1,C,6,S,7,L,9,0.841613,0.270215,0.227416
3,135,9,8,8,1,1,C,1,S,7,L,10,0.832497,0.311136,0.25902
3,136,8,1,9,2,1,C,7,L,7,L,9,0.849521,0.267978,0.227653
3,137,1,2,2,8,1,C,1,S,6,S,10,0.340586,0.788268,0.268473
3,138,9,1,9,2,1,C,8,L,7,L,8,0.763592,0.286027,0.218408
3,139,9,2,8,2,1,C,7,L,6,S,9,0.829618,0.278216,0.230813
3,140,8,9,1,2,1,C,1,S,1,S,14,0.430262,0.78076,0.335931
3,141,2,8,2,9,1,C,6,S,7,L,9,0.30527,0.796908,0.243272
3,142,1,2,8,9,1,C,1,S,1,S,13,0.408536,0.791388,0.323311
3,143,1,9,9,2,1,I,8,L,7,L,12,0.518906,0.762012,0.395413
3,144,1,8,2,1,1,I,7,L,1,S,11,0.395826,0.799491,0.316459
4,1,1,2,2,1,1,I,1,S,1,S,12,0.419209,0.794827,0.333198
4,2,9,2,9,1,1,C,7,L,8,L,9,0.819848,0.291433,0.238931
4,3,2,9,1,2,1,C,7,L,1,S,9,0.293888,0.805691,0.236783
4,4,8,9,2,8,1,C,1,S,6,S,10,0.315331,0.825683,0.260364
4,5,9,1,9,2,1,C,8,L,7,L,9,0.839998,0.274187,0.230316
4,6,2,8,8,1,1,I,6,S,7,L,14,0.592441,0.754289,0.446872
4,7,9,1,1,9,1,I,8,L,8,L,13,0.758627,0.570243,0.432602
4,8,9,2,1,9,1,I,7,L,8,L,16,0.768472,0.615269,0.472817
4,9,1,9,2,8,1,C,8,L,6,S,8,0.268071,0.788585,0.211397
4,10,8,1,9,1,1,C,7,L,8,L,8,0.751875,0.294504,0.22143
4,11,2,1,1,8,1,I,1,S,7,L,21,0.764736,0.644488,0.492864
4,12,9,8,8,9,0,I,1,S,1,S,21,0.510961,0.763473,0.390105
4,13,1,9,9,8,1,I,8,L,1,S,9,0.34447,0.7662,0.263933
4,14,2,8,1,9,1,C,6,S,8,L,8,0.289141,0.762256,0.2204
4,15,2,1,2,9,1,I,1,S,7,L,21,0.76079,0.649371,0.494035
4,16,2,8,1,2,1,C,6,S,1,S,9,0.318578,0.776505,0.247377
4,17,2,8,9,2,1,I,6,S,7,L,13,0.524625,0.7753,0.406742
4,18,2,1,9,8,1,C,1,S,1,S,12,0.765497,0.410918,0.314556
4,19,1,8,2,1,1,I,7,L,1,S,10,0.360299,0.800412,0.288388
4,20,9,1,9,1,1,C,8,L,8,L,8,0.77186,0.282143,0.217775
4,21,2,9,9,8,1,I,7,L,1,S,10,0.364624,0.784533,0.286059
4,22,9,1,9,8,1,C,8,L,1,S,9,0.752887,0.347392,0.261547
4,23,9,2,8,2,1,C,7,L,6,S,9,0.796032,0.307262,0.24459
4,24,8,2,1,8,1,I,6,S,7,L,17,0.768777,0.616669,0.474081
4,25,9,8,8,2,1,C,1,S,6,S,11,0.767213,0.406396,0.311792
4,26,2,9,2,1,1,I,7,L,1,S,10,0.378673,0.76831,0.290938
4,27,9,8,9,1,1,C,1,S,8,L,11,0.794351,0.387763,0.30802
4,28,1,9,8,9,1,C,8,L,1,S,9,0.321548,0.788108,0.253414
4,29,9,1,8,9,1,I,8,L,1,S,10,0.801946,0.351642,0.281998
4,30,9,8,2,1,1,C,1,S,1,S,15,0.762086,0.463297,0.353072
4,31,1,9,9,2,1,I,8,L,7,L,11,0.448312,0.790764,0.354509
4,32,1,8,8,2,1,I,7,L,6,S,11,0.493052,0.750549,0.37006
4,33,8,9,8,2,1,I,1,S,6,S,18,0.620608,0.764423,0.474407
4,34,2,9,1,9,1,C,7,L,8,L,8,0.267468,0.786843,0.210455
4,35,8,9,1,2,1,C,1,S,1,S,10,0.352859,0.770332,0.271818
4,36,1,2,8,1,1,I,1,S,7,L,16,0.616673,0.762496,0.470211
4,37,2,8,9,8,1,I,6,S,1,S,10,0.391392,0.752385,0.294477
4,38,2,1,8,2,1,C,1,S,6,S,10,0.788542,0.3448,0.271889
4,39,2,8,8,2,1,I,6,S,6,S,13,0.551124,0.755267,0.416246
4,40,8,1,9,2,1,C,7,L,7,L,9,0.816606,0.288851,0.235877
4,41,1,8,8,9,1,C,7,L,1,S,9,0.33929,0.767683,0.260467
4,42,9,2,8,9,1,I,7,L,1,S,11,0.790925,0.387525,0.306504
4,43,8,2,2,8,1,I,6,S,6,S,16,0.761019,0.603762,0.459474
4,44,9,2,2,8,1,I,7,L,6,S,14,0.751119,0.578818,0.434761
4,45,2,1,9,1,1,C,1,S,8,L,10,0.814595,0.327263,0.266587
4,46,1,8,1,9,1,C,7,L,8,L,8,0.253799,0.812775,0.206281
4,47,8,2,2,1,1,C,6,S,1,S,11,0.813605,0.352236,0.286581
4,48,9,2,2,9,1,I,7,L,7,L,15,0.754904,0.606559,0.457894
4,49,1,2,9,2,1,I,1,S,7,L,14,0.562186,0.757088,0.425624
4,50,2,8,8,9,1,C,6,S,1,S,10,0.358878,0.783565,0.281204
4,51,1,2,1,9,1,C,1,S,8,L,9,0.278775,0.834966,0.232767
4,52,2,9,9,1,1,I,7,L,8,L,13,0.550042,0.768332,0.422615
4,53,1,8,1,2,1,C,7,L,1,S,9,0.27756,0.835383,0.231869
4,54,9,2,9,8,1,C,7,L,1,S,10,0.760908,0.374951,0.285303
4,55,8,2,9,2,1,C,6,S,7,L,10,0.836467,0.308441,0.258001
4,56,1,8,9,2,1,I,7,L,7,L,11,0.466919,0.769627,0.359353
4,57,1,9,8,2,1,I,8,L,6,S,11,0.474444,0.771686,0.366122
4,58,9,2,2,1,1,C,7,L,1,S,10,0.774957,0.358728,0.277999
4,59,9,1,8,1,1,C,8,L,7,L,8,0.785696,0.272288,0.213935
4,60,8,2,8,9,1,I,6,S,1,S,12,0.804993,0.396467,0.319153
4,61,9,8,2,8,0,I,1,S,6,S,11,0.414597,0.759392,0.314842
4,62,9,1,2,8,1,I,8,L,6,S,12,0.765481,0.514957,0.39419
4,63,1,9,2,9,1,C,8,L,7,L,8,0.249014,0.814989,0.202944
4,64,1,9,9,1,1,I,8,L,8,L,11,0.501582,0.753053,0.377718
4,65,8,1,1,9,1,I,7,L,8,L,14,0.761965,0.587172,0.447405
4,66,2,9,2,9,1,C,7,L,7,L,8,0.279062,0.770565,0.215036
4,67,2,9,2,8,1,C,7,L,6,S,9,0.261778,0.852974,0.223289
4,68,2,1,9,2,1,C,1,S,7,L,10,0.764132,0.362509,0.277005
4,69,8,1,2,9,1,I,7,L,7,L,14,0.775568,0.569863,0.441967
4,70,1,9,1,2,1,C,8,L,1,S,8,0.293894,0.75092,0.220691
4,71,1,8,1,8,1,C,7,L,7,L,8,0.270028,0.789768,0.213259
4,72,8,1,8,1,1,C,7,L,7,L,8,0.76571,0.284649,0.217958
4,73,9,1,2,1,1,C,8,L,1,S,9,0.762419,0.335052,0.25545
4,74,1,9,2,1,1,I,8,L,1,S,9,0.354002,0.753861,0.266868
4,75,1,2,8,9,1,C,1,S,1,S,11,0.363587,0.810127,0.294552
4,76,8,9,9,2,1,I,1,S,7,L,17,0.609073,0.757318,0.461262
4,77,8,1,1,2,1,I,7,L,1,S,12,0.782861,0.469133,0.367266
4,78,8,2,9,1,1,C,6,S,8,L,9,0.788592,0.312811,0.24668
4,79,9,2,1,2,1,I,7,L,1,S,13,0.766003,0.513952,0.393689
4,80,9,2,9,2,1,C,7,L,7,L,9,0.774535,0.322972,0.250153
4,81,1,9,1,8,1,C,8,L,7,L,8,0.253648,0.808261,0.205014
4,82,8,9,1,9,1,C,1,S,8,L,9,0.313619,0.785537,0.246359
4,83,1,2,2,8,1,C,1,S,6,S,9,0.313628,0.786167,0.246564
4,84,1,2,9,8,1,I,1,S,1,S,11,0.408961,0.766621,0.313518
4,85,2,1,8,1,1,C,1,S,7,L,10,0.831139,0.315355,0.262104
4,86,9,8,9,8,1,C,1,S,1,S,17,0.78783,0.457185,0.360184
4,87,1,8,8,1,1,I,7,L,7,L,12,0.542908,0.756726,0.410832
4,88,9,8,1,2,0,I,1,S,1,S,13,0.428319,0.785767,0.336559
4,89,8,9,2,9,1,C,1,S,7,L,9,0.32654,0.767419,0.250593
4,90,1,9,1,9,1,C,8,L,8,L,8,0.237419,0.831268,0.197359
4,91,9,1,2,9,1,I,8,L,7,L,13,0.772658,0.552029,0.42653
4,92,1,9,8,1,1,I,8,L,7,L,12,0.524592,0.777134,0.407678
4,93,2,8,1,8,1,C,6,S,7,L,9,0.269812,0.846813,0.228481
4,94,8,2,2,9,1,I,6,S,7,L,17,0.763668,0.623091,0.475835
4,95,8,9,1,8,1,C,1,S,7,L,9,0.331817,0.759763,0.252102
4,96,9,8,1,8,0,I,1,S,7,L,11,0.395356,0.785569,0.310579
4,97,8,1,8,9,1,I,7,L,1,S,10,0.776275,0.368063,0.285718
4,98,8,9,8,1,1,I,1,S,7,L,19,0.639908,0.762834,0.488143
4,99,9,2,1,8,1,I,7,L,7,L,15,0.760565,0.599254,0.455771
4,100,9,8,2,9,0,I,1,S,7,L,11,0.389379,0.793961,0.309152
4,101,1,8,2,9,1,C,7,L,7,L,8,0.265394,0.796496,0.211385
4,102,2,8,2,8,1,C,6,S,6,S,9,0.286467,0.823787,0.235988
4,103,8,9,9,1,1,I,1,S,8,L,19,0.62904,0.771854,0.485527
4,104,8,2,1,9,1,I,6,S,8,L,17,0.751989,0.63733,0.479266
4,105,2,9,9,2,1,I,7,L,7,L,12,0.492869,0.774693,0.381822
4,106,2,9,8,1,1,I,7,L,7,L,13,0.566074,0.756046,0.427978
4,107,2,1,1,9,1,I,1,S,8,L,21,0.751825,0.660116,0.496292
4,108,8,2,8,2,1,C,6,S,6,S,9,0.764776,0.328641,0.251337
4,109,8,2,9,8,1,C,6,S,1,S,11,0.79379,0.373103,0.296165
4,110,2,1,2,1,1,C,1,S,1,S,12,0.79229,0.384793,0.304868
4,111,2,1,2,8,1,I,1,S,6,S,20,0.754907,0.643501,0.485783
4,112,1,2,1,2,1,C,1,S,1,S,10,0.310125,0.831615,0.257905
4,113,8,1,2,8,1,I,7,L,6,S,13,0.771619,0.53678,0.41419
4,114,9,8,1,9,0,I,1,S,8,L,10,0.388063,0.759993,0.294925
4,115,9,1,1,2,1,I,8,L,1,S,11,0.769303,0.447579,0.344324
4,116,9,8,9,2,1,C,1,S,7,L,12,0.790819,0.408648,0.323167
4,117,9,1,1,8,1,I,8,L,7,L,13,0.77868,0.543949,0.423562
4,118,1,2,9,1,1,I,1,S,8,L,16,0.603208,0.773379,0.466509
4,119,1,8,2,8,1,C,7,L,6,S,8,0.284451,0.770092,0.219053
4,120,1,8,9,1,1,I,7,L,8,L,12,0.52631,0.76917,0.404822
4,121,8,1,2,1,1,C,7,L,1,S,10,0.822839,0.32066,0.263851
4,122,2,8,2,1,1,I,6,S,1,S,11,0.394667,0.793153,0.313032
4,123,8,2,1,2,1,I,6,S,1,S,14,0.751044,0.548423,0.41189
4,124,8,9,9,8,1,I,1,S,1,S,13,0.433627,0.788331,0.341841
4,125,8,1,9,8,1,C,7,L,1,S,10,0.808789,0.336882,0.272467
4,126,1,2,1,8,1,C,1,S,7,L,9,0.296973,0.809193,0.240308
4,127,8,9,8,9,1,C,1,S,1,S,12,0.384607,0.802485,0.308642
4,128,8,1,8,2,1,C,7,L,6,S,9,0.838102,0.273142,0.228921
4,129,9,2,8,1,1,C,7,L,7,L,9,0.835434,0.280344,0.234209
4,130,2,1,1,2,1,I,1,S,1,S,19,0.768207,0.609162,0.467963
4,131,1,8,9,8,1,I,7,L,1,S,10,0.34625,0.816635,0.282759
4,132,8,1,1,8,1,I,7,L,7,L,13,0.752043,0.562347,0.422909
4,133,8,9,2,1,1,I,1,S,1,S,13,0.468239,0.756672,0.354303
4,134,1,2,2,9,1,C,1,S,7,L,9,0.291696,0.816849,0.238271
4,135,2,9,8,2,1,I,7,L,6,S,12,0.519622,0.754865,0.392244
4,136,9,8,8,1,1,C,1,S,7,L,10,0.756037,0.390103,0.294932
4,137,8,2,8,1,1,C,6,S,7,L,9,0.804178,0.301723,0.242639
4,138,9,1,8,2,1,C,8,L,6,S,8,0.751458,0.295679,0.22219
4,139,2,9,1,8,1,C,7,L,7,L,8,0.283696,0.763836,0.216697
4,140,1,2,8,2,1,I,1,S,6,S,15,0.585005,0.765602,0.447881
4,141,2,8,9,1,1,I,6,S,8,L,14,0.577182,0.766224,0.442251
4,142,2,8,2,9,1,C,6,S,7,L,9,0.264536,0.854469,0.226037
4,143,2,1,8,9,1,I,1,S,1,S,14,0.791839,0.436598,0.345715
4,144,2,9,8,9,1,C,7,L,1,S,10,0.332109,0.815713,0.270906
5,1,1,8,9,1,1,I,7,L,8,L,13,0.55494,0.778525,0.432035
5,2,8,9,2,1,1,I,1,S,1,S,14,0.505774,0.782048,0.395539
5,3,1,9,2,1,1,I,8,L,1,S,10,0.367188,0.806838,0.296261
5,4,9,2,2,8,1,I,7,L,6,S,12,0.753858,0.510288,0.384685
5,5,8,9,8,2,1,I,1,S,6,S,17,0.609164,0.77273,0.470719
5,6,8,1,9,2,1,C,7,L,7,L,8,0.781397,0.273645,0.213825
5,7,9,2,9,1,1,C,7,L,8,L,8,0.776064,0.277537,0.215387
5,8,2,1,9,2,1,C,1,S,7,L,9,0.809714,0.297446,0.240846
5,9,2,8,9,2,1,I,6,S,7,L,15,0.605344,0.758376,0.459078
5,10,1,9,9,8,1,I,8,L,1,S,10,0.3876,0.793604,0.307601
5,11,1,2,9,1,1,I,1,S,8,L,20,0.639791,0.769958,0.492612
5,12,2,9,9,1,1,I,7,L,8,L,13,0.577868,0.751295,0.434149
5,13,8,9,1,8,1,C,1,S,7,L,9,0.316007,0.783142,0.247478
5,14,8,1,2,9,1,I,7,L,7,L,12,0.767931,0.509228,0.391052
5,15,8,9,8,1,1,I,1,S,7,L,17,0.625042,0.759743,0.474871
5,16,2,9,9,2,1,I,7,L,7,L,13,0.562048,0.763466,0.429105
5,17,8,9,1,9,1,C,1,S,8,L,9,0.309163,0.794534,0.24564
5,18,9,2,1,8,1,I,7,L,7,L,13,0.75334,0.561062,0.422671
5,19,1,9,9,1,1,I,8,L,8,L,12,0.525404,0.783258,0.411527
5,20,2,1,9,8,1,C,1,S,1,S,10,0.806138,0.331898,0.267556
5,21,8,2,9,2,1,C,6,S,7,L,9,0.847781,0.266259,0.22573
5,22,2,8,8,9,1,C,6,S,1,S,11,0.384976,0.79382,0.305601
5,23,9,1,2,1,1,C,8,L,1,S,9,0.808995,0.297447,0.240633
5,24,8,9,9,1,1,I,1,S,8,L,18,0.631343,0.770752,0.486608
5,25,2,1,8,1,1,C,1,S,7,L,9,0.804857,0.299276,0.240874
5,26,1,2,9,8,1,I,1,S,1,S,16,0.573321,0.761115,0.436363
5,27,8,9,9,8,1,I,1,S,1,S,14,0.53742,0.76054,0.408729
5,28,8,2,2,8,1,I,6,S,6,S,13,0.756615,0.535763,0.405366
5,29,2,1,8,9,1,I,1,S,1,S,11,0.797487,0.370446,0.295426
5,30,1,2,1,2,1,C,1,S,1,S,11,0.361609,0.794199,0.28719
5,31,1,9,2,8,1,C,8,L,6,S,8,0.268376,0.78714,0.21125
5,32,1,9,9,2,1,I,8,L,7,L,11,0.502617,0.759638,0.381807
5,33,2,8,2,8,1,C,6,S,6,S,9,0.314851,0.782874,0.246489
5,34,8,2,8,2,1,C,6,S,6,S,9,0.823954,0.281614,0.232037
5,35,2,9,1,2,1,C,7,L,1,S,9,0.327131,0.772796,0.252805
5,36,1,2,9,2,1,I,1,S,7,L,19,0.642415,0.756609,0.486057
5,37,1,8,2,1,1,I,7,L,1,S,10,0.393636,0.769555,0.302925
5,38,9,2,2,9,1,I,7,L,7,L,13,0.774803,0.532337,0.412456
5,39,8,1,9,8,1,C,7,L,1,S,9,0.804479,0.300263,0.241555
5,40,8,1,2,1,1,C,7,L,1,S,9,0.788562,0.310466,0.244822
5,41,9,2,1,9,1,I,7,L,8,L,14,0.774374,0.573002,0.443718
5,42,9,2,2,1,1,C,7,L,1,S,9,0.76549,0.326784,0.250149
5,43,2,8,9,1,1,I,6,S,8,L,16,0.612217,0.773099,0.473304
5,44,1,2,2,9,1,C,1,S,7,L,10,0.320197,0.81594,0.261261
5,45,8,2,8,9,1,I,6,S,1,S,10,0.772707,0.361217,0.279115
5,46,9,8,9,1,1,C,1,S,8,L,10,0.768117,0.378016,0.290361
5,47,1,8,8,2,1,I,7,L,6,S,12,0.50984,0.777099,0.396196
5,48,9,1,8,1,1,C,8,L,7,L,8,0.795033,0.263788,0.20972
5,49,1,8,2,9,1,C,7,L,7,L,8,0.283422,0.766497,0.217242
5,50,8,1,2,8,1,I,7,L,6,S,12,0.780174,0.490901,0.382988
5,51,8,2,2,9,1,I,6,S,7,L,14,0.773831,0.555062,0.429524
5,52,1,8,8,1,1,I,7,L,7,L,12,0.53067,0.761554,0.404134
5,53,8,2,1,2,1,I,6,S,1,S,11,0.757693,0.429209,0.325209
5,54,8,9,2,9,1,C,1,S,7,L,9,0.333813,0.757784,0.252958
5,55,9,1,9,1,1,C,8,L,8,L,8,0.813702,0.252205,0.20522
5,56,1,2,2,1,1,I,1,S,1,S,15,0.54314,0.756874,0.411089
5,57,9,1,9,2,1,C,8,L,7,L,8,0.799316,0.262388,0.209731
5,58,1,8,9,2,1,I,7,L,7,L,12,0.536231,0.758879,0.406935
5,59,2,8,2,1,1,I,6,S,1,S,12,0.462674,0.770176,0.356341
5,60,2,1,1,2,1,I,1,S,1,S,12,0.751365,0.466514,0.350522
5,61,9,1,8,2,1,C,8,L,6,S,8,0.778486,0.275664,0.2146
5,62,1,9,1,9,1,C,8,L,8,L,8,0.23986,0.830449,0.199192
5,63,9,1,8,9,1,I,8,L,1,S,9,0.76736,0.336397,0.258138
5,64,1,2,1,8,1,C,1,S,7,L,9,0.334491,0.753896,0.252172
5,65,1,2,8,1,1,I,1,S,7,L,19,0.637507,0.759377,0.484108
5,66,9,8,9,8,1,C,1,S,1,S,13,0.787804,0.422249,0.332649
5,67,2,1,9,1,1,C,1,S,8,L,9,0.825624,0.28614,0.236244
5,68,8,2,1,9,1,I,6,S,8,L,15,0.77165,0.591266,0.45625
5,69,2,9,2,1,1,I,7,L,1,S,11,0.414976,0.792166,0.328729
5,70,8,9,9,2,1,I,1,S,7,L,17,0.630198,0.756869,0.476977
5,71,9,1,1,2,1,I,8,L,1,S,10,0.782245,0.381221,0.298208
5,72,9,2,9,8,1,C,7,L,1,S,9,0.781407,0.31658,0.247378
5,73,2,9,2,8,1,C,7,L,6,S,9,0.27548,0.837192,0.23063
5,74,8,2,1,8,1,I,6,S,7,L,14,0.752763,0.582655,0.438601
5,75,9,1,9,8,1,C,8,L,1,S,9,0.824913,0.287243,0.236951
5,76,8,1,1,2,1,I,7,L,1,S,10,0.760295,0.395511,0.300705
5,77,1,9,1,2,1,C,8,L,1,S,9,0.28089,0.835146,0.234584
5,78,1,8,2,8,1,C,7,L,6,S,8,0.290826,0.754707,0.219489
5,79,2,8,2,9,1,C,6,S,7,L,9,0.30573,0.797299,0.243758
5,80,1,9,8,1,1,I,8,L,7,L,11,0.497148,0.762111,0.378882
5,81,2,1,2,9,1,I,1,S,7,L,15,0.752118,0.593611,0.446466
5,82,8,1,1,8,1,I,7,L,7,L,13,0.779036,0.541709,0.422011
5,83,9,2,9,2,1,C,7,L,7,L,8,0.761679,0.28772,0.21915
5,84,2,9,1,9,1,C,7,L,8,L,8,0.281447,0.77461,0.218012
5,85,8,9,8,9,1,C,1,S,1,S,12,0.404489,0.795133,0.321622
5,86,2,1,2,8,1,I,1,S,6,S,15,0.764468,0.576393,0.440634
5,87,9,8,1,9,0,I,1,S,8,L,11,0.389624,0.792209,0.308664
5,88,2,1,1,8,1,I,1,S,7,L,16,0.758615,0.613329,0.46528
5,89,8,9,2,8,1,C,1,S,6,S,10,0.307113,0.836428,0.256878
5,90,8,1,8,2,1,C,7,L,6,S,8,0.760567,0.28692,0.218222
5,91,9,2,8,9,1,I,7,L,1,S,10,0.801118,0.342323,0.274241
5,92,2,9,8,9,1,C,7,L,1,S,10,0.35852,0.792882,0.284264
5,93,2,9,9,8,1,I,7,L,1,S,11,0.439666,0.776069,0.341211
5,94,9,8,9,2,1,C,1,S,7,L,10,0.751462,0.390031,0.293094
5,95,9,1,1,9,1,I,8,L,8,L,12,0.760713,0.535771,0.407568
5,96,9,8,8,9,1,I,1,S,1,S,17,0.76134,0.470127,0.357926
5,97,1,8,1,2,1,C,7,L,1,S,9,0.305788,0.799439,0.244459
5,98,8,1,8,1,1,C,7,L,7,L,8,0.777114,0.275045,0.213742
5,99,8,9,1,2,1,C,1,S,1,S,10,0.369851,0.755673,0.279487
5,100,8,1,1,9,1,I,7,L,8,L,13,0.770696,0.554092,0.427037
5,101,1,9,8,9,1,C,8,L,1,S,9,0.328537,0.784675,0.257795
5,102,2,8,9,8,1,I,6,S,1,S,12,0.490844,0.751657,0.368946
5,103,1,9,2,9,1,C,8,L,7,L,8,0.260972,0.79893,0.208498
5,104,8,2,9,8,1,C,6,S,1,S,9,0.756195,0.333208,0.25197
5,105,8,1,8,9,1,I,7,L,1,S,10,0.826359,0.324376,0.268051
5,106,2,8,8,2,1,I,6,S,6,S,15,0.581744,0.77574,0.451282
5,107,2,1,1,9,1,I,1,S,8,L,16,0.750878,0.624215,0.46871
5,108,1,2,8,2,1,I,1,S,6,S,19,0.623816,0.770774,0.480821
5,109,9,1,2,8,1,I,8,L,6,S,11,0.764338,0.469846,0.359122
5,110,2,8,8,1,1,I,6,S,7,L,15,0.599944,0.761287,0.45673
5,111,2,8,1,2,1,C,6,S,1,S,10,0.336513,0.803088,0.270249
5,112,2,9,1,8,1,C,7,L,7,L,8,0.287299,0.764623,0.219675
5,113,2,9,2,9,1,C,7,L,7,L,9,0.266359,0.851617,0.226836
5,114,9,2,8,1,1,C,7,L,7,L,8,0.757396,0.289121,0.218979
5,115,2,1,2,1,1,C,1,S,1,S,10,0.785726,0.345132,0.271179
5,116,9,8,2,9,0,I,1,S,7,L,11,0.418559,0.750416,0.314094
5,117,1,9,1,8,1,C,8,L,7,L,8,0.245712,0.820462,0.201597
5,118,1,8,1,9,1,C,7,L,8,L,8,0.26231,0.798016,0.209328
5,119,9,2,1,2,1,I,7,L,1,S,11,0.787985,0.408726,0.32207
5,120,2,8,1,9,1,C,6,S,8,L,9,0.28108,0.834048,0.234434
5,121,2,9,8,1,1,I,7,L,7,L,13,0.556488,0.766274,0.426423
5,122,9,1,1,8,1,I,8,L,7,L,12,0.769005,0.52313,0.40229
5,123,8,1,9,1,1,C,7,L,8,L,8,0.795783,0.263462,0.209659
5,124,1,2,2,8,1,C,1,S,6,S,10,0.330737,0.799476,0.264416
5,125,9,8,2,8,0,I,1,S,6,S,12,0.416699,0.778966,0.324594
5,126,9,8,1,8,0,I,1,S,7,L,11,0.397676,0.779572,0.310018
5,127,1,2,1,9,1,C,1,S,8,L,9,0.327646,0.765289,0.250744
5,128,9,8,8,2,1,C,1,S,6,S,11,0.780747,0.392512,0.306452
5,129,8,2,9,1,1,C,6,S,8,L,8,0.755196,0.291322,0.220005
5,130,1,8,1,8,1,C,7,L,7,L,8,0.268162,0.788029,0.211319
5,131,8,2,2,1,1,C,6,S,1,S,10,0.830562,0.309481,0.257043
5,132,9,8,1,2,0,I,1,S,1,S,15,0.456909,0.778737,0.355812
5,133,9,8,2,1,1,C,1,S,1,S,13,0.7573,0.442587,0.335171
5,134,9,8,8,1,1,C,1,S,7,L,11,0.801714,0.377191,0.302399
5,135,1,2,8,9,1,C,1,S,1,S,13,0.419567,0.793906,0.333097
5,136,1,8,8,9,1,C,7,L,1,S,10,0.33578,0.821292,0.275773
5,137,9,2,8,2,1,C,7,L,6,S,9,0.849166,0.264986,0.225017
5,138,1,8,9,8,1,I,7,L,1,S,10,0.414049,0.756321,0.313154
5,139,9,1,2,9,1,I,8,L,7,L,11,0.752754,0.487598,0.367042
5,140,2,1,8,2,1,C,1,S,6,S,9,0.785887,0.3128,0.245826
5,141,2,8,1,8,1,C,6,S,7,L,9,0.287924,0.822656,0.236863
5,142,2,9,8,2,1,I,7,L,6,S,13,0.536277,0.781694,0.419204
5,143,8,2,8,1,1,C,6,S,7,L,9,0.842923,0.26809,0.225979
5,144,1,9,8,2,1,I,8,L,6,S,11,0.476181,0.777432,0.370198
6,1,2,8,1,9,1,C,6,S,8,L,9,0.307899,0.796102,0.245119
6,2,2,8,8,2,1,I,6,S,6,S,15,0.581478,0.765034,0.444851
6,3,8,1,9,1,1,C,7,L,8,L,8,0.756373,0.288728,0.218386
6,4,2,9,9,1,1,I,7,L,8,L,14,0.578478,0.759229,0.439198
6,5,9,1,1,8,1,I,8,L,7,L,11,0.750949,0.487058,0.365756
6,6,9,1,1,9,1,I,8,L,8,L,12,0.773659,0.513721,0.397445
6,7,1,9,1,9,1,C,8,L,8,L,8,0.286284,0.76908,0.220175
6,8,1,8,2,8,1,C,7,L,6,S,9,0.292717,0.815564,0.238729
6,9,1,8,1,9,1,C,7,L,8,L,9,0.266618,0.854588,0.227848
6,10,1,9,9,2,1,I,8,L,7,L,12,0.511505,0.770689,0.394211
6,11,2,1,8,1,1,C,1,S,7,L,9,0.751535,0.335839,0.252394
6,12,1,9,8,2,1,I,8,L,6,S,12,0.50142,0.778536,0.390374
6,13,9,8,1,8,1,I,1,S,7,L,19,0.766518,0.628695,0.481906
6,14,8,1,1,8,1,I,7,L,7,L,12,0.751834,0.522838,0.393087
6,15,9,1,8,9,1,I,8,L,1,S,9,0.756176,0.344889,0.260796
6,16,1,9,2,9,1,C,8,L,7,L,8,0.296788,0.752338,0.223285
6,17,2,9,8,9,1,C,7,L,1,S,10,0.373257,0.766819,0.286221
6,18,9,8,2,8,1,I,1,S,6,S,18,0.759973,0.617509,0.46929
6,19,2,8,9,1,1,I,6,S,8,L,16,0.603696,0.768394,0.463877
6,20,1,2,8,9,1,C,1,S,1,S,12,0.419722,0.763867,0.320612
6,21,9,8,8,9,1,I,1,S,1,S,12,0.754784,0.427365,0.322568
6,22,1,9,2,1,1,I,8,L,1,S,10,0.382285,0.77312,0.295552
6,23,2,1,2,8,1,I,1,S,6,S,17,0.761112,0.604386,0.460005
6,24,8,9,9,2,1,I,1,S,7,L,22,0.645995,0.764908,0.494127
6,25,1,9,2,8,1,C,8,L,6,S,9,0.273155,0.84307,0.230289
6,26,2,8,9,8,1,I,6,S,1,S,12,0.455871,0.765376,0.348913
6,27,2,9,2,1,1,I,7,L,1,S,11,0.414578,0.770863,0.319583
6,28,2,9,9,2,1,I,7,L,7,L,14,0.557774,0.775461,0.432532
6,29,1,9,1,8,1,C,8,L,7,L,8,0.296197,0.754854,0.223585
6,30,8,2,2,1,1,C,6,S,1,S,10,0.77532,0.351621,0.272618
6,31,9,1,8,2,1,C,8,L,6,S,8,0.76168,0.283634,0.216038
6,32,9,1,9,1,1,C,8,L,8,L,8,0.785436,0.265742,0.208724
6,33,2,1,9,1,1,C,1,S,8,L,9,0.758652,0.330396,0.250655
6,34,1,2,2,1,1,I,1,S,1,S,15,0.507394,0.779003,0.395262
6,35,9,2,9,2,1,C,7,L,7,L,9,0.832736,0.273529,0.227777
6,36,8,2,9,8,1,C,6,S,1,S,10,0.783746,0.349122,0.273623
6,37,8,2,8,9,1,I,6,S,1,S,11,0.792593,0.37966,0.300915
6,38,2,8,2,1,1,I,6,S,1,S,12,0.442753,0.771132,0.341422
6,39,8,2,8,1,1,C,6,S,7,L,9,0.80002,0.300366,0.240299
6,40,8,2,9,2,1,C,6,S,7,L,9,0.787581,0.309105,0.243445
6,41,9,8,8,1,1,C,1,S,7,L,10,0.824583,0.316694,0.26114
6,42,8,1,2,1,1,C,7,L,1,S,9,0.755897,0.334173,0.252601
6,43,2,1,8,2,1,C,1,S,6,S,10,0.819003,0.318371,0.260747
6,44,8,2,8,2,1,C,6,S,6,S,9,0.779128,0.315623,0.245911
6,45,2,9,8,2,1,I,7,L,6,S,13,0.547505,0.753286,0.412428
6,46,1,9,9,1,1,I,8,L,8,L,12,0.533713,0.754013,0.402426
6,47,1,9,8,9,1,C,8,L,1,S,10,0.334674,0.82255,0.275286
6,48,8,2,1,2,1,I,6,S,1,S,12,0.795217,0.417539,0.332034
6,49,9,8,2,9,1,I,1,S,7,L,19,0.768514,0.625124,0.480417
6,50,9,1,1,2,1,I,8,L,1,S,10,0.797548,0.357238,0.284914
6,51,9,2,1,9,1,I,7,L,8,L,13,0.752235,0.557599,0.419445
6,52,8,9,2,8,1,C,1,S,6,S,11,0.355443,0.814188,0.289397
6,53,9,8,9,1,1,C,1,S,8,L,10,0.832267,0.310819,0.258684
6,54,9,2,9,8,1,C,7,L,1,S,10,0.835582,0.309067,0.258251
6,55,9,8,9,8,1,C,1,S,1,S,11,0.778437,0.377677,0.293998
6,56,8,9,2,9,1,C,1,S,7,L,10,0.37062,0.762176,0.282478
6,57,9,8,8,2,1,C,1,S,6,S,10,0.801453,0.333561,0.267334
6,58,2,9,1,2,1,C,7,L,1,S,10,0.338846,0.800407,0.271214
6,59,9,2,2,9,1,I,7,L,7,L,13,0.768438,0.534244,0.410533
6,60,2,1,1,8,1,I,1,S,7,L,18,0.766985,0.619151,0.47488
6,61,8,1,1,2,1,I,7,L,1,S,10,0.761818,0.384963,0.293272
6,62,9,2,8,9,1,I,7,L,1,S,10,0.779545,0.360995,0.281412
6,63,8,9,8,1,1,I,1,S,7,L,22,0.653748,0.758503,0.49587
6,64,9,2,8,1,1,C,7,L,7,L,9,0.845176,0.264789,0.223794
6,65,8,2,1,9,1,I,6,S,8,L,15,0.754,0.599976,0.452381
6,66,1,9,8,1,1,I,8,L,7,L,12,0.525882,0.760183,0.399767
6,67,1,2,8,1,1,I,1,S,7,L,19,0.636429,0.759476,0.483352
6,68,9,1,9,8,1,C,8,L,1,S,9,0.795726,0.30716,0.244415
6,69,8,2,2,8,1,I,6,S,6,S,14,0.759897,0.556462,0.422854
6,70,2,1,2,9,1,I,1,S,7,L,18,0.769017,0.615483,0.473317
6,71,1,8,9,1,1,I,7,L,8,L,13,0.559417,0.7565,0.423199
6,72,9,2,9,1,1,C,7,L,8,L,9,0.852292,0.259347,0.221039
6,73,8,9,1,9,1,C,1,S,8,L,10,0.356381,0.784261,0.279496
6,74,2,8,1,8,1,C,6,S,7,L,9,0.319573,0.779238,0.249023
6,75,1,8,8,1,1,I,7,L,7,L,13,0.551847,0.762592,0.420834
6,76,1,2,9,1,1,I,1,S,8,L,19,0.641298,0.755127,0.484261
6,77,9,2,1,8,1,I,7,L,7,L,13,0.766564,0.538209,0.412571
6,78,8,1,9,2,1,C,7,L,7,L,9,0.847751,0.265164,0.224793
6,79,1,8,1,2,1,C,7,L,1,S,10,0.321696,0.82619,0.265782
6,80,2,9,2,9,1,C,7,L,7,L,9,0.294349,0.811731,0.238932
6,81,1,8,8,2,1,I,7,L,6,S,13,0.527888,0.780949,0.412254
6,82,1,2,8,2,1,I,1,S,6,S,19,0.620282,0.773148,0.47957
6,83,9,2,2,8,1,I,7,L,6,S,12,0.753204,0.505508,0.380751
6,84,9,8,1,9,1,I,1,S,8,L,19,0.755623,0.642167,0.485236
6,85,2,9,1,9,1,C,7,L,8,L,9,0.281747,0.831615,0.234305
6,86,1,9,9,8,1,I,8,L,1,S,10,0.390711,0.770622,0.301091
6,87,8,9,8,9,1,C,1,S,1,S,14,0.427833,0.792022,0.338853
6,88,9,8,9,2,1,C,1,S,7,L,10,0.810901,0.32635,0.264637
6,89,8,9,9,8,1,I,1,S,1,S,18,0.592303,0.754903,0.447131
6,90,8,1,1,9,1,I,7,L,8,L,13,0.770153,0.546204,0.420661
6,91,2,8,2,8,1,C,6,S,6,S,9,0.333998,0.757079,0.252863
6,92,8,2,1,8,1,I,6,S,7,L,15,0.767647,0.582261,0.44697
6,93,2,9,1,8,1,C,7,L,7,L,9,0.293421,0.814751,0.239065
6,94,1,2,2,9,1,C,1,S,7,L,10,0.33236,0.805461,0.267703
6,95,9,1,2,8,1,I,8,L,6,S,11,0.769295,0.459558,0.353535
6,96,8,1,2,9,1,I,7,L,7,L,12,0.753554,0.518948,0.391056
6,97,9,1,2,9,1,I,8,L,7,L,11,0.752458,0.48334,0.363693
6,98,8,9,1,2,1,C,1,S,1,S,12,0.414941,0.759408,0.315109
6,99,2,9,9,8,1,I,7,L,1,S,11,0.425261,0.766795,0.326088
6,100,1,8,2,9,1,C,7,L,7,L,9,0.27922,0.834704,0.233066
6,101,2,1,1,2,1,I,1,S,1,S,13,0.758906,0.466461,0.354
6,102,2,8,8,1,1,I,6,S,7,L,16,0.597442,0.773745,0.462267
6,103,1,8,9,8,1,I,7,L,1,S,11,0.406712,0.794189,0.323006
6,104,8,9,1,8,1,C,1,S,7,L,10,0.369379,0.765605,0.282798
6,105,9,2,2,1,1,C,7,L,1,S,10,0.827156,0.311565,0.257713
6,106,9,8,1,2,1,I,1,S,1,S,14,0.76713,0.484048,0.371328
6,107,1,8,1,8,1,C,7,L,7,L,9,0.278292,0.837724,0.233132
6,108,8,9,9,1,0,I,1,S,8,L,14,0.756067,0.526491,0.398062
6,109,1,2,2,8,1,C,1,S,6,S,10,0.347804,0.783473,0.272495
6,110,8,9,8,2,1,I,1,S,6,S,22,0.641089,0.769393,0.493249
6,111,8,9,2,1,1,I,1,S,1,S,18,0.572936,0.766547,0.439182
6,112,8,1,9,8,1,C,7,L,1,S,9,0.76243,0.332999,0.253888
6,113,2,1,2,1,1,C,1,S,1,S,11,0.789401,0.363853,0.287226
6,114,8,1,2,8,1,I,7,L,6,S,12,0.77122,0.494394,0.381286
6,115,9,8,2,1,1,C,1,S,1,S,11,0.767754,0.381746,0.293087
6,116,2,8,9,2,1,I,6,S,7,L,15,0.590404,0.757642,0.447315
6,117,8,2,9,1,1,C,6,S,8,L,9,0.807137,0.294923,0.238044
6,118,2,9,8,1,1,I,7,L,7,L,14,0.571292,0.765139,0.437118
6,119,1,2,1,9,1,C,1,S,8,L,10,0.318121,0.827546,0.26326
6,120,1,2,1,2,1,C,1,S,1,S,11,0.39522,0.755518,0.298596
6,121,2,8,1,2,1,C,6,S,1,S,10,0.36897,0.758974,0.280038
6,122,2,1,1,9,1,I,1,S,8,L,18,0.755347,0.633648,0.478624
6,123,9,1,8,1,1,C,8,L,7,L,8,0.77927,0.270548,0.21083
6,124,1,9,1,2,1,C,8,L,1,S,9,0.331395,0.769597,0.255041
6,125,1,2,1,8,1,C,1,S,7,L,10,0.331119,0.808891,0.267839
6,126,2,1,9,2,1,C,1,S,7,L,10,0.828452,0.311159,0.257781
6,127,1,2,9,2,1,I,1,S,7,L,19,0.626741,0.767416,0.480971
6,128,2,9,2,8,1,C,7,L,6,S,9,0.307846,0.792592,0.243996
6,129,8,2,2,9,1,I,6,S,7,L,15,0.769682,0.578334,0.445133
6,130,2,1,8,9,1,I,1,S,1,S,12,0.779788,0.40726,0.317577
6,131,9,1,9,2,1,C,8,L,7,L,8,0.768703,0.278048,0.213736
6,132,9,1,2,1,1,C,8,L,1,S,9,0.789193,0.308335,0.243336
6,133,2,8,2,9,1,C,6,S,7,L,9,0.320501,0.776218,0.248779
6,134,1,8,2,1,1,I,7,L,1,S,11,0.396029,0.798257,0.316133
6,135,8,1,8,1,1,C,7,L,7,L,8,0.750207,0.293534,0.220211
6,136,2,1,9,8,1,C,1,S,1,S,11,0.800084,0.359784,0.287858
6,137,1,8,9,2,1,I,7,L,7,L,13,0.537772,0.773108,0.415756
6,138,9,2,8,2,1,C,7,L,6,S,9,0.824284,0.280047,0.230838
6,139,1,8,8,9,1,C,7,L,1,S,10,0.356108,0.792601,0.282252
6,140,9,2,1,2,1,I,7,L,1,S,11,0.80227,0.383781,0.307896
6,141,2,8,8,9,1,C,6,S,1,S,11,0.381157,0.790901,0.301458
6,142,8,1,8,9,1,I,7,L,1,S,10,0.79623,0.351375,0.279775
6,143,1,2,9,8,1,I,1,S,1,S,15,0.526048,0.768987,0.404524
6,144,8,1,8,2,1,C,7,L,6,S,9,0.839299,0.271682,0.228023
7,1,2,1,1,8,1,I,1,S,7,L,20,0.755037,0.645389,0.487292
7,2,8,9,8,1,0,I,1,S,7,L,11,0.76188,0.414235,0.315597
7,3,1,2,1,2,1,C,1,S,1,S,11,0.377925,0.773003,0.292137
7,4,2,8,1,8,1,C,6,S,7,L,9,0.293148,0.81354,0.238488
7,5,2,1,9,1,1,C,1,S,8,L,10,0.81513,0.330459,0.269367
7,6,9,2,9,2,1,C,7,L,7,L,8,0.750976,0.293579,0.220471
7,7,2,8,2,8,1,C,6,S,6,S,9,0.323068,0.77459,0.250246
7,8,2,9,9,1,1,I,7,L,8,L,14,0.583347,0.756959,0.441569
7,9,8,1,2,8,1,I,7,L,6,S,12,0.787008,0.479494,0.377366
7,10,9,8,1,9,1,I,1,S,8,L,18,0.765642,0.623916,0.477696
7,11,8,9,8,9,1,C,1,S,1,S,18,0.480725,0.756471,0.363654
7,12,1,2,8,1,1,I,1,S,7,L,19,0.628764,0.769698,0.483958
7,13,1,8,2,9,1,C,7,L,7,L,9,0.283719,0.827926,0.234898
7,14,9,1,8,9,1,I,8,L,1,S,9,0.766916,0.341287,0.261738
7,15,1,2,9,8,1,I,1,S,1,S,14,0.477621,0.779466,0.372289
7,16,1,8,1,8,1,C,7,L,7,L,8,0.294379,0.750245,0.220856
7,17,1,8,9,1,1,I,7,L,8,L,13,0.549697,0.77187,0.424295
7,18,9,8,1,2,1,I,1,S,1,S,13,0.753471,0.477279,0.359616
7,19,8,1,1,9,1,I,7,L,8,L,13,0.778564,0.538937,0.419597
7,20,2,8,9,8,1,I,6,S,1,S,11,0.412797,0.774092,0.319543
7,21,9,2,2,8,1,I,7,L,6,S,11,0.751658,0.466759,0.350843
7,22,1,8,2,8,1,C,7,L,6,S,9,0.287197,0.821233,0.235856
7,23,2,1,2,8,1,I,1,S,6,S,19,0.758841,0.626523,0.475432
7,24,9,2,1,9,1,I,7,L,8,L,13,0.781657,0.532048,0.41588
7,25,2,8,8,2,1,I,6,S,6,S,14,0.55775,0.776326,0.432996
7,26,9,1,2,1,1,C,8,L,1,S,9,0.825417,0.284536,0.234861
7,27,9,8,2,8,1,I,1,S,6,S,16,0.753087,0.594369,0.447612
7,28,2,1,9,8,1,C,1,S,1,S,12,0.79722,0.386673,0.308263
7,29,1,8,8,1,1,I,7,L,7,L,13,0.538261,0.781484,0.420642
7,30,9,8,2,9,1,I,1,S,7,L,17,0.772045,0.59759,0.461366
7,31,1,8,9,2,1,I,7,L,7,L,12,0.525804,0.755069,0.397018
7,32,2,1,2,9,1,I,1,S,7,L,19,0.753317,0.634567,0.47803
7,33,9,2,9,8,1,C,7,L,1,S,9,0.759157,0.335268,0.254521
7,34,9,8,9,8,1,C,1,S,1,S,11,0.782879,0.376193,0.294514
7,35,1,9,2,8,1,C,8,L,6,S,9,0.281565,0.826312,0.232661
7,36,9,1,9,1,1,C,8,L,8,L,8,0.797621,0.261704,0.208741
7,37,2,1,8,2,1,C,1,S,6,S,10,0.780048,0.357191,0.278627
7,38,2,9,2,9,1,C,7,L,7,L,9,0.311893,0.788746,0.246004
7,39,2,9,1,2,1,C,7,L,1,S,10,0.332758,0.805566,0.268059
7,40,2,8,9,1,1,I,6,S,8,L,15,0.58792,0.776462,0.456498
7,41,8,1,1,2,1,I,7,L,1,S,10,0.760055,0.39096,0.297151
7,42,8,9,9,2,0,I,1,S,7,L,11,0.75277,0.420314,0.3164
7,43,8,2,9,1,1,C,6,S,8,L,9,0.831518,0.280852,0.233534
7,44,2,8,2,1,1,I,6,S,1,S,12,0.469683,0.771293,0.362263
7,45,2,1,8,9,1,I,1,S,1,S,13,0.773744,0.433649,0.335533
7,46,2,9,9,8,1,I,7,L,1,S,11,0.404061,0.783128,0.316432
7,47,8,1,8,2,1,C,7,L,6,S,9,0.843603,0.275151,0.232118
7,48,2,9,1,9,1,C,7,L,8,L,9,0.282802,0.826663,0.233782
7,49,8,1,9,8,1,C,7,L,1,S,9,0.754838,0.343432,0.259236
7,50,8,9,1,9,1,C,1,S,8,L,11,0.384825,0.788191,0.303316
7,51,8,1,9,1,1,C,7,L,8,L,8,0.763462,0.289289,0.220861
7,52,2,8,8,9,1,C,6,S,1,S,10,0.383153,0.758256,0.290528
7,53,2,9,1,8,1,C,7,L,7,L,9,0.285451,0.821002,0.234356
7,54,8,9,2,1,0,I,1,S,1,S,14,0.763731,0.464554,0.354795
7,55,1,9,2,1,1,I,8,L,1,S,11,0.419989,0.789589,0.331619
7,56,1,2,8,2,1,I,1,S,6,S,18,0.622854,0.761235,0.474138
7,57,2,8,9,2,1,I,6,S,7,L,14,0.572157,0.764214,0.43725
7,58,1,2,1,9,1,C,1,S,8,L,10,0.311353,0.830259,0.258504
7,59,1,9,2,9,1,C,8,L,7,L,9,0.278087,0.833005,0.231648
7,60,1,2,9,1,1,I,1,S,8,L,19,0.635811,0.763037,0.485147
7,61,8,9,1,8,1,C,1,S,7,L,11,0.388337,0.781515,0.303491
7,62,2,8,1,9,1,C,6,S,8,L,9,0.290499,0.819201,0.237977
7,63,1,9,9,8,1,I,8,L,1,S,10,0.376345,0.776246,0.292136
7,64,8,9,2,8,1,C,1,S,6,S,12,0.404185,0.786859,0.318037
7,65,2,9,8,2,1,I,7,L,6,S,13,0.548453,0.754921,0.414039
7,66,1,9,1,2,1,C,8,L,1,S,9,0.327652,0.766779,0.251237
7,67,2,8,8,1,1,I,6,S,7,L,14,0.580893,0.757945,0.440285
7,68,8,2,1,9,1,I,6,S,8,L,14,0.756354,0.577242,0.436599
7,69,8,2,9,2,1,C,6,S,7,L,9,0.812675,0.294729,0.239519
7,70,8,2,1,2,1,I,6,S,1,S,11,0.764571,0.41747,0.319185
7,71,9,2,9,1,1,C,7,L,8,L,8,0.7672,0.28146,0.215936
7,72,1,9,9,1,1,I,8,L,8,L,13,0.544233,0.776685,0.422698
7,73,9,1,1,9,1,I,8,L,8,L,12,0.786803,0.502093,0.395048
7,74,8,2,8,1,1,C,6,S,7,L,9,0.820588,0.289651,0.237684
7,75,2,1,8,1,1,C,1,S,7,L,10,0.803367,0.33989,0.273056
7,76,2,9,9,2,1,I,7,L,7,L,14,0.563812,0.772507,0.435549
7,77,1,2,2,9,1,C,1,S,7,L,10,0.343941,0.787237,0.270763
7,78,9,2,8,2,1,C,7,L,6,S,9,0.847923,0.266987,0.226384
7,79,8,2,9,8,1,C,6,S,1,S,10,0.79133,0.346771,0.274411
7,80,1,9,9,2,1,I,8,L,7,L,12,0.520087,0.760257,0.3954
7,81,1,8,8,2,1,I,7,L,6,S,12,0.510324,0.767571,0.39171
7,82,8,2,2,8,1,I,6,S,6,S,13,0.767986,0.521234,0.400301
7,83,1,9,1,8,1,C,8,L,7,L,8,0.289172,0.754662,0.218227
7,84,9,2,8,9,1,I,7,L,1,S,10,0.806547,0.343977,0.277434
7,85,9,1,8,1,1,C,8,L,7,L,8,0.788133,0.269535,0.212429
7,86,2,9,2,1,1,I,7,L,1,S,12,0.460863,0.780402,0.359658
7,87,1,8,9,8,1,I,7,L,1,S,10,0.382184,0.770851,0.294607
7,88,2,9,8,1,1,I,7,L,7,L,14,0.572549,0.766238,0.438709
7,89,1,9,8,1,1,I,8,L,7,L,12,0.529282,0.753965,0.39906
7,90,9,1,1,8,1,I,8,L,7,L,11,0.753156,0.489059,0.368337
7,91,9,8,9,1,1,C,1,S,8,L,9,0.765603,0.329887,0.252563
7,92,9,8,9,2,1,C,1,S,7,L,10,0.837384,0.309452,0.259131
7,93,2,1,1,2,1,I,1,S,1,S,16,0.774197,0.528549,0.409201
7,94,9,8,2,1,1,C,1,S,1,S,10,0.753961,0.369131,0.278311
7,95,8,2,8,9,1,I,6,S,1,S,10,0.752634,0.386176,0.290649
7,96,9,2,8,1,1,C,7,L,7,L,8,0.757712,0.289291,0.219199
7,97,1,2,1,8,1,C,1,S,7,L,10,0.314489,0.823968,0.259129
7,98,8,1,8,1,1,C,7,L,7,L,8,0.753975,0.297119,0.22402
7,99,2,8,2,9,1,C,6,S,7,L,9,0.31959,0.781284,0.249691
7,100,1,8,2,1,1,I,7,L,1,S,11,0.425844,0.784182,0.333939
7,101,2,9,2,8,1,C,7,L,6,S,9,0.315372,0.782053,0.246637
7,102,9,1,9,2,1,C,8,L,7,L,8,0.781397,0.273823,0.213965
7,103,1,9,8,9,1,C,8,L,1,S,10,0.337648,0.815651,0.275403
7,104,9,8,8,1,1,C,1,S,7,L,9,0.754673,0.338686,0.255597
7,105,9,1,9,8,1,C,8,L,1,S,9,0.793721,0.312611,0.248126
7,106,1,9,8,2,1,I,8,L,6,S,12,0.504608,0.772759,0.38994
7,107,1,8,8,9,1,C,7,L,1,S,10,0.343487,0.810256,0.278313
7,108,9,1,2,8,1,I,8,L,6,S,11,0.789618,0.440814,0.348075
7,109,8,2,2,9,1,I,6,S,7,L,13,0.762034,0.53104,0.404671
7,110,8,2,8,2,1,C,6,S,6,S,9,0.799564,0.305303,0.244109
7,111,8,9,9,8,0,I,1,S,1,S,18,0.750865,0.5302,0.398109
7,112,2,8,1,2,1,C,6,S,1,S,10,0.341129,0.797063,0.271901
7,113,8,1,1,8,1,I,7,L,7,L,13,0.782492,0.532077,0.416346
7,114,8,1,9,2,1,C,7,L,7,L,9,0.856715,0.264577,0.226667
7,115,9,2,2,9,1,I,7,L,7,L,12,0.785172,0.481558,0.378106
7,116,9,1,8,2,1,C,8,L,6,S,8,0.770488,0.282954,0.218012
7,117,8,2,1,8,1,I,6,S,7,L,14,0.76035,0.570484,0.433768
7,118,1,2,2,1,1,I,1,S,1,S,16,0.559941,0.771057,0.431746
7,119,9,2,2,1,1,C,7,L,1,S,9,0.790853,0.307193,0.242944
7,120,1,8,1,9,1,C,7,L,8,L,8,0.292307,0.755047,0.220706
7,121,1,2,9,2,1,I,1,S,7,L,18,0.633349,0.751658,0.476062
7,122,8,9,9,1,0,I,1,S,8,L,11,0.773921,0.404489,0.313043
7,123,1,2,2,8,1,C,1,S,6,S,10,0.348274,0.779276,0.271402
7,124,9,2,1,8,1,I,7,L,7,L,12,0.752814,0.521698,0.392741
7,125,2,1,1,9,1,I,1,S,8,L,20,0.751577,0.650849,0.489163
7,126,9,8,1,8,1,I,1,S,7,L,18,0.769371,0.618011,0.47548
7,127,1,2,8,9,1,C,1,S,1,S,12,0.410797,0.775441,0.318549
7,128,8,9,1,2,1,C,1,S,1,S,14,0.440247,0.767775,0.338011
7,129,8,9,2,9,1,C,1,S,7,L,12,0.398592,0.796394,0.317437
7,130,9,1,1,2,1,I,8,L,1,S,10,0.801535,0.358072,0.287007
7,131,8,1,8,9,1,I,7,L,1,S,10,0.802079,0.352152,0.282454
7,132,2,9,8,9,1,C,7,L,1,S,10,0.374783,0.766759,0.287368
7,133,1,8,1,2,1,C,7,L,1,S,9,0.333284,0.7617,0.253862
7,134,8,1,2,9,1,I,7,L,7,L,12,0.781415,0.489029,0.382135
7,135,9,1,2,9,1,I,8,L,7,L,11,0.784567,0.449742,0.352853
7,136,2,1,2,1,1,C,1,S,1,S,11,0.784233,0.375071,0.294143
7,137,8,1,2,1,1,C,7,L,1,S,9,0.786534,0.315357,0.248039
7,138,9,2,1,2,1,I,7,L,1,S,10,0.764523,0.382785,0.292648
7,139,8,2,2,1,1,C,6,S,1,S,10,0.83425,0.310517,0.259049
7,140,1,9,1,9,1,C,8,L,8,L,8,0.287101,0.759464,0.218043
7,141,2,1,9,2,1,C,1,S,7,L,10,0.794663,0.345569,0.274611
7,142,9,8,8,2,1,C,1,S,6,S,10,0.82277,0.321074,0.26417
7,143,8,9,8,2,0,I,1,S,6,S,12,0.780656,0.422331,0.329695
7,144,9,8,8,9,1,I,1,S,1,S,12,0.786236,0.406535,0.319633
8,1,9,2,9,2,1,C,7,L,7,L,9,0.807072,0.297175,0.239841
8,2,1,8,1,8,1,C,7,L,7,L,8,0.296043,0.75092,0.222305
8,3,2,8,9,2,1,I,6,S,7,L,13,0.530877,0.765061,0.406153
8,4,9,1,9,2,1,C,8,L,7,L,9,0.831045,0.278054,0.231076
8,5,1,9,8,1,1,I,8,L,7,L,12,0.518119,0.768224,0.398032
8,6,2,9,1,9,1,C,7,L,8,L,8,0.275233,0.77781,0.214079
8,7,8,1,9,8,1,C,7,L,1,S,10,0.811328,0.338297,0.27447
8,8,9,1,2,9,1,I,8,L,7,L,12,0.766669,0.507145,0.388812
8,9,2,9,2,1,1,I,7,L,1,S,10,0.404631,0.750691,0.303753
8,10,8,2,1,9,1,I,6,S,8,L,14,0.765839,0.581066,0.445003
8,11,1,9,1,2,1,C,8,L,1,S,9,0.290728,0.813308,0.236452
8,12,8,1,8,2,1,C,7,L,6,S,9,0.85038,0.263741,0.22428
8,13,1,8,2,1,1,I,7,L,1,S,11,0.415594,0.784938,0.326216
8,14,9,1,2,8,1,I,8,L,6,S,12,0.788602,0.477524,0.376577
8,15,9,8,2,8,0,I,1,S,6,S,14,0.478674,0.770841,0.368981
8,16,8,2,9,8,1,C,6,S,1,S,10,0.785946,0.358343,0.281638
8,17,8,9,8,2,1,I,1,S,6,S,23,0.641607,0.770074,0.494085
8,18,8,2,9,2,1,C,6,S,7,L,9,0.811983,0.292828,0.237772
8,19,9,8,1,9,0,I,1,S,8,L,11,0.414697,0.768048,0.318507
8,20,2,1,8,2,1,C,1,S,6,S,10,0.757511,0.369478,0.279884
8,21,9,8,1,8,0,I,1,S,7,L,11,0.426272,0.752085,0.320593
8,22,9,2,8,1,1,C,7,L,7,L,9,0.840052,0.275147,0.231138
8,23,9,2,8,2,1,C,7,L,6,S,9,0.822293,0.286538,0.235618
8,24,2,8,9,8,1,I,6,S,1,S,10,0.378731,0.760311,0.287954
8,25,2,1,9,1,1,C,1,S,8,L,10,0.762217,0.367027,0.279754
8,26,2,9,9,2,1,I,7,L,7,L,12,0.492301,0.776374,0.38221
8,27,9,2,2,9,1,I,7,L,7,L,13,0.772569,0.533163,0.411905
8,28,1,9,1,9,1,C,8,L,8,L,8,0.264208,0.793688,0.209699
8,29,1,9,2,1,1,I,8,L,1,S,10,0.390878,0.770315,0.301099
8,30,1,8,8,2,1,I,7,L,6,S,13,0.530246,0.777584,0.412311
8,31,1,2,1,2,1,C,1,S,1,S,11,0.398853,0.751545,0.299756
8,32,1,8,9,2,1,I,7,L,7,L,12,0.507391,0.758041,0.384623
8,33,1,2,9,1,0,I,1,S,8,L,14,0.751273,0.520398,0.390961
8,34,2,9,2,9,1,C,7,L,7,L,9,0.271707,0.843104,0.229077
8,35,2,1,9,8,1,C,1,S,1,S,14,0.788946,0.424076,0.334573
8,36,9,2,9,1,1,C,7,L,8,L,9,0.82646,0.284484,0.235114
8,37,2,8,8,9,1,C,6,S,1,S,10,0.367486,0.772124,0.283745
8,38,1,2,1,9,1,C,1,S,8,L,10,0.34471,0.798233,0.275159
8,39,8,2,1,8,1,I,6,S,7,L,14,0.777109,0.566501,0.440233
8,40,8,1,9,2,1,C,7,L,7,L,9,0.835158,0.274378,0.229149
8,41,8,9,2,1,1,I,1,S,1,S,20,0.606699,0.767218,0.46547
8,42,8,1,1,8,1,I,7,L,7,L,13,0.772941,0.54583,0.421894
8,43,8,2,2,9,1,I,6,S,7,L,13,0.778119,0.528244,0.411037
8,44,9,8,2,1,1,C,1,S,1,S,13,0.79694,0.40545,0.32312
8,45,1,8,1,9,1,C,7,L,8,L,8,0.28691,0.763906,0.219172
8,46,9,8,9,8,1,C,1,S,1,S,16,0.784546,0.445552,0.349556
8,47,2,1,2,1,1,C,1,S,1,S,12,0.795236,0.384363,0.305659
8,48,1,9,2,9,1,C,8,L,7,L,8,0.295858,0.751978,0.222479
8,49,9,1,2,1,1,C,8,L,1,S,9,0.772774,0.325057,0.251196
8,50,2,9,1,8,1,C,7,L,7,L,8,0.284365,0.764824,0.217489
8,51,8,2,2,1,1,C,6,S,1,S,9,0.753712,0.339831,0.256135
8,52,1,2,1,8,1,C,1,S,7,L,10,0.355844,0.782582,0.278477
8,53,9,1,8,1,1,C,8,L,7,L,8,0.753472,0.293539,0.221174
8,54,9,8,9,1,1,C,1,S,8,L,11,0.795166,0.376111,0.299071
8,55,8,9,8,9,1,C,1,S,1,S,14,0.417852,0.79488,0.332142
8,56,9,1,8,9,1,I,8,L,1,S,10,0.795649,0.354017,0.281673
8,57,1,2,8,2,1,I,1,S,6,S,23,0.644851,0.768112,0.495318
8,58,8,1,1,9,1,I,7,L,8,L,13,0.761361,0.561107,0.427205
8,59,8,9,1,8,1,C,1,S,7,L,10,0.352637,0.783903,0.276434
8,60,2,1,1,8,0,I,1,S,7,L,13,0.495705,0.753575,0.373551
8,61,1,2,2,8,1,C,1,S,6,S,11,0.376208,0.788404,0.296604
8,62,8,2,9,1,1,C,6,S,8,L,9,0.831371,0.280138,0.232898
8,63,8,2,1,2,1,I,6,S,1,S,11,0.750461,0.452166,0.339333
8,64,2,9,8,9,1,C,7,L,1,S,10,0.335368,0.81492,0.273298
8,65,8,9,2,8,1,C,1,S,6,S,11,0.372419,0.790451,0.294379
8,66,1,8,8,9,1,C,7,L,1,S,10,0.349722,0.797108,0.278766
8,67,9,8,8,9,1,I,1,S,1,S,18,0.771973,0.499319,0.38546
8,68,9,1,1,8,1,I,8,L,7,L,13,0.768695,0.549723,0.422569
8,69,1,8,2,8,1,C,7,L,6,S,9,0.30141,0.804642,0.242527
8,70,9,8,2,9,0,I,1,S,7,L,13,0.453307,0.778442,0.352873
8,71,8,9,1,9,1,C,1,S,8,L,10,0.341504,0.799554,0.273051
8,72,2,9,2,8,1,C,7,L,6,S,9,0.288142,0.820955,0.236551
8,73,1,9,9,8,1,I,8,L,1,S,10,0.33286,0.822731,0.273855
8,74,9,8,9,2,1,C,1,S,7,L,11,0.771356,0.392066,0.302422
8,75,1,2,2,1,1,I,1,S,1,S,20,0.611252,0.763615,0.466761
8,76,1,2,9,8,1,I,1,S,1,S,15,0.439801,0.792954,0.348742
8,77,1,9,9,2,1,I,8,L,7,L,11,0.471853,0.758108,0.357716
8,78,9,2,2,1,1,C,7,L,1,S,10,0.8385,0.31065,0.26048
8,79,2,8,2,9,1,C,6,S,7,L,9,0.30081,0.804533,0.242012
8,80,9,1,9,8,1,C,8,L,1,S,10,0.806894,0.342204,0.276123
8,81,2,1,2,8,1,I,1,S,6,S,21,0.751965,0.644699,0.484791
8,82,2,8,2,8,1,C,6,S,6,S,9,0.317245,0.782385,0.248208
8,83,2,1,8,9,1,I,1,S,1,S,15,0.789442,0.447532,0.353301
8,84,9,1,8,2,1,C,8,L,6,S,9,0.846267,0.267418,0.226307
8,85,8,2,8,2,1,C,6,S,6,S,9,0.827205,0.282192,0.23343
8,86,8,2,8,9,1,I,6,S,1,S,10,0.7747,0.370156,0.28676
8,87,8,1,2,1,1,C,7,L,1,S,9,0.776887,0.321381,0.249677
8,88,9,2,8,9,1,I,7,L,1,S,10,0.769237,0.374879,0.288371
8,89,1,8,1,2,1,C,7,L,1,S,9,0.316623,0.778778,0.246579
8,90,2,9,9,1,1,I,7,L,8,L,12,0.516841,0.759577,0.39258
8,91,8,9,1,2,1,C,1,S,1,S,11,0.395065,0.753593,0.297718
8,92,2,8,1,9,1,C,6,S,8,L,9,0.264434,0.853288,0.225638
8,93,1,8,2,9,1,C,7,L,7,L,9,0.284975,0.826791,0.235615
8,94,9,8,1,2,0,I,1,S,1,S,16,0.529401,0.750948,0.397553
8,95,9,2,2,8,1,I,7,L,6,S,12,0.761045,0.499737,0.380322
8,96,8,1,1,2,1,I,7,L,1,S,11,0.7768,0.431224,0.334975
8,97,1,8,9,1,1,I,7,L,8,L,13,0.535491,0.774482,0.414728
8,98,1,8,8,1,1,I,7,L,7,L,13,0.551152,0.762986,0.420522
8,99,2,9,9,8,1,I,7,L,1,S,10,0.346613,0.803107,0.278367
8,100,9,1,9,1,1,C,8,L,8,L,9,0.850434,0.265363,0.225674
8,101,8,1,9,1,1,C,7,L,8,L,9,0.854546,0.261687,0.223624
8,102,1,9,1,8,1,C,8,L,7,L,8,0.27334,0.780702,0.213397
8,103,8,9,9,1,1,I,1,S,8,L,23,0.645194,0.767756,0.495351
8,104,9,8,8,1,1,C,1,S,7,L,11,0.810953,0.365019,0.296013
8,105,2,1,2,9,1,I,1,S,7,L,22,0.760402,0.646946,0.491939
8,106,2,8,1,2,1,C,6,S,1,S,9,0.332458,0.756521,0.251512
8,107,8,9,8,1,0,I,1,S,7,L,13,0.751371,0.494584,0.371616
8,108,8,9,9,2,1,I,1,S,7,L,22,0.646851,0.756179,0.489135
8,109,2,9,8,1,1,I,7,L,7,L,13,0.536269,0.78071,0.418671
8,110,2,8,8,2,1,I,6,S,6,S,13,0.550121,0.751001,0.413141
8,111,1,9,8,9,1,C,8,L,1,S,9,0.345556,0.756098,0.261274
8,112,8,9,2,9,1,C,1,S,7,L,11,0.351617,0.81886,0.287925
8,113,1,2,8,1,0,I,1,S,7,L,13,0.756256,0.490938,0.371275
8,114,8,1,2,8,1,I,7,L,6,S,11,0.754155,0.468083,0.353007
8,115,2,1,1,9,0,I,1,S,8,L,12,0.468128,0.752877,0.352443
8,116,8,9,9,8,1,I,1,S,1,S,14,0.458593,0.752444,0.345065
8,117,2,8,8,1,1,I,6,S,7,L,14,0.571074,0.766469,0.437711
8,118,9,1,1,2,1,I,8,L,1,S,11,0.772272,0.43523,0.336116
8,119,2,1,1,2,1,I,1,S,1,S,20,0.751865,0.625521,0.470307
8,120,8,1,2,9,1,I,7,L,7,L,12,0.771117,0.503152,0.387989
8,121,2,1,9,2,1,C,1,S,7,L,11,0.813366,0.351529,0.285922
8,122,8,1,8,9,1,I,7,L,1,S,10,0.800082,0.350111,0.280117
8,123,1,9,2,8,1,C,8,L,6,S,9,0.275515,0.839172,0.231204
8,124,2,8,9,1,1,I,6,S,8,L,14,0.555989,0.777788,0.432441
8,125,8,2,8,1,1,C,6,S,7,L,9,0.844963,0.270801,0.228817
8,126,9,8,8,2,1,C,1,S,6,S,11,0.790115,0.37887,0.299351
8,127,2,8,2,1,1,I,6,S,1,S,11,0.434646,0.758435,0.329651
8,128,9,2,1,8,1,I,7,L,7,L,14,0.771863,0.571256,0.440931
8,129,1,9,9,1,1,I,8,L,8,L,12,0.502176,0.779664,0.391528
8,130,9,2,9,8,1,C,7,L,1,S,10,0.780482,0.363066,0.283367
8,131,1,2,2,9,1,C,1,S,7,L,11,0.355406,0.816812,0.2903
8,132,9,1,1,9,1,I,8,L,8,L,13,0.757115,0.565,0.42777
8,133,8,2,2,8,1,I,6,S,6,S,12,0.766774,0.494749,0.379361
8,134,2,8,1,8,1,C,6,S,7,L,9,0.27476,0.838596,0.230413
8,135,8,1,8,1,1,C,7,L,7,L,8,0.757021,0.290234,0.219713
8,136,1,2,9,2,1,I,1,S,7,L,22,0.650537,0.753676,0.490294
8,137,2,9,1,2,1,C,7,L,1,S,9,0.303355,0.795091,0.241195
8,138,9,2,1,2,1,I,7,L,1,S,12,0.78642,0.459324,0.361222
8,139,9,2,1,9,1,I,7,L,8,L,14,0.760593,0.585821,0.445572
8,140,2,1,8,1,1,C,1,S,7,L,10,0.777256,0.356628,0.277191
8,141,1,8,9,8,1,I,7,L,1,S,10,0.360968,0.785294,0.283466
8,142,1,9,8,2,1,I,8,L,6,S,12,0.496957,0.782639,0.388938
8,143,1,2,8,9,1,C,1,S,1,S,14,0.423132,0.790572,0.334516
8,144,2,9,8,2,1,I,7,L,6,S,12,0.511622,0.762551,0.390138
9,1,1,9,2,9,1,C,8,L,7,L,9,0.278683,0.833695,0.232337
9,2,8,2,2,8,1,I,6,S,6,S,13,0.751034,0.541386,0.4066
9,3,2,9,8,2,1,I,7,L,6,S,14,0.574491,0.75071,0.431276
9,4,1,2,1,9,1,C,1,S,8,L,10,0.33147,0.808166,0.267883
9,5,9,8,8,1,1,C,1,S,7,L,10,0.757191,0.380582,0.288173
9,6,8,9,8,9,1,C,1,S,1,S,14,0.456906,0.756782,0.345779
9,7,9,1,1,2,1,I,8,L,1,S,11,0.796963,0.398809,0.317836
9,8,1,9,9,8,1,I,8,L,1,S,11,0.406104,0.793993,0.322443
9,9,1,8,8,9,1,C,7,L,1,S,10,0.316439,0.833259,0.263676
9,10,2,9,2,9,1,C,7,L,7,L,9,0.319039,0.778964,0.24852
9,11,1,9,2,1,1,I,8,L,1,S,11,0.462967,0.751604,0.347968
9,12,2,1,8,9,1,I,1,S,1,S,15,0.771996,0.517045,0.399157
9,13,2,1,9,1,1,C,1,S,8,L,9,0.769027,0.33206,0.255363
9,14,1,9,8,9,1,C,8,L,1,S,9,0.343666,0.751923,0.25841
9,15,9,1,9,8,1,C,8,L,1,S,9,0.757057,0.337018,0.255142
9,16,8,1,2,8,1,I,7,L,6,S,12,0.756325,0.510004,0.385729
9,17,1,2,8,2,1,I,1,S,6,S,21,0.635995,0.769762,0.489565
9,18,8,9,9,8,0,I,1,S,1,S,15,0.774334,0.462779,0.358345
9,19,9,2,2,9,1,I,7,L,7,L,14,0.775421,0.552163,0.428159
9,20,9,8,8,9,1,I,1,S,1,S,23,0.75126,0.637378,0.478837
9,21,2,1,1,8,1,I,1,S,7,L,20,0.772758,0.63315,0.489272
9,22,8,9,1,9,1,C,1,S,8,L,11,0.379838,0.798404,0.303264
9,23,2,1,2,8,1,I,1,S,6,S,18,0.751587,0.627409,0.471552
9,24,8,1,1,2,1,I,7,L,1,S,11,0.791556,0.404637,0.320293
9,25,1,2,9,1,0,I,1,S,8,L,13,0.756803,0.508335,0.38471
9,26,1,9,9,2,1,I,8,L,7,L,13,0.559295,0.759362,0.424707
9,27,1,8,1,9,1,C,7,L,8,L,8,0.293783,0.753169,0.221268
9,28,9,1,1,8,1,I,8,L,7,L,13,0.759939,0.553085,0.420311
9,29,2,8,9,1,1,I,6,S,8,L,16,0.630248,0.750124,0.472765
9,30,8,1,1,8,1,I,7,L,7,L,13,0.754979,0.558619,0.421745
9,31,8,9,1,2,1,C,1,S,1,S,14,0.4484,0.765515,0.343256
9,32,1,9,8,2,1,I,8,L,6,S,12,0.517712,0.755489,0.391125
9,33,9,8,2,9,0,I,1,S,7,L,12,0.448211,0.753097,0.337546
9,34,8,9,9,2,0,I,1,S,7,L,11,0.780194,0.399284,0.311519
9,35,8,9,2,9,1,C,1,S,7,L,11,0.409912,0.758571,0.310947
9,36,9,8,9,1,1,C,1,S,8,L,10,0.78463,0.360404,0.282784
9,37,9,8,8,2,1,C,1,S,6,S,11,0.78276,0.385764,0.301961
9,38,9,1,9,2,1,C,8,L,7,L,8,0.752258,0.295743,0.222475
9,39,1,2,2,9,1,C,1,S,7,L,10,0.360057,0.769915,0.277213
9,40,9,2,1,9,1,I,7,L,8,L,15,0.773084,0.585893,0.452945
9,41,2,9,9,8,1,I,7,L,1,S,12,0.453009,0.771007,0.349273
9,42,2,9,9,1,1,I,7,L,8,L,16,0.623109,0.758839,0.472839
9,43,9,1,2,9,1,I,8,L,7,L,13,0.782428,0.52497,0.410752
9,44,8,2,9,8,1,C,6,S,1,S,10,0.805837,0.333224,0.268524
9,45,2,9,1,9,1,C,7,L,8,L,9,0.29293,0.813824,0.238394
9,46,8,2,9,1,1,C,6,S,8,L,9,0.85207,0.266724,0.227267
9,47,9,1,2,1,1,C,8,L,1,S,9,0.792883,0.308929,0.244945
9,48,1,8,1,8,1,C,7,L,7,L,9,0.263444,0.853295,0.224796
9,49,8,2,1,9,1,I,6,S,8,L,15,0.766966,0.592473,0.454407
9,50,2,8,2,9,1,C,6,S,7,L,9,0.324415,0.772102,0.250482
9,51,1,9,1,9,1,C,8,L,8,L,8,0.290389,0.757567,0.219989
9,52,1,2,8,9,1,C,1,S,1,S,12,0.384068,0.796813,0.306031
9,53,2,9,1,8,1,C,7,L,7,L,9,0.299865,0.803779,0.241025
9,54,8,9,1,8,1,C,1,S,7,L,11,0.387759,0.787264,0.305269
9,55,9,2,8,2,1,C,7,L,6,S,9,0.798998,0.302921,0.242034
9,56,9,8,1,2,1,I,1,S,1,S,24,0.769301,0.627568,0.482788
9,57,2,9,9,2,1,I,7,L,7,L,15,0.60686,0.750772,0.455614
9,58,2,1,1,9,1,I,1,S,8,L,20,0.767111,0.640115,0.49104
9,59,8,1,8,1,1,C,7,L,7,L,9,0.857551,0.264586,0.226896
9,60,8,1,2,1,1,C,7,L,1,S,9,0.788056,0.314385,0.247753
9,61,1,9,9,1,1,I,8,L,8,L,14,0.584384,0.768977,0.449377
9,62,9,2,1,2,1,I,7,L,1,S,11,0.760587,0.423453,0.322073
9,63,2,8,8,2,1,I,6,S,6,S,15,0.580064,0.769113,0.446135
9,64,8,2,2,9,1,I,6,S,7,L,14,0.768725,0.559134,0.429821
9,65,2,8,9,8,1,I,6,S,1,S,12,0.460382,0.761311,0.350494
9,66,2,1,9,8,1,C,1,S,1,S,11,0.773732,0.38317,0.296471
9,67,9,8,9,8,1,C,1,S,1,S,13,0.7856,0.41259,0.32413
9,68,1,2,2,8,1,C,1,S,6,S,10,0.370988,0.754618,0.279954
9,69,9,1,8,9,1,I,8,L,1,S,11,0.803226,0.393578,0.316132
9,70,2,8,8,9,1,C,6,S,1,S,10,0.364092,0.768289,0.279728
9,71,8,2,8,1,1,C,6,S,7,L,9,0.826124,0.285601,0.235942
9,72,8,2,8,2,1,C,6,S,6,S,9,0.793032,0.30938,0.245348
9,73,8,9,9,1,0,I,1,S,8,L,10,0.755776,0.391004,0.295512
9,74,2,1,9,2,1,C,1,S,7,L,10,0.828819,0.31927,0.264617
9,75,9,2,2,1,1,C,7,L,1,S,9,0.762595,0.328941,0.250849
9,76,9,8,2,8,0,I,1,S,6,S,13,0.459743,0.765579,0.351969
9,77,8,9,2,1,0,I,1,S,1,S,13,0.778254,0.436806,0.339946
9,78,2,1,8,1,1,C,1,S,7,L,10,0.828762,0.319931,0.265147
9,79,8,1,9,8,1,C,7,L,1,S,9,0.752231,0.342474,0.257619
9,80,8,1,8,9,1,I,7,L,1,S,11,0.797818,0.399406,0.318653
9,81,8,9,8,2,0,I,1,S,6,S,12,0.788049,0.414475,0.326626
9,82,8,1,8,2,1,C,7,L,6,S,9,0.824459,0.288365,0.237746
9,83,2,9,2,8,1,C,7,L,6,S,9,0.328626,0.765645,0.251611
9,84,9,2,9,2,1,C,7,L,7,L,9,0.832173,0.278448,0.231717
9,85,9,1,2,8,1,I,8,L,6,S,12,0.761601,0.504258,0.384044
9,86,2,1,1,2,1,I,1,S,1,S,15,0.76323,0.526192,0.401605
9,87,1,2,9,2,1,I,1,S,7,L,21,0.657437,0.751211,0.493874
9,88,9,2,1,8,1,I,7,L,7,L,14,0.75348,0.579008,0.436271
9,89,2,9,8,1,1,I,7,L,7,L,15,0.607127,0.751097,0.456011
9,90,8,1,9,2,1,C,7,L,7,L,9,0.857634,0.263892,0.226323
9,91,9,2,8,1,1,C,7,L,7,L,9,0.83209,0.279142,0.232271
9,92,2,9,1,2,1,C,7,L,1,S,10,0.352578,0.780321,0.275124
9,93,8,1,1,9,1,I,7,L,8,L,14,0.776925,0.568584,0.441747
9,94,2,8,9,2,1,I,6,S,7,L,16,0.607937,0.767977,0.466882
9,95,1,2,1,8,1,C,1,S,7,L,10,0.339025,0.797341,0.270318
9,96,1,2,9,8,1,I,1,S,1,S,17,0.573771,0.755955,0.433745
9,97,1,8,1,2,1,C,7,L,1,S,10,0.311193,0.837082,0.260494
9,98,1,8,9,2,1,I,7,L,7,L,13,0.563941,0.753462,0.424908
9,99,1,8,2,8,1,C,7,L,6,S,9,0.292205,0.815161,0.238194
9,100,9,2,8,9,1,I,7,L,1,S,11,0.766849,0.418222,0.320713
9,101,9,2,9,8,1,C,7,L,1,S,10,0.812681,0.326206,0.265101
9,102,2,8,1,2,1,C,6,S,1,S,10,0.358846,0.772112,0.277069
9,103,2,8,2,8,1,C,6,S,6,S,9,0.334002,0.758784,0.253435
9,104,1,8,8,1,1,I,7,L,7,L,13,0.564063,0.753933,0.425266
9,105,1,2,2,1,1,I,1,S,1,S,19,0.625727,0.752403,0.470799
9,106,9,1,9,1,1,C,8,L,8,L,8,0.775303,0.279573,0.216754
9,107,2,8,1,9,1,C,6,S,8,L,9,0.298306,0.806963,0.240722
9,108,9,8,1,9,0,I,1,S,8,L,11,0.4208,0.756296,0.31825
9,109,1,9,1,8,1,C,8,L,7,L,9,0.259509,0.85851,0.222791
9,110,1,8,9,1,1,I,7,L,8,L,14,0.588921,0.763337,0.449545
9,111,1,9,2,8,1,C,8,L,6,S,9,0.28827,0.820376,0.23649
9,112,2,8,1,8,1,C,6,S,7,L,9,0.305241,0.796918,0.243252
9,113,2,9,8,9,1,C,7,L,1,S,10,0.357825,0.776498,0.27785
9,114,9,2,2,8,1,I,7,L,6,S,13,0.758177,0.534131,0.404966
9,115,1,9,1,2,1,C,8,L,1,S,9,0.339403,0.754503,0.256081
9,116,9,1,8,1,1,C,8,L,7,L,8,0.752179,0.296443,0.222978
9,117,2,1,2,9,1,I,1,S,7,L,19,0.765512,0.628632,0.481225
9,118,8,2,2,1,1,C,6,S,1,S,9,0.756629,0.3354,0.253773
9,119,1,2,8,1,1,I,1,S,7,L,21,0.658051,0.751185,0.494318
9,120,1,9,8,1,1,I,8,L,7,L,13,0.559417,0.759834,0.425064
9,121,2,9,2,1,1,I,7,L,1,S,13,0.522067,0.7576,0.395518
9,122,8,2,9,2,1,C,6,S,7,L,9,0.826207,0.284907,0.235392
9,123,8,2,8,9,1,I,6,S,1,S,11,0.759544,0.425542,0.323218
9,124,9,8,2,1,1,C,1,S,1,S,12,0.794429,0.393678,0.312749
9,125,9,2,9,1,1,C,7,L,8,L,8,0.750231,0.296162,0.22219
9,126,1,2,1,2,1,C,1,S,1,S,12,0.37686,0.803463,0.302793
9,127,9,1,1,9,1,I,8,L,8,L,13,0.751913,0.563875,0.423985
9,128,2,1,8,2,1,C,1,S,6,S,10,0.792156,0.34628,0.274308
9,129,2,8,2,1,1,I,6,S,1,S,14,0.531293,0.778884,0.413816
9,130,1,8,9,8,1,I,7,L,1,S,11,0.41067,0.787973,0.323597
9,131,9,8,9,2,1,C,1,S,7,L,10,0.757248,0.379921,0.287694
9,132,2,8,8,1,1,I,6,S,7,L,16,0.608273,0.768232,0.467295
9,133,1,8,2,9,1,C,7,L,7,L,9,0.282619,0.828479,0.234144
9,134,9,8,1,8,0,I,1,S,7,L,12,0.425609,0.781921,0.332793
9,135,1,8,2,1,1,I,7,L,1,S,12,0.471589,0.785845,0.370596
9,136,8,1,2,9,1,I,7,L,7,L,13,0.777469,0.530504,0.41245
9,137,2,1,2,1,1,C,1,S,1,S,11,0.830595,0.340781,0.283051
9,138,9,1,8,2,1,C,8,L,6,S,9,0.829286,0.28291,0.234613
9,139,8,9,8,1,0,I,1,S,7,L,11,0.780185,0.399892,0.31199
9,140,8,2,1,8,1,I,6,S,7,L,15,0.774533,0.582698,0.451319
9,141,8,1,9,1,1,C,7,L,8,L,8,0.771258,0.284526,0.219443
9,142,8,9,2,8,1,C,1,S,6,S,12,0.403486,0.793241,0.320062
9,143,1,8,8,2,1,I,7,L,6,S,13,0.526137,0.782704,0.41181
9,144,8,2,1,2,1,I,6,S,1,S,11,0.753282,0.430773,0.324494
10,1,9,2,8,2,1,C,7,L,6,S,9,0.814136,0.294231,0.239544
10,2,1,8,9,2,1,I,7,L,7,L,12,0.52349,0.770974,0.403597
10,3,2,9,9,2,1,I,7,L,7,L,12,0.536485,0.752091,0.403486
10,4,9,2,8,9,1,I,7,L,1,S,11,0.752702,0.456403,0.343535
10,5,1,8,2,1,1,I,7,L,1,S,10,0.369509,0.791612,0.292508
10,6,2,9,2,8,1,C,7,L,6,S,9,0.264572,0.851616,0.225314
10,7,2,8,1,8,1,C,6,S,7,L,8,0.296433,0.75021,0.222387
10,8,2,9,1,8,1,C,7,L,7,L,8,0.278867,0.773549,0.215717
10,9,2,8,9,2,1,I,6,S,7,L,13,0.562719,0.754873,0.424781
10,10,9,1,2,8,1,I,8,L,6,S,11,0.777455,0.463519,0.360365
10,11,2,9,2,1,1,I,7,L,1,S,10,0.381616,0.773087,0.295023
10,12,8,9,8,9,1,C,1,S,1,S,12,0.422644,0.757812,0.320285
10,13,2,9,8,1,1,I,7,L,7,L,12,0.515727,0.765536,0.394808
10,14,8,1,8,2,1,C,7,L,6,S,8,0.780732,0.275768,0.215301
10,15,9,1,2,1,1,C,8,L,1,S,9,0.804894,0.303469,0.24426
10,16,8,1,2,8,1,I,7,L,6,S,10,0.752664,0.440162,0.331294
10,17,9,2,2,9,1,I,7,L,7,L,14,0.777374,0.569484,0.442702
10,18,8,2,9,2,1,C,6,S,7,L,8,0.773405,0.280399,0.216862
10,19,2,8,8,2,1,I,6,S,6,S,12,0.505167,0.761765,0.384819
10,20,9,1,8,1,1,C,8,L,7,L,8,0.785871,0.270736,0.212763
10,21,8,9,8,2,0,I,1,S,6,S,12,0.755944,0.438417,0.331419
10,22,1,2,1,8,1,C,1,S,7,L,9,0.341598,0.750553,0.256387
10,23,8,2,2,1,1,C,6,S,1,S,9,0.773318,0.324684,0.251084
10,24,1,9,1,2,1,C,8,L,1,S,9,0.271315,0.846904,0.229778
10,25,9,1,2,9,1,I,8,L,7,L,12,0.778791,0.519008,0.404199
10,26,2,9,1,2,1,C,7,L,1,S,9,0.298012,0.808367,0.240903
10,27,2,9,8,9,1,C,7,L,1,S,9,0.29514,0.811152,0.239404
10,28,8,2,9,8,1,C,6,S,1,S,9,0.808165,0.297992,0.240827
10,29,2,1,2,9,1,I,1,S,7,L,17,0.755476,0.627789,0.47428
10,30,2,9,9,1,1,I,7,L,8,L,13,0.558976,0.768279,0.429449
10,31,8,1,1,8,1,I,7,L,7,L,11,0.767313,0.48946,0.375569
10,32,8,2,1,9,1,I,6,S,8,L,13,0.757371,0.572808,0.433828
10,33,1,9,2,8,1,C,8,L,6,S,8,0.27666,0.77812,0.215275
10,34,1,8,1,2,1,C,7,L,1,S,9,0.286933,0.825697,0.236919
10,35,2,9,2,9,1,C,7,L,7,L,8,0.2746,0.779598,0.214078
10,36,8,1,8,1,1,C,7,L,7,L,8,0.803448,0.257186,0.206635
10,37,8,2,9,1,1,C,6,S,8,L,8,0.790715,0.266643,0.210839
10,38,2,8,9,8,1,I,6,S,1,S,11,0.453263,0.756415,0.342855
10,39,1,2,9,1,1,I,1,S,8,L,19,0.65143,0.750905,0.489162
10,40,9,2,9,8,1,C,7,L,1,S,9,0.780919,0.318946,0.249071
10,41,2,1,9,1,1,C,1,S,8,L,9,0.800943,0.302003,0.241887
10,42,8,9,9,2,0,I,1,S,7,L,11,0.768397,0.407873,0.313409
10,43,2,1,9,8,1,C,1,S,1,S,10,0.787079,0.344313,0.271001
10,44,1,9,8,9,1,C,8,L,1,S,9,0.268443,0.849689,0.228093
10,45,8,9,2,9,1,C,1,S,7,L,10,0.385466,0.750337,0.28923
10,46,8,1,9,8,1,C,7,L,1,S,8,0.755229,0.295321,0.223035
10,47,9,8,2,9,0,I,1,S,7,L,10,0.386349,0.753088,0.290955
10,48,9,8,9,8,1,C,1,S,1,S,14,0.770274,0.465726,0.358736
10,49,8,1,1,9,1,I,7,L,8,L,12,0.777818,0.530972,0.413
10,50,2,1,2,1,1,C,1,S,1,S,11,0.820155,0.344605,0.28263
10,51,9,1,8,9,1,I,8,L,1,S,10,0.768753,0.406936,0.312833
10,52,9,2,1,9,1,I,7,L,8,L,14,0.757891,0.594858,0.450837
10,53,9,8,1,9,0,I,1,S,8,L,10,0.366824,0.780799,0.286416
10,54,2,8,1,2,1,C,6,S,1,S,9,0.318129,0.781227,0.248531
10,55,1,8,2,9,1,C,7,L,7,L,8,0.264966,0.79489,0.210619
10,56,1,2,9,2,1,I,1,S,7,L,19,0.639274,0.762125,0.487207
10,57,1,8,8,1,1,I,7,L,7,L,12,0.502732,0.784418,0.394352
10,58,8,1,9,2,1,C,7,L,7,L,8,0.818954,0.248197,0.203262
10,59,8,9,2,8,1,C,1,S,6,S,11,0.402271,0.760408,0.30589
10,60,1,2,2,1,1,I,1,S,1,S,14,0.503968,0.757923,0.381969
10,61,9,8,1,8,0,I,1,S,7,L,11,0.372738,0.805343,0.300182
10,62,9,1,1,9,1,I,8,L,8,L,12,0.758473,0.546595,0.414577
10,63,1,9,8,2,1,I,8,L,6,S,11,0.446309,0.795103,0.354862
10,64,1,9,9,2,1,I,8,L,7,L,11,0.500163,0.756301,0.378274
10,65,2,8,2,9,1,C,6,S,7,L,8,0.292166,0.756259,0.220953
10,66,8,9,1,9,1,C,1,S,8,L,10,0.365941,0.778048,0.28472
10,67,8,2,8,9,1,I,6,S,1,S,11,0.783501,0.432557,0.338908
10,68,9,1,9,1,1,C,8,L,8,L,8,0.818686,0.247991,0.203027
10,69,1,8,1,9,1,C,7,L,8,L,8,0.248656,0.818546,0.203536
10,70,1,8,8,9,1,C,7,L,1,S,9,0.28406,0.828482,0.235339
10,71,9,2,2,8,1,I,7,L,6,S,12,0.750667,0.517781,0.388681
10,72,2,8,2,8,1,C,6,S,6,S,9,0.284689,0.824476,0.23472
10,73,8,1,2,9,1,I,7,L,7,L,11,0.761799,0.497084,0.378678
10,74,2,8,8,1,1,I,6,S,7,L,13,0.542259,0.76849,0.416721
10,75,9,8,2,1,0,C,1,S,1,S,26,0.648656,0.75412,0.489165
10,76,1,8,1,8,1,C,7,L,7,L,8,0.269233,0.788841,0.212382
10,77,9,8,2,8,0,I,1,S,6,S,11,0.402788,0.763655,0.307591
10,78,1,9,9,1,1,I,8,L,8,L,12,0.5268,0.77631,0.40896
10,79,8,2,8,2,1,C,6,S,6,S,9,0.841382,0.273278,0.229931
10,80,2,1,2,8,1,I,1,S,6,S,16,0.762886,0.595093,0.453989
10,81,1,8,9,1,1,I,7,L,8,L,12,0.54373,0.754489,0.410239
10,82,2,9,9,8,1,I,7,L,1,S,11,0.430325,0.786913,0.338628
10,83,8,1,8,9,1,I,7,L,1,S,10,0.788702,0.391436,0.308727
10,84,8,2,2,9,1,I,6,S,7,L,13,0.777421,0.546178,0.42461
10,85,8,1,2,1,1,C,7,L,1,S,9,0.824136,0.288678,0.23791
10,86,2,1,1,8,1,I,1,S,7,L,17,0.760163,0.621992,0.472816
10,87,2,8,9,1,1,I,6,S,8,L,14,0.580774,0.768625,0.446397
10,88,1,2,8,9,1,C,1,S,1,S,10,0.372731,0.750961,0.279907
10,89,9,2,9,1,1,C,7,L,8,L,8,0.767429,0.284954,0.218682
10,90,2,9,1,9,1,C,7,L,8,L,8,0.258291,0.803254,0.207473
10,91,9,1,1,8,1,I,8,L,7,L,12,0.784387,0.511437,0.401165
10,92,8,2,8,1,1,C,6,S,7,L,8,0.7579,0.289388,0.219327
10,93,1,2,2,8,1,C,1,S,6,S,10,0.336693,0.799687,0.269249
10,94,2,1,1,9,1,I,1,S,8,L,18,0.763092,0.637341,0.486349
10,95,1,8,9,8,1,I,7,L,1,S,10,0.41543,0.757166,0.31455
10,96,8,9,2,1,0,I,1,S,1,S,18,0.754002,0.531788,0.400969
10,97,9,8,8,9,0,I,1,S,1,S,12,0.422629,0.761726,0.321928
10,98,9,8,9,2,1,C,1,S,7,L,11,0.768914,0.411121,0.316117
10,99,2,1,8,2,1,C,1,S,6,S,10,0.827333,0.31494,0.260561
10,100,1,9,1,8,1,C,8,L,7,L,8,0.255107,0.808006,0.206128
10,101,9,2,1,2,1,I,7,L,1,S,11,0.756547,0.452141,0.342066
10,102,2,1,8,9,1,I,1,S,1,S,14,0.752577,0.54211,0.40798
10,103,1,9,2,9,1,C,8,L,7,L,8,0.25084,0.814055,0.204198
10,104,1,2,2,9,1,C,1,S,7,L,9,0.336734,0.757471,0.255066
10,105,8,9,8,1,0,I,1,S,7,L,12,0.789805,0.411786,0.32523
10,106,1,2,8,1,1,I,1,S,7,L,19,0.623876,0.773212,0.482389
10,107,2,1,9,2,1,C,1,S,7,L,9,0.781528,0.317228,0.247923
10,108,9,1,9,2,1,C,8,L,7,L,8,0.801376,0.261748,0.209758
10,109,1,9,9,8,1,I,8,L,1,S,10,0.398893,0.779353,0.310878
10,110,8,9,9,8,0,I,1,S,1,S,14,0.772004,0.459702,0.354892
10,111,1,2,9,8,1,I,1,S,1,S,16,0.581595,0.755896,0.439626
10,112,8,2,1,8,1,I,6,S,7,L,12,0.750402,0.535771,0.402044
10,113,8,2,1,2,1,I,6,S,1,S,11,0.787346,0.428295,0.337216
10,114,8,9,9,1,0,I,1,S,8,L,11,0.789079,0.391354,0.308809
10,115,2,8,8,9,1,C,6,S,1,S,9,0.315257,0.784012,0.247165
10,116,2,8,1,9,1,C,6,S,8,L,8,0.275856,0.779915,0.215144
10,117,8,9,1,2,1,C,1,S,1,S,12,0.426801,0.753077,0.321414
10,118,2,9,8,2,1,I,7,L,6,S,11,0.475982,0.75381,0.3588
10,119,8,9,1,8,1,C,1,S,7,L,11,0.372221,0.802096,0.298557
10,120,9,2,2,1,1,C,7,L,1,S,10,0.833141,0.314007,0.261612
10,121,9,2,1,8,1,I,7,L,7,L,13,0.753172,0.562791,0.423878
10,122,9,2,9,2,1,C,7,L,7,L,8,0.750119,0.29871,0.224068
10,123,1,8,2,8,1,C,7,L,6,S,8,0.290785,0.758955,0.220693
10,124,9,8,8,1,1,C,1,S,7,L,12,0.78979,0.415699,0.328315
10,125,9,8,8,2,1,C,1,S,6,S,12,0.755929,0.44233,0.33437
10,126,1,9,2,1,1,I,8,L,1,S,10,0.352972,0.813799,0.287248
10,127,9,2,8,1,1,C,7,L,7,L,9,0.841811,0.272415,0.229322
10,128,1,8,8,2,1,I,7,L,6,S,11,0.463254,0.772793,0.357999
10,129,1,2,8,2,1,I,1,S,6,S,18,0.611816,0.770578,0.471452
10,130,8,2,2,8,1,I,6,S,6,S,12,0.781379,0.49359,0.385681
10,131,8,1,1,2,1,I,7,L,1,S,10,0.792106,0.387856,0.307223
10,132,1,9,1,9,1,C,8,L,8,L,8,0.234531,0.837711,0.196469
10,133,2,1,1,2,1,I,1,S,1,S,14,0.756953,0.53712,0.406574
10,134,1,2,1,9,1,C,1,S,8,L,9,0.318481,0.783798,0.249625
10,135,2,8,2,1,1,I,6,S,1,S,11,0.396028,0.798521,0.316237
10,136,9,1,8,2,1,C,8,L,6,S,8,0.763154,0.289318,0.220794
10,137,8,1,9,1,1,C,7,L,8,L,8,0.836264,0.234441,0.196055
10,138,9,1,9,8,1,C,8,L,1,S,9,0.839741,0.276777,0.232421
10,139,1,9,8,1,1,I,8,L,7,L,11,0.479593,0.769237,0.368921
10,140,9,1,1,2,1,I,8,L,1,S,10,0.772157,0.403355,0.311454
10,141,9,8,1,2,0,I,1,S,1,S,12,0.426787,0.75699,0.323073
10,142,1,2,1,2,1,C,1,S,1,S,11,0.339564,0.829768,0.281759
10,143,2,1,8,1,1,C,1,S,7,L,9,0.763497,0.327936,0.250379
10,144,9,8,9,1,1,C,1,S,8,L,11,0.789596,0.394601,0.311576
11,1,2,9,8,1,1,I,7,L,7,L,13,0.551043,0.77353,0.426248
11,2,1,2,2,8,1,C,1,S,6,S,10,0.333253,0.806979,0.268928
11,3,1,8,9,1,1,I,7,L,8,L,12,0.530046,0.764013,0.404962
11,4,1,9,1,8,1,C,8,L,7,L,8,0.267307,0.78705,0.210384
11,5,2,8,9,1,1,I,6,S,8,L,13,0.546085,0.779471,0.425657
11,6,1,2,9,1,1,I,1,S,8,L,20,0.636604,0.772251,0.491618
11,7,9,2,9,8,1,C,7,L,1,S,10,0.765751,0.371961,0.28483
11,8,9,8,8,2,1,C,1,S,6,S,14,0.757555,0.518537,0.39282
11,9,9,8,1,2,0,I,1,S,1,S,12,0.39557,0.780466,0.308729
11,10,2,1,1,9,0,I,1,S,8,L,11,0.42052,0.758298,0.318879
11,11,8,9,2,9,1,C,1,S,7,L,11,0.375648,0.794518,0.298459
11,12,8,1,8,1,1,C,7,L,7,L,8,0.792035,0.266414,0.211009
11,13,8,2,9,8,1,C,6,S,1,S,10,0.790422,0.354971,0.280577
11,14,8,9,9,1,0,I,1,S,8,L,11,0.768096,0.408146,0.313495
11,15,1,8,2,1,1,I,7,L,1,S,10,0.398403,0.769073,0.306401
11,16,2,8,2,9,1,C,6,S,7,L,8,0.287352,0.763426,0.219372
11,17,2,9,1,2,1,C,7,L,1,S,9,0.317391,0.782159,0.24825
11,18,9,1,2,9,1,I,8,L,7,L,12,0.750094,0.531172,0.39843
11,19,9,1,8,1,1,C,8,L,7,L,8,0.776172,0.27699,0.214992
11,20,1,9,9,2,1,I,8,L,7,L,12,0.500703,0.78647,0.393788
11,21,1,8,1,2,1,C,7,L,1,S,9,0.307301,0.797487,0.245068
11,22,1,9,8,2,1,I,8,L,6,S,12,0.510522,0.77763,0.396997
11,23,9,2,2,8,1,I,7,L,6,S,14,0.776861,0.556194,0.432086
11,24,9,8,9,2,1,C,1,S,7,L,15,0.751039,0.550698,0.413596
11,25,2,8,2,1,1,I,6,S,1,S,10,0.411077,0.752108,0.309174
11,26,9,2,2,1,1,C,7,L,1,S,10,0.836041,0.309484,0.258741
11,27,2,9,1,8,1,C,7,L,7,L,8,0.277656,0.773171,0.214675
11,28,2,9,2,1,1,I,7,L,1,S,10,0.409392,0.752685,0.308143
11,29,2,1,9,1,1,C,1,S,8,L,10,0.766959,0.373216,0.286241
11,30,9,2,9,1,1,C,7,L,8,L,9,0.842596,0.27133,0.228621
11,31,9,8,2,1,0,C,1,S,1,S,20,0.620804,0.757819,0.470457
11,32,9,2,1,9,1,I,7,L,8,L,15,0.774618,0.585773,0.45375
11,33,1,9,8,1,1,I,8,L,7,L,12,0.535498,0.757728,0.405762
11,34,8,2,2,9,1,I,6,S,7,L,13,0.76144,0.550186,0.418934
11,35,1,9,9,8,1,I,8,L,1,S,9,0.347354,0.756615,0.262813
11,36,9,1,9,8,1,C,8,L,1,S,10,0.811194,0.340698,0.276372
11,37,8,9,1,8,1,C,1,S,7,L,11,0.365744,0.80635,0.294918
11,38,8,9,9,2,0,I,1,S,7,L,12,0.780446,0.422765,0.329945
11,39,9,1,1,9,1,I,8,L,8,L,13,0.764295,0.55562,0.424657
11,40,8,9,9,8,1,I,1,S,1,S,19,0.489658,0.771913,0.377973
11,41,2,8,8,2,1,I,6,S,6,S,12,0.524935,0.760515,0.399221
11,42,8,2,9,2,1,C,6,S,7,L,9,0.839186,0.275922,0.23155
11,43,2,1,2,8,0,I,1,S,6,S,12,0.450129,0.756978,0.340738
11,44,2,1,8,1,1,C,1,S,7,L,10,0.773887,0.366779,0.283845
11,45,8,2,9,1,1,C,6,S,8,L,8,0.754204,0.293677,0.221493
11,46,8,9,1,9,1,C,1,S,8,L,10,0.376531,0.756381,0.284801
11,47,1,2,1,8,1,C,1,S,7,L,10,0.311826,0.832683,0.259652
11,48,2,8,1,8,1,C,6,S,7,L,8,0.279363,0.772627,0.215843
11,49,1,2,8,1,1,I,1,S,7,L,20,0.639384,0.768759,0.491532
11,50,9,1,1,2,1,I,8,L,1,S,10,0.75444,0.399397,0.301321
11,51,8,1,8,9,1,I,7,L,1,S,10,0.82037,0.332946,0.273139
11,52,1,9,8,9,1,C,8,L,1,S,9,0.33934,0.759931,0.257875
11,53,2,1,8,2,1,C,1,S,6,S,11,0.813605,0.362775,0.295155
11,54,1,8,9,8,1,I,7,L,1,S,9,0.348879,0.756237,0.263835
11,55,2,1,2,9,0,I,1,S,7,L,12,0.437634,0.771746,0.337742
11,56,1,2,2,9,1,C,1,S,7,L,10,0.321423,0.821147,0.263935
11,57,1,9,2,9,1,C,8,L,7,L,8,0.275297,0.777849,0.214139
11,58,8,2,1,8,1,I,6,S,7,L,13,0.751701,0.561407,0.42201
11,59,9,8,2,8,0,I,1,S,6,S,10,0.373398,0.758093,0.283071
11,60,2,9,1,9,1,C,7,L,8,L,8,0.26997,0.781905,0.211091
11,61,1,2,2,1,1,I,1,S,1,S,16,0.563652,0.765445,0.431444
11,62,9,1,9,1,1,C,8,L,8,L,8,0.77027,0.282702,0.217757
11,63,8,1,1,9,1,I,7,L,8,L,12,0.75132,0.538852,0.40485
11,64,9,1,8,9,1,I,8,L,1,S,10,0.800699,0.346318,0.277297
11,65,9,8,1,9,0,I,1,S,8,L,10,0.34303,0.794307,0.272471
11,66,1,9,1,2,1,C,8,L,1,S,9,0.305776,0.797865,0.243968
11,67,1,2,1,9,1,C,1,S,8,L,9,0.335301,0.755504,0.253321
11,68,1,8,8,1,1,I,7,L,7,L,12,0.536716,0.757645,0.40664
11,69,2,1,1,2,1,I,1,S,1,S,23,0.754913,0.637214,0.481041
11,70,9,1,2,1,1,C,8,L,1,S,9,0.785674,0.316115,0.248363
11,71,1,2,8,9,1,C,1,S,1,S,12,0.414487,0.763853,0.316607
11,72,1,2,9,8,1,I,1,S,1,S,12,0.432629,0.750842,0.324836
11,73,1,8,1,9,1,C,7,L,8,L,8,0.261158,0.795416,0.207729
11,74,1,8,1,8,1,C,7,L,7,L,8,0.268843,0.786682,0.211494
11,75,1,9,9,1,1,I,8,L,8,L,12,0.528828,0.764097,0.404076
11,76,8,1,2,8,1,I,7,L,6,S,12,0.782814,0.502025,0.392992
11,77,9,2,9,2,1,C,7,L,7,L,9,0.817274,0.290964,0.237797
11,78,1,2,9,2,1,I,1,S,7,L,19,0.632679,0.765027,0.484016
11,79,9,8,2,9,0,I,1,S,7,L,10,0.361568,0.772262,0.279225
11,80,9,1,9,2,1,C,8,L,7,L,9,0.858078,0.263057,0.225724
11,81,2,8,9,2,1,I,6,S,7,L,12,0.515116,0.769355,0.396307
11,82,8,9,8,9,1,C,1,S,1,S,17,0.447103,0.778151,0.347914
11,83,8,2,8,2,1,C,6,S,6,S,9,0.847967,0.267947,0.22721
11,84,1,9,1,9,1,C,8,L,8,L,8,0.259622,0.795783,0.206603
11,85,1,8,8,2,1,I,7,L,6,S,12,0.511741,0.777546,0.397902
11,86,1,8,2,9,1,C,7,L,7,L,8,0.276833,0.777481,0.215232
11,87,2,9,2,9,1,C,7,L,7,L,8,0.285645,0.76397,0.218224
11,88,1,2,8,2,1,I,1,S,6,S,19,0.637928,0.759329,0.484397
11,89,8,2,2,8,1,I,6,S,6,S,13,0.773774,0.53588,0.41465
11,90,1,8,9,2,1,I,7,L,7,L,12,0.501922,0.786386,0.394704
11,91,1,9,2,1,1,I,8,L,1,S,10,0.396945,0.769395,0.305408
11,92,2,1,9,2,1,C,1,S,7,L,11,0.803685,0.371598,0.298648
11,93,8,2,1,2,1,I,6,S,1,S,11,0.786763,0.408677,0.321531
11,94,2,9,8,2,1,I,7,L,6,S,12,0.523475,0.760868,0.398295
11,95,2,8,9,8,1,I,6,S,1,S,10,0.340787,0.814585,0.2776
11,96,9,2,1,8,1,I,7,L,7,L,14,0.755543,0.580302,0.438443
11,97,8,2,8,9,1,I,6,S,1,S,10,0.779928,0.360591,0.281235
11,98,2,8,8,9,1,C,6,S,1,S,10,0.330293,0.820205,0.270908
11,99,9,8,8,1,1,C,1,S,7,L,12,0.755793,0.464368,0.350966
11,100,8,2,1,9,1,I,6,S,8,L,14,0.772768,0.570425,0.440806
11,101,1,9,2,8,1,C,8,L,6,S,8,0.284831,0.767093,0.218492
11,102,2,9,2,8,1,C,7,L,6,S,8,0.295179,0.753215,0.222333
11,103,9,1,2,8,1,I,8,L,6,S,12,0.76259,0.516404,0.393805
11,104,9,2,8,1,1,C,7,L,7,L,9,0.849207,0.265139,0.225158
11,105,2,8,2,8,1,C,6,S,6,S,8,0.296886,0.75267,0.223457
11,106,8,1,1,2,1,I,7,L,1,S,10,0.774111,0.386025,0.298826
11,107,9,8,9,1,1,C,1,S,8,L,13,0.766204,0.485466,0.371967
11,108,2,9,9,2,1,I,7,L,7,L,12,0.513656,0.769707,0.395364
11,109,2,1,2,1,1,C,1,S,1,S,12,0.762266,0.418167,0.318755
11,110,9,2,2,9,1,I,7,L,7,L,14,0.764923,0.56974,0.435807
11,111,8,9,1,2,1,C,1,S,1,S,13,0.43043,0.760832,0.327485
11,112,1,8,2,8,1,C,7,L,6,S,8,0.286367,0.766726,0.219565
11,113,8,1,9,2,1,C,7,L,7,L,8,0.76433,0.289394,0.221193
11,114,9,8,9,8,0,C,1,S,1,S,14,0.458769,0.754953,0.346349
11,115,9,2,8,2,1,C,7,L,6,S,9,0.826055,0.282989,0.233764
11,116,9,2,1,2,1,I,7,L,1,S,11,0.760502,0.427005,0.324738
11,117,1,8,8,9,1,C,7,L,1,S,9,0.340864,0.759554,0.258905
11,118,8,2,8,1,1,C,6,S,7,L,8,0.760106,0.287965,0.218884
11,119,8,1,1,8,1,I,7,L,7,L,12,0.760386,0.528476,0.401846
11,120,8,1,9,8,1,C,7,L,1,S,9,0.75348,0.350257,0.263912
11,121,2,9,8,9,1,C,7,L,1,S,10,0.328608,0.820782,0.269716
11,122,9,1,1,8,1,I,8,L,7,L,13,0.773119,0.545742,0.421924
11,123,8,1,8,2,1,C,7,L,6,S,8,0.771763,0.282303,0.217871
11,124,8,9,2,1,0,I,1,S,1,S,15,0.75487,0.491815,0.371256
11,125,2,1,1,8,0,I,1,S,7,L,12,0.427701,0.783429,0.335073
11,126,8,1,9,1,1,C,7,L,8,L,8,0.786133,0.272126,0.213927
11,127,9,1,8,2,1,C,8,L,6,S,8,0.755901,0.292879,0.221387
11,128,8,9,2,8,1,C,1,S,6,S,11,0.387999,0.77974,0.302538
11,129,8,9,8,2,0,I,1,S,6,S,12,0.790265,0.413925,0.32711
11,130,2,9,9,8,1,I,7,L,1,S,10,0.339102,0.815162,0.276423
11,131,9,8,1,8,0,I,1,S,7,L,10,0.351971,0.783797,0.275874
11,132,8,1,2,1,1,C,7,L,1,S,9,0.8039,0.30391,0.244313
11,133,2,8,1,2,1,C,6,S,1,S,9,0.319121,0.781557,0.249411
11,134,2,9,9,1,1,I,7,L,8,L,13,0.544775,0.779664,0.424741
11,135,9,8,8,9,0,I,1,S,1,S,14,0.427163,0.781215,0.333706
11,136,8,9,8,1,0,I,1,S,7,L,11,0.775013,0.401662,0.311294
11,137,2,1,9,8,1,C,1,S,1,S,15,0.750905,0.466241,0.350103
11,138,1,2,1,2,1,C,1,S,1,S,11,0.375566,0.779607,0.292794
11,139,2,1,8,9,1,I,1,S,1,S,17,0.783236,0.461011,0.361081
11,140,2,8,8,1,1,I,6,S,7,L,13,0.552352,0.773337,0.427154
11,141,2,8,1,9,1,C,6,S,8,L,8,0.271678,0.78136,0.212278
11,142,8,1,2,9,1,I,7,L,7,L,12,0.770319,0.516794,0.398096
11,143,8,2,2,1,1,C,6,S,1,S,9,0.766782,0.328979,0.252256
11,144,9,2,8,9,1,I,7,L,1,S,10,0.755257,0.377581,0.285171
12,1,2,9,9,2,1,I,7,L,7,L,13,0.559132,0.765993,0.428291
12,2,2,1,2,9,1,I,1,S,7,L,22,0.751245,0.655441,0.492397
12,3,8,9,2,1,0,I,1,S,1,S,16,0.770757,0.473992,0.365333
12,4,9,8,1,9,0,I,1,S,8,L,11,0.414868,0.763905,0.316919
12,5,8,9,1,2,1,C,1,S,1,S,14,0.457519,0.750833,0.34352
12,6,1,9,8,2,1,I,8,L,6,S,12,0.524671,0.751311,0.394191
12,7,9,2,9,8,1,C,7,L,1,S,9,0.788375,0.310209,0.244561
12,8,8,2,9,8,1,C,6,S,1,S,9,0.791285,0.308285,0.243942
12,9,1,2,2,1,1,I,1,S,1,S,21,0.602506,0.76764,0.462508
12,10,8,2,1,2,1,I,6,S,1,S,11,0.793324,0.396786,0.31478
12,11,9,2,1,2,1,I,7,L,1,S,11,0.789871,0.399132,0.315263
12,12,2,9,1,8,1,C,7,L,7,L,8,0.284358,0.762615,0.216856
12,13,8,9,2,9,1,C,1,S,7,L,11,0.404551,0.76657,0.310117
12,14,9,2,1,9,1,I,7,L,8,L,14,0.77298,0.569788,0.440435
12,15,8,1,1,2,1,I,7,L,1,S,10,0.796438,0.36438,0.290206
12,16,1,8,9,8,1,I,7,L,1,S,12,0.479048,0.778484,0.372931
12,17,1,2,9,1,0,I,1,S,8,L,11,0.765111,0.419071,0.320636
12,18,1,8,1,2,1,C,7,L,1,S,10,0.31295,0.831753,0.260297
12,19,2,1,9,8,1,C,1,S,1,S,11,0.785049,0.372198,0.292194
12,20,1,2,1,2,1,C,1,S,1,S,13,0.399682,0.79149,0.316344
12,21,2,8,9,8,1,I,6,S,1,S,11,0.461939,0.754564,0.348562
12,22,1,8,2,8,1,C,7,L,6,S,9,0.283493,0.823725,0.23352
12,23,8,2,8,9,1,I,6,S,1,S,10,0.781713,0.362473,0.283349
12,24,2,1,9,1,1,C,1,S,8,L,10,0.817847,0.326923,0.267373
12,25,9,8,8,9,1,I,1,S,1,S,17,0.75171,0.4817,0.362098
12,26,8,1,8,1,1,C,7,L,7,L,8,0.786742,0.271509,0.213607
12,27,2,9,1,9,1,C,7,L,8,L,8,0.279498,0.772178,0.215822
12,28,1,9,1,8,1,C,8,L,7,L,8,0.29324,0.751396,0.220339
12,29,8,2,8,1,1,C,6,S,7,L,9,0.848084,0.267965,0.227257
12,30,1,9,9,1,1,I,8,L,8,L,14,0.579994,0.77388,0.448846
12,31,1,2,1,9,1,C,1,S,8,L,10,0.364986,0.768927,0.280647
12,32,1,8,9,2,1,I,7,L,7,L,14,0.579226,0.768767,0.44529
12,33,1,2,8,9,1,C,1,S,1,S,15,0.452752,0.766796,0.347169
12,34,8,1,2,8,1,I,7,L,6,S,11,0.766827,0.470836,0.36105
12,35,9,1,2,8,1,I,8,L,6,S,11,0.76441,0.472452,0.361147
12,36,1,8,8,9,1,C,7,L,1,S,10,0.356806,0.788965,0.281508
12,37,1,2,8,2,0,I,1,S,6,S,13,0.764814,0.468936,0.358649
12,38,1,2,8,1,0,I,1,S,7,L,12,0.75832,0.45044,0.341578
12,39,2,8,2,8,1,C,6,S,6,S,9,0.272728,0.837592,0.228435
12,40,1,8,1,8,1,C,7,L,7,L,9,0.26436,0.849851,0.224667
12,41,2,9,9,1,1,I,7,L,8,L,13,0.570139,0.758275,0.432322
12,42,9,1,8,1,1,C,8,L,7,L,8,0.784752,0.27275,0.214041
12,43,8,2,1,9,1,I,6,S,8,L,14,0.776347,0.567337,0.44045
12,44,2,8,8,2,1,I,6,S,6,S,12,0.522226,0.753521,0.393508
12,45,9,1,2,9,1,I,8,L,7,L,11,0.75501,0.488139,0.36855
12,46,2,8,1,8,1,C,6,S,7,L,8,0.291041,0.753226,0.21922
12,47,1,9,2,9,1,C,8,L,7,L,9,0.267916,0.848275,0.227267
12,48,8,1,2,1,1,C,7,L,1,S,9,0.792912,0.313481,0.248563
12,49,8,2,8,2,1,C,6,S,6,S,9,0.833607,0.277494,0.231321
12,50,9,8,2,8,0,I,1,S,6,S,12,0.438291,0.760391,0.333272
12,51,8,1,9,8,1,C,7,L,1,S,9,0.845302,0.270981,0.229061
12,52,2,9,8,1,1,I,7,L,7,L,12,0.530103,0.753892,0.399641
12,53,1,8,1,9,1,C,7,L,8,L,8,0.295584,0.75098,0.221978
12,54,8,1,2,9,1,I,7,L,7,L,11,0.757427,0.486523,0.368506
12,55,8,9,2,8,1,C,1,S,6,S,11,0.413951,0.750884,0.310829
12,56,8,2,9,2,1,C,6,S,7,L,8,0.761999,0.287427,0.219019
12,57,9,2,2,1,1,C,7,L,1,S,10,0.820832,0.32279,0.264956
12,58,2,9,2,9,1,C,7,L,7,L,8,0.29493,0.751389,0.221607
12,59,2,1,2,1,1,C,1,S,1,S,12,0.762092,0.408242,0.311118
12,60,9,1,1,9,1,I,8,L,8,L,12,0.771462,0.52231,0.402942
12,61,8,2,2,8,1,I,6,S,6,S,13,0.778098,0.524113,0.407811
12,62,8,2,2,1,1,C,6,S,1,S,10,0.824089,0.320616,0.264216
12,63,8,9,8,9,1,C,1,S,1,S,21,0.489036,0.758034,0.370706
12,64,8,9,9,2,0,I,1,S,7,L,11,0.799621,0.383211,0.306423
12,65,1,2,2,9,1,C,1,S,7,L,11,0.358545,0.810101,0.290458
12,66,1,9,2,8,1,C,8,L,6,S,9,0.275116,0.835465,0.22985
12,67,2,9,9,8,1,I,7,L,1,S,11,0.45316,0.766682,0.34743
12,68,8,2,2,9,1,I,6,S,7,L,13,0.767723,0.540377,0.41486
12,69,8,1,9,1,1,C,7,L,8,L,8,0.818524,0.249028,0.203836
12,70,2,9,1,2,1,C,7,L,1,S,9,0.325389,0.770345,0.250662
12,71,9,2,2,9,1,I,7,L,7,L,13,0.764247,0.54285,0.414872
12,72,1,8,9,1,1,I,7,L,8,L,14,0.589787,0.761216,0.448955
12,73,2,8,9,2,1,I,6,S,7,L,13,0.568021,0.754243,0.428425
12,74,9,8,1,8,0,I,1,S,7,L,11,0.422212,0.751223,0.317175
12,75,2,9,8,9,1,C,7,L,1,S,10,0.336719,0.815885,0.274724
12,76,8,9,9,8,0,I,1,S,1,S,13,0.787583,0.4281,0.337164
12,77,9,2,8,1,1,C,7,L,7,L,9,0.845174,0.269889,0.228103
12,78,2,1,8,2,1,C,1,S,6,S,10,0.764051,0.364672,0.278628
12,79,9,8,9,2,1,C,1,S,7,L,10,0.769698,0.372906,0.287025
12,80,1,9,9,8,1,I,8,L,1,S,11,0.464438,0.752269,0.349382
12,81,9,1,8,2,1,C,8,L,6,S,8,0.772437,0.280835,0.216927
12,82,8,1,1,9,1,I,7,L,8,L,12,0.773859,0.520665,0.402921
12,83,8,9,1,9,1,C,1,S,8,L,11,0.383907,0.794423,0.304985
12,84,1,2,2,8,1,C,1,S,6,S,11,0.367945,0.794415,0.292301
12,85,2,8,1,9,1,C,6,S,8,L,8,0.286181,0.762789,0.218295
12,86,2,1,8,1,1,C,1,S,7,L,10,0.779981,0.354052,0.276154
12,87,1,2,9,8,1,I,1,S,1,S,24,0.635452,0.772107,0.490637
12,88,8,9,8,2,0,I,1,S,6,S,11,0.755964,0.414987,0.313715
12,89,2,1,9,2,1,C,1,S,7,L,10,0.806484,0.334299,0.269607
12,90,2,1,8,9,1,I,1,S,1,S,14,0.772922,0.438834,0.339185
12,91,2,8,9,1,1,I,6,S,8,L,14,0.577793,0.775739,0.448217
12,92,1,2,1,8,1,C,1,S,7,L,10,0.371733,0.7568,0.281328
12,93,8,1,8,9,1,I,7,L,1,S,9,0.763348,0.344008,0.262598
12,94,8,1,1,8,1,I,7,L,7,L,12,0.781574,0.507819,0.396898
12,95,2,8,8,1,1,I,6,S,7,L,13,0.54235,0.774515,0.420058
12,96,8,2,9,1,1,C,6,S,8,L,8,0.771809,0.281349,0.217148
12,97,2,1,1,9,0,I,1,S,8,L,13,0.492518,0.756022,0.372355
12,98,9,1,1,2,1,I,8,L,1,S,10,0.794068,0.365922,0.290567
12,99,2,8,1,2,1,C,6,S,1,S,9,0.333058,0.759499,0.252957
12,100,9,8,9,1,1,C,1,S,8,L,10,0.781061,0.36553,0.285501
12,101,9,8,8,1,1,C,1,S,7,L,11,0.803593,0.373131,0.299845
12,102,9,2,9,2,1,C,7,L,7,L,8,0.759573,0.289031,0.21954
12,103,9,1,1,8,1,I,8,L,7,L,12,0.779177,0.509464,0.396963
12,104,9,2,8,2,1,C,7,L,6,S,9,0.830696,0.279418,0.232111
12,105,9,8,2,1,1,C,1,S,1,S,14,0.791621,0.421471,0.333645
12,106,2,9,2,8,1,C,7,L,6,S,9,0.265058,0.848439,0.224886
12,107,9,2,2,8,1,I,7,L,6,S,13,0.774622,0.526586,0.407905
12,108,9,2,8,9,1,I,7,L,1,S,10,0.778455,0.364647,0.283861
12,109,8,9,1,8,1,C,1,S,7,L,11,0.391252,0.781741,0.305858
12,110,1,8,8,2,1,I,7,L,6,S,13,0.538163,0.771036,0.414943
12,111,2,9,8,2,1,I,7,L,6,S,12,0.513289,0.765601,0.392974
12,112,1,9,9,2,1,I,8,L,7,L,13,0.570361,0.752187,0.429018
12,113,9,1,9,8,1,C,8,L,1,S,9,0.843069,0.2724,0.229652
12,114,1,9,1,9,1,C,8,L,8,L,8,0.288379,0.760959,0.219445
12,115,2,9,2,1,1,I,7,L,1,S,10,0.379095,0.774029,0.29343
12,116,1,9,8,1,1,I,8,L,7,L,13,0.54469,0.772459,0.420751
12,117,9,1,2,1,1,C,8,L,1,S,9,0.790678,0.3149,0.248985
12,118,2,8,2,1,1,I,6,S,1,S,10,0.387462,0.762285,0.295356
12,119,9,8,2,9,0,I,1,S,7,L,12,0.428258,0.776605,0.332587
12,120,2,8,8,9,1,C,6,S,1,S,10,0.345086,0.804142,0.277498
12,121,9,1,8,9,1,I,8,L,1,S,9,0.761114,0.345427,0.26291
12,122,8,2,1,8,1,I,6,S,7,L,13,0.75461,0.554878,0.418716
12,123,2,1,2,8,1,I,1,S,6,S,22,0.758782,0.644684,0.489175
12,124,1,9,8,9,1,C,8,L,1,S,10,0.347571,0.801864,0.278705
12,125,1,9,1,2,1,C,8,L,1,S,9,0.335446,0.757372,0.254058
12,126,8,1,9,2,1,C,7,L,7,L,8,0.808714,0.255106,0.206307
12,127,8,9,8,1,0,I,1,S,7,L,11,0.772633,0.403648,0.311872
12,128,8,1,8,2,1,C,7,L,6,S,8,0.774427,0.279594,0.216525
12,129,2,1,1,2,1,I,1,S,1,S,18,0.756957,0.573851,0.43438
12,130,8,9,9,1,0,I,1,S,8,L,10,0.75905,0.387385,0.294045
12,131,1,8,2,9,1,C,7,L,7,L,9,0.276294,0.836534,0.231129
12,132,9,1,9,1,1,C,8,L,8,L,8,0.816534,0.25027,0.204354
12,133,1,2,9,2,0,I,1,S,7,L,11,0.753615,0.426742,0.321599
12,134,1,8,8,1,1,I,7,L,7,L,13,0.554686,0.759251,0.421146
12,135,9,2,1,8,1,I,7,L,7,L,13,0.751135,0.55735,0.418645
12,136,9,8,1,2,1,I,1,S,1,S,25,0.751418,0.644818,0.484528
12,137,9,2,9,1,1,C,7,L,8,L,8,0.769383,0.282954,0.2177
12,138,9,8,8,2,1,C,1,S,6,S,11,0.786924,0.384469,0.302548
12,139,9,1,9,2,1,C,8,L,7,L,8,0.806724,0.256347,0.206801
12,140,1,9,2,1,1,I,8,L,1,S,10,0.389947,0.760008,0.296363
12,141,1,8,2,1,1,I,7,L,1,S,11,0.390196,0.803092,0.313363
12,142,2,1,1,8,0,I,1,S,7,L,14,0.520591,0.752066,0.391519
12,143,2,8,2,9,1,C,6,S,7,L,9,0.265528,0.850401,0.225805
12,144,9,8,9,8,1,C,1,S,1,S,12,0.789527,0.400187,0.315959
13,1,1,8,1,9,1,C,7,L,8,L,8,0.282544,0.766731,0.216635
13,2,2,1,9,2,1,C,1,S,7,L,10,0.760887,0.366817,0.279106
13,3,2,1,1,9,0,I,1,S,8,L,13,0.488341,0.752025,0.367244
13,4,2,9,9,8,1,I,7,L,1,S,10,0.334578,0.812628,0.271888
13,5,9,1,8,9,1,I,8,L,1,S,10,0.806634,0.350363,0.282615
13,6,9,8,1,9,0,I,1,S,8,L,12,0.42552,0.782254,0.332864
13,7,1,9,2,1,1,I,8,L,1,S,10,0.35989,0.807319,0.290546
13,8,9,2,2,9,1,I,7,L,7,L,11,0.760032,0.462737,0.351695
13,9,1,8,2,8,1,C,7,L,6,S,9,0.260976,0.856445,0.223511
13,10,1,2,9,2,0,I,1,S,7,L,14,0.75397,0.516432,0.389374
13,11,8,1,2,1,1,C,7,L,1,S,9,0.798868,0.306265,0.244665
13,12,8,2,8,9,1,I,6,S,1,S,10,0.822584,0.33528,0.275796
13,13,8,9,2,9,1,C,1,S,7,L,12,0.391552,0.794395,0.311047
13,14,8,2,9,2,1,C,6,S,7,L,8,0.769803,0.279987,0.215535
13,15,1,8,9,8,1,I,7,L,1,S,10,0.338191,0.812682,0.274842
13,16,9,1,2,8,1,I,8,L,6,S,12,0.777949,0.500172,0.389108
13,17,9,8,9,1,1,C,1,S,8,L,11,0.810173,0.365275,0.295936
13,18,8,1,1,8,1,I,7,L,7,L,12,0.762635,0.528933,0.403383
13,19,2,8,8,1,1,I,6,S,7,L,13,0.531633,0.767662,0.408115
13,20,2,1,8,1,1,C,1,S,7,L,11,0.813439,0.352922,0.28708
13,21,1,2,2,8,1,C,1,S,6,S,11,0.350287,0.817858,0.286485
13,22,8,1,8,2,1,C,7,L,6,S,9,0.855899,0.26382,0.225803
13,23,1,8,2,1,1,I,7,L,1,S,10,0.387504,0.76987,0.298328
13,24,8,9,8,1,0,I,1,S,7,L,12,0.755116,0.439994,0.332246
13,25,9,1,9,1,1,C,8,L,8,L,8,0.766087,0.285497,0.218715
13,26,2,1,2,1,1,C,1,S,1,S,12,0.770479,0.401078,0.309022
13,27,2,8,1,9,1,C,6,S,8,L,9,0.271748,0.835874,0.227147
13,28,1,8,8,1,1,I,7,L,7,L,12,0.492607,0.78509,0.386741
13,29,9,1,1,2,1,I,8,L,1,S,11,0.795971,0.415633,0.330832
13,30,2,9,2,9,1,C,7,L,7,L,9,0.278667,0.829228,0.231079
13,31,1,9,2,8,1,C,8,L,6,S,8,0.274169,0.779353,0.213675
13,32,9,8,8,2,1,C,1,S,6,S,11,0.758265,0.406035,0.307882
13,33,1,9,1,8,1,C,8,L,7,L,8,0.24675,0.814732,0.201035
13,34,9,2,9,2,1,C,7,L,7,L,8,0.751351,0.295911,0.222333
13,35,8,1,8,1,1,C,7,L,7,L,8,0.760401,0.289403,0.220062
13,36,1,2,8,1,1,I,1,S,7,L,23,0.641831,0.770047,0.49424
13,37,2,9,9,2,1,I,7,L,7,L,12,0.510326,0.767866,0.391862
13,38,2,8,9,2,1,I,6,S,7,L,13,0.551823,0.751227,0.414544
13,39,8,9,1,8,1,C,1,S,7,L,10,0.373601,0.75786,0.283137
13,40,9,8,8,9,1,I,1,S,1,S,19,0.761049,0.532935,0.40559
13,41,8,1,9,2,1,C,7,L,7,L,8,0.774519,0.27766,0.215053
13,42,1,2,1,8,1,C,1,S,7,L,10,0.345187,0.791164,0.273099
13,43,2,8,2,9,1,C,6,S,7,L,9,0.310586,0.785641,0.244009
13,44,8,2,1,9,1,I,6,S,8,L,12,0.77265,0.512193,0.395746
13,45,2,1,8,9,1,I,1,S,1,S,15,0.759804,0.473295,0.359611
13,46,8,9,2,1,1,I,1,S,1,S,26,0.63547,0.766934,0.487364
13,47,2,1,9,1,1,C,1,S,8,L,10,0.773256,0.35716,0.276176
13,48,2,1,2,9,1,I,1,S,7,L,22,0.759236,0.640461,0.486261
13,49,2,1,2,8,1,I,1,S,6,S,23,0.764817,0.643518,0.492173
13,50,8,2,9,8,1,C,6,S,1,S,9,0.758338,0.340046,0.25787
13,51,9,2,2,8,1,I,7,L,6,S,12,0.771196,0.504277,0.388897
13,52,8,9,9,1,0,I,1,S,8,L,12,0.788511,0.413298,0.32589
13,53,9,8,8,1,1,C,1,S,7,L,11,0.776997,0.391434,0.304143
13,54,1,9,9,1,1,I,8,L,8,L,11,0.490996,0.758939,0.372636
13,55,9,1,1,8,1,I,8,L,7,L,13,0.774285,0.549724,0.425643
13,56,8,1,8,9,1,I,7,L,1,S,9,0.754685,0.351077,0.264953
13,57,8,9,2,8,1,C,1,S,6,S,11,0.388921,0.77209,0.300282
13,58,2,8,9,1,1,I,6,S,8,L,14,0.564498,0.770655,0.435033
13,59,9,1,9,8,1,C,8,L,1,S,10,0.820316,0.331609,0.272024
13,60,8,9,8,2,0,I,1,S,6,S,13,0.768795,0.449994,0.345953
13,61,2,9,8,9,1,C,7,L,1,S,9,0.344948,0.752791,0.259674
13,62,1,2,8,2,1,I,1,S,6,S,22,0.647971,0.756414,0.490134
13,63,9,8,2,1,1,C,1,S,1,S,13,0.775065,0.422366,0.327361
13,64,2,8,8,2,1,I,6,S,6,S,13,0.512303,0.783078,0.401173
13,65,8,2,2,9,1,I,6,S,7,L,11,0.782718,0.443591,0.347206
13,66,2,1,1,8,0,I,1,S,7,L,12,0.459403,0.753563,0.346189
13,67,2,9,1,2,1,C,7,L,1,S,9,0.298615,0.799926,0.23887
13,68,9,2,8,9,1,I,7,L,1,S,10,0.800218,0.353982,0.283263
13,69,1,2,2,1,1,I,1,S,1,S,19,0.603413,0.750698,0.452981
13,70,9,2,1,2,1,I,7,L,1,S,11,0.789284,0.419556,0.331149
13,71,1,8,1,2,1,C,7,L,1,S,9,0.302458,0.799774,0.241898
13,72,9,1,1,9,1,I,8,L,8,L,12,0.757186,0.527165,0.399162
13,73,8,2,2,8,1,I,6,S,6,S,11,0.755768,0.478851,0.361901
13,74,9,8,1,2,0,I,1,S,1,S,17,0.542995,0.752851,0.408794
13,75,9,2,9,1,1,C,7,L,8,L,8,0.760988,0.28813,0.219263
13,76,8,2,8,1,1,C,6,S,7,L,8,0.755685,0.29173,0.220456
13,77,8,9,8,9,1,C,1,S,1,S,16,0.431712,0.792346,0.342066
13,78,8,1,2,9,1,I,7,L,7,L,11,0.788593,0.440242,0.347172
13,79,1,8,9,2,1,I,7,L,7,L,12,0.513211,0.768622,0.394465
13,80,9,2,2,1,1,C,7,L,1,S,9,0.772539,0.326683,0.252376
13,81,9,8,1,8,0,I,1,S,7,L,11,0.414035,0.764865,0.316681
13,82,8,1,9,1,1,C,7,L,8,L,8,0.784156,0.269879,0.211627
13,83,2,8,8,9,1,C,6,S,1,S,10,0.355862,0.783653,0.278872
13,84,1,9,8,2,1,I,8,L,6,S,10,0.432391,0.754286,0.326147
13,85,8,9,9,2,0,I,1,S,7,L,12,0.77572,0.423526,0.328538
13,86,2,1,1,2,1,I,1,S,1,S,21,0.764012,0.619285,0.473142
13,87,8,9,9,8,1,I,1,S,1,S,19,0.491882,0.770142,0.378819
13,88,9,2,9,8,1,C,7,L,1,S,10,0.8139,0.335228,0.272842
13,89,2,9,8,2,1,I,7,L,6,S,11,0.464258,0.761437,0.353503
13,90,1,8,8,2,1,I,7,L,6,S,11,0.467538,0.761808,0.356174
13,91,9,8,2,8,0,I,1,S,6,S,12,0.446283,0.755261,0.33706
13,92,9,1,2,1,1,C,8,L,1,S,9,0.77843,0.323497,0.25182
