ANN,trial,N1,N2,P1,P2,Succ.,Cong,Ndist,Ndist,Pdist,Pdist,rt,a1,a2,x_acc
1,1,1,2,1,9,1,C,1,S,8,L,10,0.336603,0.810239,0.272729
1,2,1,2,2,9,1,C,1,S,7,L,10,0.350695,0.789162,0.276756
1,3,1,9,8,9,1,C,8,L,1,S,9,0.291812,0.817552,0.238572
1,4,8,9,1,2,1,C,1,S,1,S,14,0.442961,0.772641,0.34225
1,5,9,2,9,2,1,C,7,L,7,L,8,0.806857,0.260569,0.210242
1,6,9,1,2,1,1,C,8,L,1,S,9,0.843102,0.275447,0.23223
1,7,1,9,1,2,1,C,8,L,1,S,9,0.310583,0.794322,0.246703
1,8,1,8,1,8,1,C,7,L,7,L,8,0.245736,0.819474,0.201374
1,9,1,9,1,8,1,C,8,L,7,L,8,0.262653,0.796385,0.209173
1,10,8,2,8,2,1,C,6,S,6,S,9,0.855411,0.265697,0.227281
1,11,2,1,2,8,1,I,1,S,6,S,15,0.763635,0.590803,0.451158
1,12,2,8,8,9,1,C,6,S,1,S,9,0.307072,0.794044,0.243829
1,13,9,8,1,8,0,I,1,S,7,L,12,0.43851,0.778957,0.34158
1,14,2,9,8,9,1,C,7,L,1,S,9,0.332968,0.759138,0.252769
1,15,1,9,2,9,1,C,8,L,7,L,8,0.265889,0.789346,0.209879
1,16,2,1,1,9,1,I,1,S,8,L,16,0.764942,0.615371,0.470723
1,17,1,9,9,8,1,I,8,L,1,S,9,0.351772,0.751052,0.264199
1,18,8,9,2,8,1,C,1,S,6,S,11,0.389743,0.780749,0.304292
1,19,2,1,8,9,1,I,1,S,1,S,13,0.779646,0.496782,0.387314
1,20,9,2,9,8,1,C,7,L,1,S,9,0.779708,0.332979,0.259626
1,21,9,2,1,2,1,I,7,L,1,S,10,0.801329,0.370746,0.29709
1,22,8,9,9,1,0,I,1,S,8,L,11,0.799263,0.379998,0.303718
1,23,8,2,9,8,1,C,6,S,1,S,10,0.808877,0.343373,0.277746
1,24,9,2,8,1,1,C,7,L,7,L,8,0.8024,0.261451,0.209789
1,25,8,1,1,8,1,I,7,L,7,L,12,0.774599,0.525793,0.407279
1,26,2,8,1,9,1,C,6,S,8,L,8,0.267391,0.78694,0.210421
1,27,1,2,9,8,1,I,1,S,1,S,14,0.460518,0.751213,0.345947
1,28,8,2,9,1,1,C,6,S,8,L,8,0.779609,0.276601,0.215641
1,29,8,1,2,1,1,C,7,L,1,S,9,0.807118,0.299442,0.241685
1,30,2,9,1,8,1,C,7,L,7,L,9,0.262068,0.854685,0.223985
1,31,2,9,9,1,1,I,7,L,8,L,15,0.593296,0.772854,0.458531
1,32,2,8,8,2,1,I,6,S,6,S,12,0.521527,0.756078,0.394315
1,33,1,8,2,1,1,I,7,L,1,S,10,0.351734,0.810438,0.285059
1,34,9,2,2,8,1,I,7,L,6,S,11,0.756753,0.495775,0.375179
1,35,8,2,1,9,1,I,6,S,8,L,13,0.750821,0.575826,0.432342
1,36,1,8,1,9,1,C,7,L,8,L,8,0.237332,0.830458,0.197094
1,37,1,9,9,1,1,I,8,L,8,L,13,0.548656,0.781176,0.428597
1,38,2,9,9,2,1,I,7,L,7,L,14,0.583142,0.758081,0.442068
1,39,8,9,9,8,1,I,1,S,1,S,27,0.492638,0.777808,0.383178
1,40,9,2,8,9,1,I,7,L,1,S,10,0.777572,0.401198,0.31196
1,41,2,8,2,8,1,C,6,S,6,S,8,0.288875,0.756135,0.218428
1,42,1,2,8,1,0,I,1,S,7,L,13,0.768707,0.479841,0.368857
1,43,1,9,9,2,1,I,8,L,7,L,12,0.530357,0.762404,0.404346
1,44,8,1,8,2,1,C,7,L,6,S,8,0.785681,0.27352,0.214899
1,45,1,2,2,1,1,I,1,S,1,S,19,0.588012,0.760015,0.446897
1,46,8,9,8,1,0,I,1,S,7,L,11,0.777189,0.395799,0.30761
1,47,9,1,8,1,1,C,8,L,7,L,8,0.834449,0.238356,0.198896
1,48,8,9,9,2,0,I,1,S,7,L,11,0.783218,0.393559,0.308242
1,49,8,9,8,2,0,I,1,S,6,S,11,0.756275,0.413026,0.312362
1,50,1,9,1,9,1,C,8,L,8,L,8,0.254249,0.807369,0.205273
1,51,2,8,1,8,1,C,6,S,7,L,8,0.275795,0.775955,0.214005
1,52,1,2,1,2,1,C,1,S,1,S,12,0.402148,0.778179,0.312943
1,53,2,9,1,9,1,C,7,L,8,L,8,0.289535,0.757743,0.219393
1,54,2,8,8,1,1,I,6,S,7,L,13,0.545666,0.771397,0.420925
1,55,8,2,2,8,1,I,6,S,6,S,13,0.777668,0.540271,0.420151
1,56,1,2,9,1,0,I,1,S,8,L,12,0.771095,0.452207,0.348694
1,57,9,1,2,8,1,I,8,L,6,S,11,0.792254,0.468991,0.37156
1,58,8,2,8,9,1,I,6,S,1,S,11,0.777122,0.437609,0.340076
1,59,8,9,2,9,1,C,1,S,7,L,11,0.377484,0.796636,0.300717
1,60,9,1,9,8,1,C,8,L,1,S,9,0.814362,0.307813,0.250672
1,61,8,2,1,8,1,I,6,S,7,L,13,0.760397,0.56411,0.428948
1,62,2,9,2,9,1,C,7,L,7,L,9,0.265964,0.84675,0.225205
1,63,1,9,2,8,1,C,8,L,6,S,8,0.275733,0.776564,0.214124
1,64,1,2,9,2,0,I,1,S,7,L,12,0.755425,0.465688,0.351792
1,65,2,9,8,2,1,I,7,L,6,S,14,0.557788,0.777601,0.433736
1,66,9,8,2,8,0,I,1,S,6,S,12,0.455855,0.754452,0.34392
1,67,1,2,2,8,1,C,1,S,6,S,10,0.362544,0.773595,0.280462
1,68,9,8,8,1,1,C,1,S,7,L,10,0.768009,0.367165,0.281986
1,69,8,2,1,2,1,I,6,S,1,S,10,0.752633,0.404428,0.304386
1,70,9,8,2,9,0,I,1,S,7,L,12,0.443518,0.770132,0.341567
1,71,9,2,1,9,1,I,7,L,8,L,12,0.7667,0.538553,0.412909
1,72,2,1,2,1,1,C,1,S,1,S,10,0.78216,0.347913,0.272124
1,73,9,8,9,8,1,C,1,S,1,S,15,0.782669,0.441959,0.345908
1,74,1,8,9,8,1,I,7,L,1,S,9,0.332932,0.776827,0.258631
1,75,1,8,9,2,1,I,7,L,7,L,11,0.502983,0.752967,0.378729
1,76,9,8,1,2,1,I,1,S,1,S,21,0.757169,0.623499,0.472094
1,77,2,1,9,2,1,C,1,S,7,L,9,0.818302,0.291943,0.238897
1,78,2,8,2,9,1,C,6,S,7,L,8,0.279032,0.768917,0.214552
1,79,8,9,1,9,1,C,1,S,8,L,10,0.377439,0.763303,0.288101
1,80,8,1,9,8,1,C,7,L,1,S,9,0.778379,0.331808,0.258273
1,81,9,2,2,1,1,C,7,L,1,S,9,0.808448,0.300613,0.24303
1,82,2,1,9,1,1,C,1,S,8,L,9,0.833309,0.279363,0.232796
1,83,2,8,1,2,1,C,6,S,1,S,9,0.325843,0.770814,0.251164
1,84,9,2,9,1,1,C,7,L,8,L,8,0.82014,0.249173,0.204357
1,85,2,9,9,8,1,I,7,L,1,S,10,0.375725,0.762769,0.286591
1,86,2,8,9,1,1,I,6,S,8,L,13,0.566896,0.755502,0.428291
1,87,8,2,8,1,1,C,6,S,7,L,8,0.76187,0.28888,0.220089
1,88,8,9,2,1,0,I,1,S,1,S,15,0.756587,0.464121,0.351148
1,89,1,8,8,9,1,C,7,L,1,S,9,0.272973,0.843327,0.230205
1,90,8,9,1,8,1,C,1,S,7,L,10,0.38712,0.750724,0.29062
1,91,8,2,2,1,1,C,6,S,1,S,9,0.762695,0.331754,0.253027
1,92,8,1,9,1,1,C,7,L,8,L,8,0.819002,0.247824,0.202969
1,93,8,1,2,9,1,I,7,L,7,L,12,0.779607,0.516968,0.403032
1,94,8,1,2,8,1,I,7,L,6,S,11,0.755029,0.495048,0.373776
1,95,9,2,1,8,1,I,7,L,7,L,12,0.77651,0.526291,0.40867
1,96,8,2,9,2,1,C,6,S,7,L,8,0.766327,0.287997,0.2207
1,97,9,8,2,1,1,C,1,S,1,S,13,0.799496,0.394268,0.315216
1,98,9,1,8,2,1,C,8,L,6,S,8,0.818867,0.251772,0.206168
1,99,2,1,2,9,1,I,1,S,7,L,15,0.752387,0.604222,0.454609
1,100,9,1,9,1,1,C,8,L,8,L,8,0.852189,0.226077,0.19266
1,101,9,1,8,9,1,I,8,L,1,S,9,0.754403,0.374313,0.282383
1,102,9,8,9,2,1,C,1,S,7,L,10,0.773695,0.365311,0.282639
1,103,1,2,8,9,1,C,1,S,1,S,11,0.403247,0.752436,0.303417
1,104,2,8,9,8,1,I,6,S,1,S,10,0.347026,0.801617,0.278182
1,105,1,2,1,8,1,C,1,S,7,L,10,0.346283,0.797661,0.276217
1,106,1,9,8,2,1,I,8,L,6,S,12,0.503308,0.782348,0.393762
1,107,2,1,1,2,1,I,1,S,1,S,12,0.776748,0.450455,0.34989
1,108,9,1,1,2,1,I,8,L,1,S,9,0.773174,0.351083,0.271448
1,109,8,2,2,9,1,I,6,S,7,L,13,0.765517,0.555385,0.425157
1,110,1,2,8,2,0,I,1,S,6,S,14,0.760294,0.513422,0.390352
1,111,1,8,8,1,1,I,7,L,7,L,11,0.496953,0.755207,0.375303
1,112,9,1,1,8,1,I,8,L,7,L,11,0.775217,0.49365,0.382686
1,113,9,8,9,1,1,C,1,S,8,L,10,0.789582,0.352025,0.277953
1,114,2,1,9,8,1,C,1,S,1,S,11,0.807475,0.368575,0.297615
1,115,2,9,8,1,1,I,7,L,7,L,14,0.576855,0.761001,0.438987
1,116,9,1,1,9,1,I,8,L,8,L,11,0.765354,0.506241,0.387453
1,117,2,9,2,8,1,C,7,L,6,S,9,0.277015,0.832188,0.230529
1,118,8,1,8,9,1,I,7,L,1,S,10,0.776044,0.400242,0.310605
1,119,8,9,8,9,1,C,1,S,1,S,13,0.427469,0.778397,0.332741
1,120,2,1,8,2,1,C,1,S,6,S,9,0.794752,0.308608,0.245267
1,121,9,2,8,2,1,C,7,L,6,S,8,0.786819,0.274868,0.216272
1,122,1,8,2,9,1,C,7,L,7,L,8,0.248972,0.812435,0.202274
1,123,1,8,9,1,1,I,7,L,8,L,12,0.525319,0.775856,0.407572
1,124,2,9,1,2,1,C,7,L,1,S,10,0.319482,0.823824,0.263197
1,125,1,8,1,2,1,C,7,L,1,S,9,0.291744,0.820097,0.239258
1,126,1,9,2,1,1,I,8,L,1,S,10,0.371798,0.783288,0.291225
1,127,9,1,2,9,1,I,8,L,7,L,11,0.779995,0.484878,0.378203
1,128,2,9,2,1,1,I,7,L,1,S,11,0.409719,0.77335,0.316856
1,129,1,8,8,2,1,I,7,L,6,S,11,0.47604,0.772434,0.367709
1,130,9,1,9,2,1,C,8,L,7,L,8,0.838906,0.237473,0.199217
1,131,2,1,1,8,1,I,1,S,7,L,16,0.77322,0.605788,0.468407
1,132,8,1,1,9,1,I,7,L,8,L,12,0.76479,0.538055,0.411499
1,133,9,8,8,2,1,C,1,S,6,S,11,0.817295,0.356452,0.291327
1,134,8,1,1,2,1,I,7,L,1,S,10,0.799801,0.369791,0.295759
1,135,8,1,8,1,1,C,7,L,7,L,8,0.801262,0.260103,0.208411
1,136,9,8,8,9,1,I,1,S,1,S,22,0.752455,0.643422,0.484146
1,137,9,8,1,9,0,I,1,S,8,L,11,0.423862,0.761424,0.322739
1,138,2,8,9,2,1,I,6,S,7,L,13,0.551959,0.768631,0.424252
1,139,2,1,8,1,1,C,1,S,7,L,9,0.81314,0.293336,0.238523
1,140,2,8,2,1,1,I,6,S,1,S,10,0.3886,0.757863,0.294506
1,141,8,1,9,2,1,C,7,L,7,L,8,0.80572,0.25922,0.208859
1,142,9,2,2,9,1,I,7,L,7,L,12,0.781517,0.517466,0.404409
1,143,1,9,8,1,1,I,8,L,7,L,12,0.524139,0.764947,0.400938
1,144,1,8,2,8,1,C,7,L,6,S,8,0.258815,0.799654,0.206963
2,1,1,2,2,8,1,C,1,S,6,S,10,0.357373,0.781759,0.279379
2,2,2,8,1,2,1,C,6,S,1,S,9,0.301389,0.799075,0.240832
2,3,2,8,8,9,1,C,6,S,1,S,9,0.294132,0.806821,0.237312
2,4,9,2,8,1,1,C,7,L,7,L,8,0.784739,0.269859,0.211769
2,5,1,2,9,1,0,I,1,S,8,L,11,0.755561,0.430936,0.325598
2,6,2,9,2,9,1,C,7,L,7,L,8,0.249992,0.813138,0.203278
2,7,2,8,2,1,1,I,6,S,1,S,10,0.371511,0.780711,0.290043
2,8,9,1,9,8,1,C,8,L,1,S,9,0.777941,0.326588,0.254066
2,9,1,9,2,1,1,I,8,L,1,S,10,0.352191,0.814302,0.28679
2,10,9,2,2,9,1,I,7,L,7,L,13,0.755746,0.573681,0.433557
2,11,9,2,9,1,1,C,7,L,8,L,8,0.794525,0.264131,0.209858
2,12,2,1,9,2,1,C,1,S,7,L,10,0.773775,0.353982,0.273902
2,13,8,9,8,2,1,I,1,S,6,S,23,0.648475,0.758096,0.491606
2,14,1,8,8,2,1,I,7,L,6,S,11,0.461706,0.774725,0.357695
2,15,1,8,2,9,1,C,7,L,7,L,8,0.242653,0.824892,0.200162
2,16,2,1,9,8,1,C,1,S,1,S,13,0.812985,0.384484,0.31258
2,17,2,1,1,2,1,I,1,S,1,S,19,0.768973,0.597861,0.459739
2,18,9,1,8,9,1,I,8,L,1,S,10,0.762214,0.405454,0.309042
2,19,1,8,8,9,1,C,7,L,1,S,9,0.281014,0.829545,0.233114
2,20,2,1,9,1,1,C,1,S,8,L,10,0.828231,0.314682,0.260629
2,21,8,2,1,9,1,I,6,S,8,L,13,0.754781,0.569015,0.429481
2,22,9,2,9,2,1,C,7,L,7,L,8,0.750454,0.295888,0.22205
2,23,2,9,8,1,1,I,7,L,7,L,12,0.541254,0.750876,0.406414
2,24,9,2,2,1,1,C,7,L,1,S,9,0.768213,0.329832,0.253381
2,25,8,9,8,1,0,I,1,S,7,L,12,0.768981,0.446558,0.343394
2,26,8,2,1,2,1,I,6,S,1,S,11,0.793401,0.412711,0.327445
2,27,2,9,9,1,1,I,7,L,8,L,13,0.555236,0.775398,0.430529
2,28,9,8,8,1,1,C,1,S,7,L,11,0.756628,0.422816,0.319915
2,29,9,2,8,2,1,C,7,L,6,S,9,0.844381,0.26915,0.227265
2,30,9,1,2,9,1,I,8,L,7,L,13,0.779203,0.555226,0.432634
2,31,2,1,8,9,1,I,1,S,1,S,19,0.758513,0.609476,0.462295
2,32,1,8,1,8,1,C,7,L,7,L,8,0.26359,0.795348,0.209646
2,33,9,1,1,2,1,I,8,L,1,S,10,0.771072,0.39535,0.304843
2,34,2,9,8,9,1,C,7,L,1,S,9,0.289394,0.816348,0.236247
2,35,9,8,9,1,1,C,1,S,8,L,11,0.768311,0.415341,0.319111
2,36,1,9,8,2,1,I,8,L,6,S,11,0.456521,0.784262,0.358032
2,37,9,1,8,2,1,C,8,L,6,S,8,0.757643,0.289334,0.219212
2,38,8,9,2,8,1,C,1,S,6,S,10,0.354219,0.782655,0.277231
2,39,2,9,9,8,1,I,7,L,1,S,10,0.347465,0.8092,0.281169
2,40,2,8,8,1,1,I,6,S,7,L,13,0.550267,0.77235,0.424999
2,41,1,2,1,2,1,C,1,S,1,S,12,0.387776,0.793461,0.307685
2,42,9,1,1,8,1,I,8,L,7,L,12,0.773218,0.518409,0.400843
2,43,8,1,1,2,1,I,7,L,1,S,10,0.767385,0.395155,0.303236
2,44,1,8,1,9,1,C,7,L,8,L,8,0.245282,0.82016,0.201171
2,45,8,1,1,9,1,I,7,L,8,L,13,0.778232,0.550695,0.428568
2,46,8,1,8,9,1,I,7,L,1,S,10,0.758527,0.405258,0.3074
2,47,2,8,9,2,1,I,6,S,7,L,12,0.503335,0.77416,0.389662
2,48,2,1,8,2,1,C,1,S,6,S,10,0.755794,0.365754,0.276434
2,49,9,1,9,2,1,C,8,L,7,L,8,0.770559,0.28097,0.216504
2,50,1,8,2,8,1,C,7,L,6,S,8,0.260304,0.800949,0.20849
2,51,8,9,9,2,0,I,1,S,7,L,14,0.758135,0.506648,0.384107
2,52,8,2,9,8,1,C,6,S,1,S,9,0.752021,0.342558,0.257611
2,53,1,2,8,2,1,I,1,S,6,S,23,0.65161,0.756538,0.492968
2,54,2,8,8,2,1,I,6,S,6,S,12,0.483408,0.787726,0.380793
2,55,8,9,9,8,1,I,1,S,1,S,17,0.526582,0.759775,0.400084
2,56,1,8,9,2,1,I,7,L,7,L,11,0.481052,0.761842,0.366486
2,57,8,2,1,8,1,I,6,S,7,L,13,0.776905,0.540938,0.420258
2,58,1,8,2,1,1,I,7,L,1,S,10,0.357002,0.80501,0.28739
2,59,1,2,2,9,1,C,1,S,7,L,10,0.336626,0.809628,0.272542
2,60,1,9,1,8,1,C,8,L,7,L,8,0.260016,0.803182,0.208841
2,61,2,8,2,9,1,C,6,S,7,L,8,0.253894,0.804781,0.204329
2,62,1,8,8,1,1,I,7,L,7,L,12,0.531535,0.765053,0.406653
2,63,9,2,1,9,1,I,7,L,8,L,13,0.759228,0.568357,0.431513
2,64,8,2,9,2,1,C,6,S,7,L,9,0.857004,0.258123,0.221212
2,65,9,1,2,8,1,I,8,L,6,S,12,0.768532,0.525551,0.403903
2,66,9,8,1,8,0,I,1,S,7,L,10,0.371004,0.763474,0.283252
2,67,2,9,1,8,1,C,7,L,7,L,8,0.270929,0.783595,0.212299
2,68,8,9,1,2,1,C,1,S,1,S,12,0.383534,0.795726,0.305188
2,69,9,8,1,2,0,I,1,S,1,S,12,0.40453,0.772612,0.312545
2,70,9,8,2,1,0,C,1,S,1,S,21,0.615844,0.750943,0.462464
2,71,9,2,1,8,1,I,7,L,7,L,13,0.781352,0.54028,0.422149
2,72,1,9,2,8,1,C,8,L,6,S,8,0.25673,0.808783,0.207639
2,73,8,2,8,2,1,C,6,S,6,S,9,0.84122,0.268361,0.225751
2,74,9,8,8,2,1,C,1,S,6,S,13,0.751697,0.475057,0.357099
2,75,2,8,9,1,1,I,6,S,8,L,13,0.561559,0.764728,0.42944
2,76,8,1,2,9,1,I,7,L,7,L,13,0.77475,0.556018,0.430775
2,77,9,8,2,8,0,I,1,S,6,S,10,0.366732,0.770381,0.282524
2,78,8,9,8,9,1,C,1,S,1,S,12,0.372129,0.809701,0.301313
2,79,2,1,2,8,1,I,1,S,6,S,22,0.762199,0.649308,0.494902
2,80,8,1,9,8,1,C,7,L,1,S,9,0.774633,0.326024,0.252548
2,81,9,1,9,1,1,C,8,L,8,L,8,0.81463,0.249213,0.203016
2,82,9,8,9,2,1,C,1,S,7,L,13,0.771578,0.461194,0.355847
2,83,8,2,8,1,1,C,6,S,7,L,8,0.782032,0.268726,0.210152
2,84,8,9,2,1,1,I,1,S,1,S,19,0.589079,0.754352,0.444372
2,85,2,1,8,1,1,C,1,S,7,L,10,0.816746,0.321807,0.262835
2,86,8,2,8,9,1,I,6,S,1,S,11,0.783114,0.424995,0.33282
2,87,1,8,9,8,1,I,7,L,1,S,9,0.35425,0.752333,0.266514
2,88,1,2,2,1,1,I,1,S,1,S,19,0.593943,0.750654,0.445846
2,89,9,1,2,1,1,C,8,L,1,S,9,0.790972,0.313073,0.247632
2,90,9,8,2,9,0,I,1,S,7,L,10,0.345985,0.79825,0.276183
2,91,9,2,8,9,1,I,7,L,1,S,11,0.78704,0.425023,0.33451
2,92,8,2,2,1,1,C,6,S,1,S,9,0.765052,0.329043,0.251735
2,93,1,2,9,2,0,I,1,S,7,L,13,0.750405,0.488173,0.366327
2,94,1,9,9,2,1,I,8,L,7,L,11,0.475867,0.771379,0.367073
2,95,2,9,2,8,1,C,7,L,6,S,8,0.267643,0.789195,0.211222
2,96,2,8,1,9,1,C,6,S,8,L,8,0.256523,0.800049,0.205231
2,97,2,1,2,1,1,C,1,S,1,S,12,0.7833,0.389094,0.304777
2,98,2,9,1,2,1,C,7,L,1,S,9,0.296651,0.808603,0.239873
2,99,1,8,1,2,1,C,7,L,1,S,9,0.28827,0.821799,0.2369
2,100,8,9,2,9,1,C,1,S,7,L,10,0.333471,0.810524,0.270287
2,101,9,1,8,1,1,C,8,L,7,L,8,0.804843,0.254941,0.205188
2,102,2,1,2,9,0,I,1,S,7,L,12,0.476954,0.750165,0.357795
2,103,2,9,8,2,1,I,7,L,6,S,11,0.47125,0.760432,0.358353
2,104,9,2,1,2,1,I,7,L,1,S,11,0.797327,0.412739,0.329088
2,105,2,1,1,8,1,I,1,S,7,L,22,0.765397,0.644832,0.493552
2,106,1,2,8,9,1,C,1,S,1,S,12,0.37637,0.807436,0.303895
2,107,1,9,1,9,1,C,8,L,8,L,8,0.241709,0.827994,0.200133
2,108,1,9,9,1,1,I,8,L,8,L,12,0.537707,0.766983,0.412412
2,109,2,8,9,8,1,I,6,S,1,S,10,0.352864,0.798913,0.281908
2,110,9,8,8,9,0,I,1,S,1,S,12,0.393125,0.786587,0.309227
2,111,8,1,9,2,1,C,7,L,7,L,8,0.767686,0.280055,0.214995
2,112,2,9,9,2,1,I,7,L,7,L,12,0.497162,0.784936,0.39024
2,113,2,1,1,9,0,I,1,S,8,L,13,0.501207,0.757177,0.379502
2,114,1,9,9,8,1,I,8,L,1,S,9,0.349977,0.761077,0.26636
2,115,1,9,8,1,1,I,8,L,7,L,12,0.526122,0.77461,0.407539
2,116,9,8,1,9,0,I,1,S,8,L,10,0.349239,0.792808,0.276879
2,117,9,2,9,8,1,C,7,L,1,S,9,0.755182,0.343347,0.25929
2,118,1,8,9,1,1,I,7,L,8,L,12,0.54312,0.757426,0.411373
2,119,8,1,9,1,1,C,7,L,8,L,8,0.811757,0.248298,0.201558
2,120,8,1,8,1,1,C,7,L,7,L,8,0.801971,0.254026,0.203722
2,121,1,9,1,2,1,C,8,L,1,S,9,0.283997,0.830544,0.235872
2,122,1,9,2,9,1,C,8,L,7,L,8,0.239079,0.832726,0.199087
2,123,9,2,2,8,1,I,7,L,6,S,13,0.776637,0.547282,0.425039
2,124,2,8,1,8,1,C,6,S,7,L,8,0.274831,0.775237,0.213059
2,125,2,9,1,9,1,C,7,L,8,L,8,0.252621,0.808406,0.204221
2,126,8,9,1,9,1,C,1,S,8,L,10,0.336725,0.805082,0.271091
2,127,1,2,9,8,1,I,1,S,1,S,17,0.531975,0.75544,0.401875
2,128,8,1,2,1,1,C,7,L,1,S,9,0.787664,0.312508,0.246151
2,129,8,2,2,8,1,I,6,S,6,S,13,0.77219,0.547939,0.423113
2,130,1,2,8,1,0,I,1,S,7,L,12,0.773222,0.444293,0.343537
2,131,9,1,1,9,1,I,8,L,8,L,12,0.750716,0.547586,0.411082
2,132,1,2,1,8,1,C,1,S,7,L,10,0.361645,0.774851,0.280221
2,133,8,2,9,1,1,C,6,S,8,L,8,0.791819,0.262998,0.208247
2,134,8,1,8,2,1,C,7,L,6,S,8,0.754771,0.28842,0.217691
2,135,1,2,1,9,1,C,1,S,8,L,10,0.33988,0.804186,0.273326
2,136,8,9,9,1,0,I,1,S,8,L,11,0.751867,0.432472,0.325161
2,137,8,2,2,9,1,I,6,S,7,L,13,0.751299,0.574338,0.4315
2,138,2,9,2,1,1,I,7,L,1,S,10,0.366112,0.790999,0.289595
2,139,8,1,2,8,1,I,7,L,6,S,12,0.764281,0.526047,0.402048
2,140,8,9,1,8,1,C,1,S,7,L,10,0.358491,0.775747,0.278098
2,141,8,1,1,8,1,I,7,L,7,L,12,0.768967,0.518905,0.399021
2,142,2,8,2,8,1,C,6,S,6,S,8,0.271545,0.780837,0.212032
2,143,9,8,9,8,0,C,1,S,1,S,19,0.563062,0.757086,0.426286
2,144,1,9,8,9,1,C,8,L,1,S,9,0.276741,0.838289,0.231989
3,1,2,8,8,2,1,I,6,S,6,S,13,0.54644,0.771048,0.421332
3,2,9,2,2,1,1,C,7,L,1,S,9,0.768587,0.325008,0.249797
3,3,8,9,9,8,0,I,1,S,1,S,14,0.760091,0.466167,0.35433
3,4,8,9,8,1,0,I,1,S,7,L,11,0.773311,0.403648,0.312146
3,5,1,9,9,1,1,I,8,L,8,L,12,0.524514,0.775173,0.406589
3,6,9,8,8,1,1,C,1,S,7,L,11,0.788434,0.38397,0.302735
3,7,2,1,8,9,1,I,1,S,1,S,15,0.751997,0.498959,0.375216
3,8,9,1,9,8,1,C,8,L,1,S,9,0.816639,0.291717,0.238228
3,9,9,2,1,8,1,I,7,L,7,L,13,0.757494,0.558931,0.423387
3,10,1,8,9,2,1,I,7,L,7,L,12,0.517778,0.783118,0.405481
3,11,2,1,8,2,1,C,1,S,6,S,10,0.800796,0.33552,0.268683
3,12,1,8,1,8,1,C,7,L,7,L,8,0.243064,0.820394,0.199408
3,13,8,2,8,9,1,I,6,S,1,S,11,0.808228,0.37489,0.302997
3,14,8,2,2,1,1,C,6,S,1,S,10,0.837132,0.308019,0.257852
3,15,2,9,2,1,1,I,7,L,1,S,11,0.410857,0.787747,0.323651
3,16,1,8,9,8,1,I,7,L,1,S,10,0.375728,0.797456,0.299627
3,17,8,1,8,9,1,I,7,L,1,S,10,0.793977,0.35798,0.284228
3,18,2,8,2,1,1,I,6,S,1,S,10,0.401635,0.75141,0.301792
3,19,2,1,2,8,1,I,1,S,6,S,21,0.764889,0.63442,0.485261
3,20,9,2,1,2,1,I,7,L,1,S,10,0.753379,0.391038,0.2946
3,21,8,9,2,8,1,C,1,S,6,S,12,0.394326,0.80187,0.316199
3,22,2,9,2,8,1,C,7,L,6,S,9,0.28601,0.820818,0.234762
3,23,2,8,1,9,1,C,6,S,8,L,8,0.263586,0.788447,0.207823
3,24,9,8,9,2,1,C,1,S,7,L,10,0.752009,0.384594,0.289218
3,25,1,9,2,1,1,I,8,L,1,S,10,0.370236,0.797629,0.295311
3,26,2,1,1,2,1,I,1,S,1,S,17,0.761416,0.553823,0.421689
3,27,1,2,8,9,1,C,1,S,1,S,11,0.35276,0.807625,0.284897
3,28,2,9,1,2,1,C,7,L,1,S,10,0.307224,0.836683,0.257049
3,29,9,2,2,9,1,I,7,L,7,L,13,0.776863,0.532527,0.4137
3,30,8,2,2,9,1,I,6,S,7,L,13,0.753109,0.551704,0.415493
3,31,2,9,9,1,1,I,7,L,8,L,14,0.572705,0.774913,0.443796
3,32,9,8,2,8,0,I,1,S,6,S,12,0.415989,0.77539,0.322553
3,33,9,1,1,8,1,I,8,L,7,L,12,0.765825,0.526647,0.403319
3,34,9,1,8,1,1,C,8,L,7,L,8,0.791638,0.264974,0.209764
3,35,2,9,8,1,1,I,7,L,7,L,13,0.557361,0.757725,0.422326
3,36,8,1,2,8,1,I,7,L,6,S,11,0.75496,0.47546,0.358954
3,37,1,8,8,1,1,I,7,L,7,L,11,0.492863,0.761121,0.375128
3,38,9,2,9,8,1,C,7,L,1,S,9,0.779163,0.316908,0.246923
3,39,9,8,9,1,1,C,1,S,8,L,10,0.750128,0.386634,0.290025
3,40,1,2,1,8,1,C,1,S,7,L,9,0.298016,0.7998,0.238353
3,41,1,9,2,8,1,C,8,L,6,S,8,0.28296,0.768404,0.217428
3,42,1,8,2,1,1,I,7,L,1,S,10,0.361717,0.807956,0.292251
3,43,9,2,8,9,1,I,7,L,1,S,10,0.771421,0.371552,0.286623
3,44,1,9,1,9,1,C,8,L,8,L,8,0.238089,0.826937,0.196885
3,45,8,9,1,8,1,C,1,S,7,L,11,0.370881,0.807429,0.29946
3,46,9,2,9,1,1,C,7,L,8,L,8,0.77261,0.277241,0.214199
3,47,8,9,2,9,1,C,1,S,7,L,11,0.389847,0.780372,0.304226
3,48,2,9,2,9,1,C,7,L,7,L,9,0.264805,0.847535,0.224431
3,49,2,9,1,8,1,C,7,L,7,L,8,0.286456,0.760293,0.21779
3,50,2,8,8,1,1,I,6,S,7,L,13,0.544342,0.773316,0.420948
3,51,8,9,1,9,1,C,1,S,8,L,10,0.373475,0.768039,0.286844
3,52,1,9,8,2,1,I,8,L,6,S,12,0.510093,0.78518,0.400515
3,53,9,1,8,9,1,I,8,L,1,S,10,0.811727,0.34406,0.279283
3,54,2,8,9,8,1,I,6,S,1,S,11,0.415308,0.791131,0.328563
3,55,1,9,1,8,1,C,8,L,7,L,8,0.250658,0.811205,0.203335
3,56,9,1,2,1,1,C,8,L,1,S,9,0.806063,0.299817,0.241672
3,57,1,9,2,9,1,C,8,L,7,L,8,0.264867,0.790338,0.209335
3,58,2,1,1,9,0,I,1,S,8,L,13,0.496396,0.760128,0.377325
3,59,2,8,2,8,1,C,6,S,6,S,9,0.274341,0.835309,0.22916
3,60,9,8,8,2,1,C,1,S,6,S,11,0.790784,0.381548,0.301722
3,61,1,8,2,8,1,C,7,L,6,S,8,0.275366,0.777593,0.214123
3,62,2,9,9,2,1,I,7,L,7,L,14,0.574118,0.773189,0.443902
3,63,9,1,9,2,1,C,8,L,7,L,8,0.807053,0.253396,0.204504
3,64,8,1,2,1,1,C,7,L,1,S,9,0.789305,0.312916,0.246986
3,65,2,1,9,2,1,C,1,S,7,L,10,0.81687,0.324111,0.264757
3,66,8,9,1,2,1,C,1,S,1,S,14,0.439904,0.768049,0.337868
3,67,8,9,9,1,0,I,1,S,8,L,11,0.790179,0.391404,0.309279
3,68,8,1,9,2,1,C,7,L,7,L,8,0.792188,0.265184,0.210076
3,69,2,1,1,8,1,I,1,S,7,L,22,0.759337,0.651577,0.494767
3,70,9,2,1,9,1,I,7,L,8,L,14,0.772633,0.574769,0.444086
3,71,1,2,8,1,1,I,1,S,7,L,16,0.615416,0.750485,0.461861
3,72,2,8,1,2,1,C,6,S,1,S,9,0.326982,0.764329,0.249922
3,73,1,9,9,8,1,I,8,L,1,S,10,0.384247,0.787129,0.302452
3,74,1,8,9,1,1,I,7,L,8,L,12,0.516048,0.785066,0.405131
3,75,1,2,2,1,1,I,1,S,1,S,13,0.474261,0.776215,0.368128
3,76,8,2,9,8,1,C,6,S,1,S,9,0.758107,0.333357,0.25272
3,77,2,1,8,1,1,C,1,S,7,L,10,0.798443,0.337935,0.269821
3,78,2,9,8,2,1,I,7,L,6,S,13,0.55946,0.755457,0.422648
3,79,1,2,2,9,1,C,1,S,7,L,9,0.314419,0.775685,0.24389
3,80,1,8,2,9,1,C,7,L,7,L,8,0.257274,0.799527,0.205697
3,81,8,1,1,8,1,I,7,L,7,L,13,0.780795,0.54359,0.424432
3,82,2,1,2,1,1,C,1,S,1,S,12,0.812826,0.367973,0.299098
3,83,2,8,9,1,1,I,6,S,8,L,13,0.560476,0.761073,0.426563
3,84,1,9,9,2,1,I,8,L,7,L,12,0.526244,0.773226,0.406905
3,85,9,2,2,8,1,I,7,L,6,S,12,0.76975,0.496372,0.382083
3,86,2,9,8,9,1,C,7,L,1,S,10,0.325266,0.817197,0.265806
3,87,1,2,8,2,1,I,1,S,6,S,17,0.608906,0.772989,0.470677
3,88,8,2,9,1,1,C,6,S,8,L,8,0.754873,0.291514,0.220056
3,89,9,1,8,2,1,C,8,L,6,S,8,0.793603,0.262817,0.208572
3,90,9,1,1,9,1,I,8,L,8,L,12,0.751104,0.54455,0.409014
3,91,1,8,8,2,1,I,7,L,6,S,11,0.495213,0.758699,0.375717
3,92,8,2,9,2,1,C,6,S,7,L,8,0.75654,0.289619,0.219108
3,93,2,9,1,9,1,C,7,L,8,L,8,0.273887,0.776025,0.212543
3,94,8,1,9,8,1,C,7,L,1,S,9,0.799881,0.304816,0.243817
3,95,2,8,2,9,1,C,6,S,7,L,8,0.290364,0.751848,0.21831
3,96,8,1,8,1,1,C,7,L,7,L,8,0.776772,0.276762,0.214981
3,97,1,9,8,1,1,I,8,L,7,L,11,0.501453,0.750875,0.376529
3,98,8,2,8,1,1,C,6,S,7,L,9,0.849151,0.26535,0.225322
3,99,8,2,8,2,1,C,6,S,6,S,9,0.851382,0.263019,0.22393
3,100,8,9,9,2,0,I,1,S,7,L,11,0.792016,0.389387,0.308401
3,101,8,9,8,9,1,C,1,S,1,S,15,0.453807,0.760643,0.345185
3,102,8,2,1,8,1,I,6,S,7,L,14,0.763779,0.577393,0.441001
3,103,1,9,8,9,1,C,8,L,1,S,9,0.311473,0.79392,0.247285
3,104,8,9,8,2,0,I,1,S,6,S,11,0.775661,0.401226,0.311215
3,105,9,8,9,8,1,C,1,S,1,S,13,0.757661,0.44065,0.333864
3,106,9,2,9,2,1,C,7,L,7,L,8,0.774276,0.275346,0.213194
3,107,9,8,2,9,0,I,1,S,7,L,11,0.40497,0.760694,0.308058
3,108,9,2,8,2,1,C,7,L,6,S,8,0.760826,0.284766,0.216658
3,109,8,2,1,2,1,I,6,S,1,S,11,0.784867,0.401376,0.315027
3,110,8,1,2,9,1,I,7,L,7,L,12,0.767595,0.513882,0.394453
3,111,2,8,1,8,1,C,6,S,7,L,8,0.276155,0.772715,0.213389
3,112,8,9,2,1,0,I,1,S,1,S,15,0.763887,0.475365,0.363125
3,113,1,8,8,9,1,C,7,L,1,S,9,0.303272,0.803934,0.243811
3,114,9,1,9,1,1,C,8,L,8,L,8,0.805387,0.255292,0.205608
3,115,1,8,1,2,1,C,7,L,1,S,9,0.289795,0.81776,0.236983
3,116,9,8,2,1,1,C,1,S,1,S,14,0.777579,0.436231,0.339204
3,117,1,2,2,8,1,C,1,S,6,S,10,0.29877,0.843627,0.252051
3,118,8,1,1,9,1,I,7,L,8,L,13,0.766436,0.560675,0.429721
3,119,1,2,9,2,1,I,1,S,7,L,17,0.621222,0.763047,0.474021
3,120,8,1,8,2,1,C,7,L,6,S,8,0.778737,0.274605,0.213845
3,121,2,8,8,9,1,C,6,S,1,S,9,0.340459,0.750503,0.255515
3,122,1,2,9,8,1,I,1,S,1,S,13,0.497283,0.759596,0.377734
3,123,9,8,1,8,0,I,1,S,7,L,11,0.386004,0.78775,0.304075
3,124,1,9,1,2,1,C,8,L,1,S,9,0.297997,0.807747,0.240706
3,125,1,2,9,1,1,I,1,S,8,L,17,0.620332,0.764358,0.474156
3,126,9,1,1,2,1,I,8,L,1,S,10,0.793685,0.363546,0.288541
3,127,9,1,2,8,1,I,8,L,6,S,11,0.772932,0.461169,0.356452
3,128,1,8,1,9,1,C,7,L,8,L,8,0.230495,0.836126,0.192723
3,129,9,1,2,9,1,I,8,L,7,L,12,0.785218,0.499594,0.392291
3,130,9,2,8,1,1,C,7,L,7,L,8,0.758861,0.286924,0.217735
3,131,9,8,8,9,0,I,1,S,1,S,17,0.4826,0.753867,0.363816
3,132,2,1,9,1,1,C,1,S,8,L,10,0.814989,0.326151,0.26581
3,133,8,2,2,8,1,I,6,S,6,S,13,0.778954,0.519587,0.404735
3,134,9,8,1,9,0,I,1,S,8,L,10,0.383724,0.753447,0.289116
3,135,2,1,9,8,1,C,1,S,1,S,11,0.759016,0.390353,0.296284
3,136,9,8,1,2,0,I,1,S,1,S,15,0.46635,0.754167,0.351706
3,137,2,9,9,8,1,I,7,L,1,S,11,0.428399,0.774874,0.331955
3,138,8,1,1,2,1,I,7,L,1,S,10,0.775936,0.377466,0.292889
3,139,1,2,1,2,1,C,1,S,1,S,10,0.364399,0.753707,0.27465
3,140,2,1,2,9,1,I,1,S,7,L,22,0.771393,0.636475,0.490973
3,141,8,2,1,9,1,I,6,S,8,L,15,0.777273,0.589114,0.457902
3,142,2,8,9,2,1,I,6,S,7,L,13,0.562059,0.759227,0.42673
3,143,8,1,9,1,1,C,7,L,8,L,8,0.790521,0.26708,0.211132
3,144,1,2,1,9,1,C,1,S,8,L,9,0.284221,0.817271,0.232285
4,1,1,9,2,1,1,I,8,L,1,S,10,0.357156,0.801497,0.286259
4,2,1,8,9,2,1,I,7,L,7,L,13,0.540423,0.771846,0.417123
4,3,1,2,1,2,1,C,1,S,1,S,11,0.38567,0.764416,0.294812
4,4,1,9,1,2,1,C,8,L,1,S,9,0.283485,0.825337,0.233971
4,5,9,1,9,1,1,C,8,L,8,L,8,0.807503,0.25175,0.203289
4,6,1,2,1,9,1,C,1,S,8,L,10,0.326866,0.811328,0.265195
4,7,8,2,1,2,1,I,6,S,1,S,11,0.779801,0.424845,0.331295
4,8,1,8,8,9,1,C,7,L,1,S,10,0.339194,0.80399,0.272708
4,9,2,8,8,9,1,C,6,S,1,S,10,0.368315,0.769891,0.283562
4,10,2,9,9,2,1,I,7,L,7,L,12,0.518822,0.768264,0.398592
4,11,8,9,9,1,0,I,1,S,8,L,14,0.751617,0.54038,0.406159
4,12,9,1,9,8,1,C,8,L,1,S,9,0.755838,0.341987,0.258487
4,13,2,1,9,1,1,C,1,S,8,L,9,0.765176,0.330709,0.253051
4,14,2,1,9,2,1,C,1,S,7,L,10,0.812757,0.328491,0.266983
4,15,2,8,1,9,1,C,6,S,8,L,9,0.268862,0.846944,0.227711
4,16,9,2,9,2,1,C,7,L,7,L,9,0.859434,0.25922,0.222782
4,17,9,8,1,8,0,I,1,S,7,L,12,0.468741,0.752515,0.352734
4,18,8,2,9,2,1,C,6,S,7,L,9,0.857173,0.260405,0.223212
4,19,9,2,1,2,1,I,7,L,1,S,11,0.782438,0.423338,0.331236
4,20,2,1,2,8,1,I,1,S,6,S,20,0.753515,0.651369,0.490817
4,21,9,2,8,1,1,C,7,L,7,L,8,0.772462,0.278815,0.215374
4,22,8,1,1,9,1,I,7,L,8,L,12,0.754597,0.534316,0.403193
4,23,2,9,1,8,1,C,7,L,7,L,8,0.263588,0.794791,0.209497
4,24,1,8,9,1,1,I,7,L,8,L,14,0.576183,0.771393,0.444464
4,25,1,2,8,9,1,C,1,S,1,S,13,0.41986,0.773648,0.324824
4,26,9,1,2,8,1,I,8,L,6,S,12,0.754525,0.535293,0.403891
4,27,2,9,8,9,1,C,7,L,1,S,9,0.346548,0.753853,0.261247
4,28,9,2,2,8,1,I,7,L,6,S,13,0.754851,0.563705,0.425513
4,29,1,9,2,8,1,C,8,L,6,S,8,0.249063,0.808649,0.201405
4,30,2,9,1,2,1,C,7,L,1,S,9,0.302758,0.803911,0.24339
4,31,9,8,2,8,0,I,1,S,6,S,13,0.489394,0.76189,0.372865
4,32,2,1,8,1,1,C,1,S,7,L,9,0.755297,0.338293,0.255511
4,33,9,1,1,8,1,I,8,L,7,L,12,0.750104,0.541884,0.406469
4,34,2,1,8,2,1,C,1,S,6,S,10,0.796967,0.340633,0.271473
4,35,2,9,9,1,1,I,7,L,8,L,13,0.559019,0.770728,0.430851
4,36,1,2,8,2,1,I,1,S,6,S,21,0.642406,0.760814,0.488752
4,37,1,9,8,2,1,I,8,L,6,S,11,0.475479,0.766177,0.364302
4,38,1,9,8,1,1,I,8,L,7,L,12,0.527026,0.76778,0.40464
4,39,9,2,1,8,1,I,7,L,7,L,13,0.750432,0.570132,0.427845
4,40,8,2,9,1,1,C,6,S,8,L,8,0.779501,0.272854,0.21269
4,41,1,2,2,9,1,C,1,S,7,L,10,0.331343,0.804326,0.266507
4,42,2,8,9,8,1,I,6,S,1,S,10,0.377707,0.75898,0.286672
4,43,1,9,1,8,1,C,8,L,7,L,8,0.245785,0.814071,0.200086
4,44,8,9,8,1,1,I,1,S,7,L,22,0.645169,0.768971,0.496116
4,45,9,1,8,9,1,I,8,L,1,S,10,0.824004,0.329743,0.271709
4,46,2,9,2,8,1,C,7,L,6,S,8,0.266866,0.789369,0.210656
4,47,8,2,2,8,1,I,6,S,6,S,13,0.752177,0.565345,0.425239
4,48,1,9,9,1,1,I,8,L,8,L,12,0.537067,0.7597,0.40801
4,49,1,8,9,8,1,I,7,L,1,S,10,0.348586,0.793079,0.276456
4,50,1,2,8,1,1,I,1,S,7,L,22,0.650312,0.762156,0.495639
4,51,9,1,2,9,1,I,8,L,7,L,12,0.761695,0.525831,0.400522
4,52,8,9,1,2,1,C,1,S,1,S,11,0.382518,0.769444,0.294326
4,53,8,1,9,1,1,C,7,L,8,L,8,0.805748,0.252574,0.203511
4,54,2,9,8,1,1,I,7,L,7,L,13,0.549428,0.778614,0.427792
4,55,2,8,9,1,1,I,6,S,8,L,15,0.600778,0.766693,0.460612
4,56,9,2,8,9,1,I,7,L,1,S,10,0.791761,0.354278,0.280503
4,57,1,9,1,9,1,C,8,L,8,L,8,0.251188,0.806622,0.202614
4,58,1,8,2,9,1,C,7,L,7,L,8,0.284157,0.759766,0.215893
4,59,2,1,8,9,1,I,1,S,1,S,13,0.780965,0.424704,0.331679
4,60,9,2,2,1,1,C,7,L,1,S,9,0.75722,0.334526,0.25331
4,61,1,2,9,2,1,I,1,S,7,L,21,0.651065,0.752904,0.49019
4,62,8,1,9,2,1,C,7,L,7,L,8,0.773867,0.276966,0.214335
4,63,1,2,9,8,1,I,1,S,1,S,14,0.423119,0.793532,0.335759
4,64,8,9,2,8,1,C,1,S,6,S,10,0.32214,0.8176,0.263382
4,65,2,9,2,1,1,I,7,L,1,S,10,0.377194,0.779147,0.29389
4,66,1,8,1,2,1,C,7,L,1,S,9,0.316725,0.77871,0.246637
4,67,1,8,8,2,1,I,7,L,6,S,12,0.520045,0.752501,0.391335
4,68,9,8,1,9,0,I,1,S,8,L,13,0.49161,0.75978,0.373516
4,69,8,1,8,2,1,C,7,L,6,S,8,0.761785,0.286568,0.218303
4,70,2,8,1,8,1,C,6,S,7,L,9,0.262808,0.855315,0.224784
4,71,9,2,1,9,1,I,7,L,8,L,13,0.757067,0.561595,0.425165
4,72,9,8,8,1,1,C,1,S,7,L,10,0.806789,0.334271,0.269686
4,73,9,2,9,8,1,C,7,L,1,S,10,0.801153,0.343367,0.27509
4,74,9,8,2,1,1,C,1,S,1,S,12,0.775445,0.396669,0.307595
4,75,9,8,8,9,1,I,1,S,1,S,14,0.759418,0.45292,0.343955
4,76,2,8,8,1,1,I,6,S,7,L,15,0.592342,0.773908,0.458418
4,77,1,2,1,8,1,C,1,S,7,L,10,0.320387,0.820192,0.262779
4,78,9,1,8,1,1,C,8,L,7,L,8,0.79854,0.258668,0.206557
4,79,8,9,8,2,1,I,1,S,6,S,21,0.636958,0.768118,0.489259
4,80,2,9,9,8,1,I,7,L,1,S,10,0.332824,0.820476,0.273074
4,81,1,8,8,1,1,I,7,L,7,L,13,0.567481,0.750205,0.425727
4,82,2,8,9,2,1,I,6,S,7,L,14,0.570729,0.767405,0.43798
4,83,9,8,2,9,0,I,1,S,7,L,13,0.496478,0.752744,0.373721
4,84,9,2,9,1,1,C,7,L,8,L,8,0.781425,0.271897,0.212467
4,85,2,8,8,2,1,I,6,S,6,S,13,0.554577,0.750346,0.416125
4,86,2,8,2,1,1,I,6,S,1,S,11,0.416142,0.770897,0.320803
4,87,8,9,9,2,1,I,1,S,7,L,21,0.645617,0.760209,0.490804
4,88,9,8,8,2,1,C,1,S,6,S,10,0.763132,0.367499,0.28045
4,89,9,2,8,2,1,C,7,L,6,S,9,0.845115,0.270302,0.228436
4,90,8,2,8,2,1,C,6,S,6,S,9,0.842854,0.271487,0.228824
4,91,8,1,2,9,1,I,7,L,7,L,12,0.759454,0.527118,0.400322
4,92,8,1,2,1,1,C,7,L,1,S,9,0.78519,0.312753,0.245571
4,93,1,9,8,9,1,C,8,L,1,S,9,0.327276,0.775279,0.25373
4,94,9,1,8,2,1,C,8,L,6,S,8,0.76354,0.285744,0.218177
4,95,1,8,2,8,1,C,7,L,6,S,8,0.278526,0.767506,0.21377
4,96,1,2,2,1,1,I,1,S,1,S,17,0.553547,0.766752,0.424433
4,97,9,1,1,2,1,I,8,L,1,S,10,0.76453,0.399206,0.305205
4,98,9,8,9,1,1,C,1,S,8,L,10,0.817084,0.326295,0.266611
4,99,1,9,9,8,1,I,8,L,1,S,9,0.333685,0.767405,0.256072
4,100,2,8,2,9,1,C,6,S,7,L,9,0.27293,0.840429,0.229378
4,101,2,1,2,1,1,C,1,S,1,S,11,0.755813,0.3926,0.296732
4,102,2,9,8,2,1,I,7,L,6,S,12,0.502295,0.781274,0.39243
4,103,9,8,9,8,1,C,1,S,1,S,14,0.79493,0.415765,0.330504
4,104,8,2,8,1,1,C,6,S,7,L,8,0.770538,0.279772,0.215575
4,105,9,2,2,9,1,I,7,L,7,L,13,0.761935,0.554559,0.422538
4,106,1,8,1,9,1,C,7,L,8,L,8,0.280651,0.765479,0.214832
4,107,9,8,9,2,1,C,1,S,7,L,10,0.778921,0.355357,0.276795
4,108,1,2,2,8,1,C,1,S,6,S,10,0.324501,0.813705,0.264048
4,109,8,1,8,9,1,I,7,L,1,S,10,0.821857,0.330874,0.271931
4,110,8,1,2,8,1,I,7,L,6,S,12,0.752283,0.53658,0.40366
4,111,8,9,1,9,1,C,1,S,8,L,10,0.324505,0.815223,0.264544
4,112,1,9,9,2,1,I,8,L,7,L,11,0.491962,0.753407,0.370647
4,113,1,8,2,1,1,I,7,L,1,S,10,0.392956,0.75175,0.295405
4,114,1,9,2,9,1,C,8,L,7,L,8,0.254694,0.80091,0.203987
4,115,2,1,9,8,1,C,1,S,1,S,13,0.806951,0.397098,0.320438
4,116,8,2,1,8,1,I,6,S,7,L,14,0.777011,0.57111,0.443758
4,117,8,2,2,1,1,C,6,S,1,S,9,0.754959,0.335711,0.253448
4,118,8,9,1,8,1,C,1,S,7,L,10,0.318026,0.824087,0.262081
4,119,8,1,9,8,1,C,7,L,1,S,9,0.753844,0.342983,0.258556
4,120,8,9,2,9,1,C,1,S,7,L,10,0.328982,0.80822,0.26589
4,121,8,9,9,8,1,I,1,S,1,S,13,0.441158,0.753333,0.332339
4,122,2,1,1,2,1,I,1,S,1,S,17,0.7704,0.575676,0.443501
4,123,8,2,8,9,1,I,6,S,1,S,10,0.789261,0.355648,0.280699
4,124,8,9,2,1,1,I,1,S,1,S,17,0.547445,0.775585,0.42459
4,125,8,2,1,9,1,I,6,S,8,L,13,0.754393,0.563235,0.424901
4,126,2,1,1,9,1,I,1,S,8,L,20,0.754712,0.650569,0.490993
4,127,8,2,2,9,1,I,6,S,7,L,13,0.759261,0.556199,0.4223
4,128,2,9,2,9,1,C,7,L,7,L,8,0.272497,0.781629,0.212992
4,129,2,1,1,8,1,I,1,S,7,L,20,0.750214,0.655879,0.492049
4,130,8,2,9,8,1,C,6,S,1,S,10,0.798653,0.344737,0.275326
4,131,9,1,1,9,1,I,8,L,8,L,12,0.756838,0.533028,0.403416
4,132,1,2,9,1,0,I,1,S,8,L,13,0.753106,0.506463,0.381421
4,133,8,9,8,9,1,C,1,S,1,S,13,0.415172,0.780938,0.324224
4,134,8,1,1,2,1,I,7,L,1,S,10,0.762384,0.400337,0.30521
4,135,9,8,1,2,1,I,1,S,1,S,20,0.766459,0.612664,0.469581
4,136,2,9,1,9,1,C,7,L,8,L,8,0.268991,0.787342,0.211788
4,137,2,8,2,8,1,C,6,S,6,S,9,0.266574,0.849217,0.22638
4,138,9,1,9,2,1,C,8,L,7,L,8,0.775622,0.276142,0.214182
4,139,8,1,8,1,1,C,7,L,7,L,8,0.796785,0.259492,0.206759
4,140,2,8,1,2,1,C,6,S,1,S,10,0.308841,0.839354,0.259227
4,141,9,1,2,1,1,C,8,L,1,S,9,0.787183,0.311758,0.24541
4,142,8,1,1,8,1,I,7,L,7,L,13,0.779848,0.546075,0.425855
4,143,2,1,2,9,1,I,1,S,7,L,20,0.758332,0.645692,0.489649
4,144,1,8,1,8,1,C,7,L,7,L,8,0.275248,0.772928,0.212747
5,1,8,2,1,2,1,I,6,S,1,S,12,0.790016,0.449948,0.355467
5,2,8,1,8,9,1,I,7,L,1,S,10,0.789511,0.365476,0.288548
5,3,2,9,8,9,1,C,7,L,1,S,9,0.319113,0.779952,0.248893
5,4,1,2,2,8,1,C,1,S,6,S,10,0.311875,0.828507,0.25839
5,5,9,8,9,8,1,C,1,S,1,S,13,0.753599,0.437799,0.329925
5,6,9,1,1,8,1,I,8,L,7,L,12,0.771848,0.523844,0.404328
5,7,8,1,9,1,1,C,7,L,8,L,8,0.796642,0.265447,0.211466
5,8,9,8,1,2,1,I,1,S,1,S,24,0.767557,0.636518,0.488564
5,9,9,1,8,2,1,C,8,L,6,S,8,0.78805,0.268439,0.211543
5,10,2,8,2,1,1,I,6,S,1,S,10,0.37492,0.777794,0.29161
5,11,9,8,2,8,0,I,1,S,6,S,12,0.439788,0.76699,0.337313
5,12,2,9,9,1,1,I,7,L,8,L,12,0.54421,0.751882,0.409182
5,13,2,1,9,1,1,C,1,S,8,L,10,0.804006,0.34107,0.274222
5,14,9,1,1,2,1,I,8,L,1,S,10,0.777113,0.39183,0.304497
5,15,8,9,9,1,1,I,1,S,8,L,21,0.658273,0.754818,0.496876
5,16,9,1,2,1,1,C,8,L,1,S,9,0.791244,0.31364,0.248166
5,17,8,1,1,2,1,I,7,L,1,S,10,0.758961,0.405654,0.307875
5,18,9,2,2,8,1,I,7,L,6,S,13,0.765866,0.545127,0.417494
5,19,2,9,2,1,1,I,7,L,1,S,10,0.359089,0.79663,0.286061
5,20,1,2,2,9,1,C,1,S,7,L,9,0.324304,0.767656,0.248954
5,21,2,1,1,2,1,I,1,S,1,S,20,0.752663,0.624589,0.470105
5,22,1,8,2,9,1,C,7,L,7,L,8,0.260553,0.795641,0.207307
5,23,2,8,2,9,1,C,6,S,7,L,8,0.270629,0.783617,0.21207
5,24,2,9,2,9,1,C,7,L,7,L,8,0.257089,0.799241,0.205476
5,25,8,2,8,2,1,C,6,S,6,S,9,0.831692,0.279085,0.232112
5,26,8,9,9,8,1,I,1,S,1,S,15,0.508916,0.76302,0.388313
5,27,9,1,9,8,1,C,8,L,1,S,9,0.79126,0.316847,0.250709
5,28,1,2,8,9,1,C,1,S,1,S,11,0.38721,0.761501,0.294861
5,29,1,8,8,1,1,I,7,L,7,L,13,0.549641,0.779102,0.428226
5,30,2,8,8,1,1,I,6,S,7,L,13,0.561591,0.765166,0.42971
5,31,8,9,1,8,1,C,1,S,7,L,10,0.323699,0.819282,0.2652
5,32,2,9,1,2,1,C,7,L,1,S,9,0.296261,0.809663,0.239872
5,33,2,1,9,2,1,C,1,S,7,L,10,0.774976,0.361564,0.280203
5,34,8,9,8,9,1,C,1,S,1,S,12,0.385485,0.790646,0.304782
5,35,2,9,9,2,1,I,7,L,7,L,12,0.514748,0.773564,0.398191
5,36,8,1,9,8,1,C,7,L,1,S,9,0.77409,0.329833,0.25532
5,37,1,9,2,8,1,C,8,L,6,S,8,0.266012,0.786101,0.209112
5,38,8,2,2,9,1,I,6,S,7,L,15,0.774781,0.589412,0.456665
5,39,8,1,1,9,1,I,7,L,8,L,13,0.767352,0.564492,0.433164
5,40,1,9,1,8,1,C,8,L,7,L,8,0.255806,0.802479,0.205279
5,41,8,2,8,9,1,I,6,S,1,S,11,0.78614,0.397444,0.312446
5,42,1,8,9,2,1,I,7,L,7,L,12,0.518627,0.769476,0.399071
5,43,1,9,2,9,1,C,8,L,7,L,8,0.248158,0.809942,0.200994
5,44,9,2,9,8,1,C,7,L,1,S,10,0.826235,0.321948,0.266005
5,45,1,9,9,1,1,I,8,L,8,L,12,0.533864,0.764055,0.407902
5,46,8,2,1,9,1,I,6,S,8,L,15,0.764466,0.604023,0.461755
5,47,9,2,2,9,1,I,7,L,7,L,14,0.773083,0.572686,0.442734
5,48,8,1,8,2,1,C,7,L,6,S,8,0.772765,0.280101,0.216452
5,49,1,8,1,8,1,C,7,L,7,L,8,0.268201,0.788178,0.21139
5,50,9,8,8,2,1,C,1,S,6,S,10,0.752505,0.380634,0.286429
5,51,8,2,9,2,1,C,6,S,7,L,9,0.831757,0.281006,0.233729
5,52,1,2,8,2,1,I,1,S,6,S,19,0.629677,0.766504,0.48265
5,53,9,8,9,2,1,C,1,S,7,L,10,0.752667,0.382443,0.287852
5,54,1,8,1,9,1,C,7,L,8,L,8,0.252268,0.809582,0.204232
5,55,1,9,8,2,1,I,8,L,6,S,12,0.503898,0.7843,0.395207
5,56,9,2,1,9,1,I,7,L,8,L,14,0.762458,0.587971,0.448304
5,57,8,2,2,1,1,C,6,S,1,S,10,0.80091,0.337789,0.270539
5,58,8,9,8,1,1,I,1,S,7,L,21,0.656007,0.755293,0.495478
5,59,2,9,9,8,1,I,7,L,1,S,10,0.358624,0.800312,0.287011
5,60,8,1,2,8,1,I,7,L,6,S,12,0.768251,0.516804,0.397036
5,61,1,8,9,8,1,I,7,L,1,S,10,0.362537,0.796075,0.288607
5,62,8,2,1,8,1,I,6,S,7,L,14,0.754718,0.586503,0.442644
5,63,1,9,8,9,1,C,8,L,1,S,9,0.309338,0.791864,0.244954
5,64,9,8,1,9,0,I,1,S,8,L,11,0.407289,0.778431,0.317046
5,65,1,2,1,2,1,C,1,S,1,S,11,0.348396,0.81345,0.283402
5,66,1,2,8,1,1,I,1,S,7,L,19,0.649081,0.750821,0.487344
5,67,1,2,2,1,1,I,1,S,1,S,14,0.472475,0.780318,0.36868
5,68,1,2,9,1,1,I,1,S,8,L,19,0.651151,0.750556,0.488725
5,69,2,1,8,1,1,C,1,S,7,L,10,0.803302,0.339803,0.272965
5,70,1,2,9,2,1,I,1,S,7,L,19,0.631522,0.766529,0.48408
5,71,1,8,2,1,1,I,7,L,1,S,10,0.363003,0.792393,0.287641
5,72,2,1,9,8,1,C,1,S,1,S,13,0.807049,0.393435,0.317521
5,73,9,8,2,9,0,I,1,S,7,L,11,0.417945,0.761952,0.318454
5,74,2,8,1,9,1,C,6,S,8,L,8,0.262345,0.797559,0.209235
5,75,1,8,8,9,1,C,7,L,1,S,9,0.322872,0.775914,0.250521
5,76,1,8,9,1,1,I,7,L,8,L,13,0.550856,0.779791,0.429553
5,77,2,9,1,9,1,C,7,L,8,L,8,0.248804,0.813182,0.202323
5,78,2,1,2,9,0,I,1,S,7,L,12,0.458455,0.760771,0.348779
5,79,8,9,2,9,1,C,1,S,7,L,10,0.315206,0.827957,0.260977
5,80,2,1,1,8,0,I,1,S,7,L,12,0.466761,0.752527,0.35125
5,81,9,1,9,2,1,C,8,L,7,L,8,0.788097,0.270395,0.213097
5,82,9,1,2,8,1,I,8,L,6,S,12,0.786285,0.502565,0.39516
5,83,9,2,2,1,1,C,7,L,1,S,10,0.8267,0.318266,0.263111
5,84,2,9,8,2,1,I,7,L,6,S,12,0.514244,0.772126,0.397062
5,85,2,9,2,8,1,C,7,L,6,S,8,0.274943,0.7754,0.213191
5,86,8,9,8,2,1,I,1,S,6,S,21,0.639082,0.769005,0.491457
5,87,1,9,9,2,1,I,8,L,7,L,12,0.504402,0.785737,0.396327
5,88,2,8,1,2,1,C,6,S,1,S,9,0.311229,0.79193,0.246472
5,89,8,9,9,2,1,I,1,S,7,L,21,0.641202,0.768745,0.492921
5,90,1,9,1,2,1,C,8,L,1,S,9,0.286486,0.821576,0.23537
5,91,9,2,9,1,1,C,7,L,8,L,8,0.769477,0.28339,0.218062
5,92,1,9,8,1,1,I,8,L,7,L,12,0.532823,0.763169,0.406634
5,93,2,8,8,9,1,C,6,S,1,S,9,0.334081,0.762219,0.254643
5,94,8,9,1,9,1,C,1,S,8,L,9,0.334527,0.760977,0.254567
5,95,2,8,1,8,1,C,6,S,7,L,8,0.278277,0.776155,0.215986
5,96,1,9,9,8,1,I,8,L,1,S,10,0.348361,0.812792,0.283145
5,97,2,8,2,8,1,C,6,S,6,S,8,0.288483,0.759777,0.219183
5,98,2,8,8,2,1,I,6,S,6,S,12,0.530344,0.753481,0.399604
5,99,9,8,8,9,1,I,1,S,1,S,22,0.771475,0.603575,0.465643
5,100,9,2,1,8,1,I,7,L,7,L,13,0.751361,0.565976,0.425252
5,101,1,9,2,1,1,I,8,L,1,S,10,0.348826,0.80911,0.282239
5,102,2,9,8,1,1,I,7,L,7,L,12,0.543169,0.750996,0.407917
5,103,8,2,9,1,1,C,6,S,8,L,8,0.750284,0.298466,0.223934
5,104,1,8,1,2,1,C,7,L,1,S,9,0.30002,0.805625,0.241704
5,105,9,2,8,1,1,C,7,L,7,L,8,0.769025,0.281859,0.216757
5,106,1,2,9,8,1,I,1,S,1,S,14,0.469995,0.785357,0.369113
5,107,9,1,2,9,1,I,8,L,7,L,12,0.763542,0.532088,0.406272
5,108,2,1,1,9,0,I,1,S,8,L,11,0.43817,0.75067,0.328921
5,109,9,8,9,1,1,C,1,S,8,L,10,0.781696,0.361949,0.282934
5,110,9,2,8,9,1,I,7,L,1,S,10,0.755285,0.388506,0.293433
5,111,2,1,8,2,1,C,1,S,6,S,10,0.774814,0.359755,0.278743
5,112,2,1,2,8,0,I,1,S,6,S,14,0.514092,0.758923,0.390156
5,113,8,2,8,1,1,C,6,S,7,L,9,0.858321,0.260672,0.22374
5,114,2,8,9,2,1,I,6,S,7,L,12,0.530847,0.754919,0.400747
5,115,9,2,9,2,1,C,7,L,7,L,9,0.854838,0.263383,0.22515
5,116,2,1,8,9,1,I,1,S,1,S,18,0.767296,0.558368,0.428433
5,117,9,1,1,9,1,I,8,L,8,L,12,0.752696,0.548401,0.412779
5,118,8,2,9,8,1,C,6,S,1,S,10,0.800445,0.341471,0.273329
5,119,2,9,1,8,1,C,7,L,7,L,8,0.264737,0.791778,0.209613
5,120,2,1,2,1,1,C,1,S,1,S,13,0.809172,0.388557,0.314409
5,121,9,8,1,8,0,I,1,S,7,L,11,0.426447,0.753342,0.32126
5,122,9,8,8,1,1,C,1,S,7,L,10,0.780993,0.360682,0.28169
5,123,8,9,2,1,1,I,1,S,1,S,15,0.511536,0.757985,0.387737
5,124,9,1,8,9,1,I,8,L,1,S,10,0.807663,0.351653,0.284017
5,125,2,8,9,8,1,I,6,S,1,S,10,0.374454,0.781476,0.292627
5,126,9,1,9,1,1,C,8,L,8,L,8,0.811927,0.253785,0.206055
5,127,8,1,2,9,1,I,7,L,7,L,13,0.77817,0.548614,0.426915
5,128,9,2,8,2,1,C,7,L,6,S,9,0.854773,0.261461,0.22349
5,129,2,8,9,1,1,I,6,S,8,L,13,0.562806,0.765854,0.431027
5,130,1,8,2,8,1,C,7,L,6,S,8,0.278407,0.7718,0.214874
5,131,8,1,9,2,1,C,7,L,7,L,8,0.772811,0.282056,0.217976
5,132,1,8,8,2,1,I,7,L,6,S,12,0.518124,0.768038,0.397939
5,133,1,2,1,9,1,C,1,S,8,L,9,0.314895,0.783092,0.246592
5,134,9,1,8,1,1,C,8,L,7,L,8,0.811475,0.252254,0.204698
5,135,8,9,1,2,1,C,1,S,1,S,11,0.37877,0.775822,0.293859
5,136,9,2,1,2,1,I,7,L,1,S,11,0.774542,0.428668,0.332021
5,137,8,1,2,1,1,C,7,L,1,S,9,0.774074,0.326626,0.252833
5,138,8,1,8,1,1,C,7,L,7,L,8,0.79619,0.263916,0.210127
5,139,8,2,2,8,1,I,6,S,6,S,14,0.769021,0.566395,0.43557
5,140,1,2,1,8,1,C,1,S,7,L,9,0.332526,0.759333,0.252498
5,141,1,9,1,9,1,C,8,L,8,L,8,0.239874,0.823883,0.197628
5,142,9,8,2,1,1,C,1,S,1,S,13,0.755721,0.432921,0.327167
5,143,8,1,1,8,1,I,7,L,7,L,12,0.753814,0.538083,0.405614
5,144,8,9,2,8,1,C,1,S,6,S,10,0.336903,0.798797,0.269117
6,1,1,9,2,1,1,I,8,L,1,S,10,0.400083,0.796152,0.318526
6,2,8,2,9,8,1,C,6,S,1,S,9,0.775018,0.32881,0.254833
6,3,8,1,2,8,1,I,7,L,6,S,11,0.768809,0.47317,0.363778
6,4,2,8,8,1,1,I,6,S,7,L,15,0.594476,0.774778,0.460587
6,5,2,9,8,9,1,C,7,L,1,S,10,0.338341,0.80475,0.27228
6,6,2,1,2,9,1,I,1,S,7,L,17,0.767766,0.611323,0.469352
6,7,9,1,9,2,1,C,8,L,7,L,8,0.798413,0.260643,0.208101
6,8,1,9,8,9,1,C,8,L,1,S,9,0.293712,0.825283,0.242395
6,9,1,2,1,9,1,C,1,S,8,L,9,0.297204,0.804123,0.238989
6,10,1,8,9,1,1,I,7,L,8,L,11,0.505223,0.765488,0.386742
6,11,2,1,1,9,1,I,1,S,8,L,18,0.769822,0.626904,0.482604
6,12,2,8,9,2,1,I,6,S,7,L,13,0.5427,0.762388,0.413748
6,13,1,9,8,1,1,I,8,L,7,L,11,0.499914,0.772618,0.386243
6,14,8,2,9,1,1,C,6,S,8,L,8,0.814995,0.248194,0.202277
6,15,8,1,8,1,1,C,7,L,7,L,8,0.824803,0.241933,0.199547
6,16,8,9,8,9,1,C,1,S,1,S,13,0.429978,0.76301,0.328077
6,17,2,8,1,9,1,C,6,S,8,L,8,0.288229,0.759228,0.218831
6,18,9,8,2,8,1,I,1,S,6,S,20,0.750626,0.646211,0.485063
6,19,2,8,9,8,1,I,6,S,1,S,10,0.383983,0.757874,0.291011
6,20,9,8,8,2,1,C,1,S,6,S,10,0.789192,0.344478,0.27186
6,21,2,1,9,2,1,C,1,S,7,L,9,0.757106,0.331774,0.251188
6,22,1,2,8,9,1,C,1,S,1,S,11,0.391116,0.766689,0.299864
6,23,8,9,8,1,0,I,1,S,7,L,12,0.752643,0.476559,0.358678
6,24,8,1,8,9,1,I,7,L,1,S,9,0.763078,0.340931,0.260157
6,25,8,2,8,1,1,C,6,S,7,L,8,0.818763,0.244901,0.200516
6,26,1,9,1,9,1,C,8,L,8,L,8,0.213517,0.864603,0.184607
6,27,9,2,1,2,1,I,7,L,1,S,10,0.793114,0.379139,0.300701
6,28,9,1,8,2,1,C,8,L,6,S,8,0.804146,0.255661,0.205589
6,29,8,2,2,9,1,I,6,S,7,L,12,0.781734,0.505646,0.395281
6,30,2,9,9,1,1,I,7,L,8,L,14,0.575786,0.774053,0.445689
6,31,8,2,1,2,1,I,6,S,1,S,10,0.766507,0.399504,0.306223
6,32,8,1,1,8,1,I,7,L,7,L,12,0.774349,0.521732,0.404003
6,33,9,8,9,8,1,C,1,S,1,S,12,0.757295,0.416457,0.315381
6,34,2,8,2,9,1,C,6,S,7,L,9,0.273645,0.837963,0.229304
6,35,1,8,1,2,1,C,7,L,1,S,8,0.286944,0.767372,0.220193
6,36,1,9,1,8,1,C,8,L,7,L,8,0.222921,0.852531,0.190047
6,37,1,2,2,9,1,C,1,S,7,L,9,0.320224,0.772303,0.24731
6,38,9,1,2,9,1,I,8,L,7,L,11,0.777761,0.474708,0.369209
6,39,9,1,1,2,1,I,8,L,1,S,10,0.799433,0.375807,0.300433
6,40,9,8,9,2,1,C,1,S,7,L,10,0.781667,0.350662,0.274101
6,41,9,8,8,1,1,C,1,S,7,L,9,0.759384,0.335451,0.254736
6,42,1,2,2,8,1,C,1,S,6,S,9,0.3345,0.753922,0.252187
6,43,2,1,1,8,1,I,1,S,7,L,17,0.755103,0.627277,0.473659
6,44,8,1,9,2,1,C,7,L,7,L,8,0.775876,0.277829,0.215561
6,45,8,9,2,8,1,C,1,S,6,S,10,0.363672,0.766149,0.278627
6,46,2,8,2,1,1,I,6,S,1,S,12,0.505016,0.753671,0.380616
6,47,1,2,8,2,1,I,1,S,6,S,16,0.607704,0.75334,0.457808
6,48,8,9,1,2,1,C,1,S,1,S,11,0.385084,0.766488,0.295162
6,49,8,2,8,9,1,I,6,S,1,S,9,0.756288,0.344455,0.260507
6,50,2,8,9,1,1,I,6,S,8,L,14,0.595521,0.750878,0.447164
6,51,2,1,8,1,1,C,1,S,7,L,9,0.812685,0.29128,0.236719
6,52,2,9,8,2,1,I,7,L,6,S,13,0.529962,0.780344,0.413553
6,53,8,2,2,8,1,I,6,S,6,S,11,0.76136,0.47741,0.363481
6,54,9,8,1,2,1,I,1,S,1,S,18,0.756986,0.599869,0.454092
6,55,2,8,1,8,1,C,6,S,7,L,9,0.261073,0.85622,0.223536
6,56,9,8,8,9,1,I,1,S,1,S,13,0.756006,0.439534,0.33229
6,57,8,9,9,2,1,I,1,S,7,L,21,0.644252,0.759194,0.489112
6,58,8,2,2,1,1,C,6,S,1,S,9,0.855624,0.260855,0.223193
6,59,2,9,2,9,1,C,7,L,7,L,8,0.292814,0.75014,0.219652
6,60,2,1,9,1,1,C,1,S,8,L,9,0.808609,0.294801,0.238379
6,61,1,8,2,1,1,I,7,L,1,S,10,0.409575,0.785102,0.321558
6,62,2,8,8,2,1,I,6,S,6,S,13,0.550304,0.755922,0.415987
6,63,9,2,2,1,1,C,7,L,1,S,8,0.771294,0.278854,0.215078
6,64,8,9,9,1,0,I,1,S,8,L,13,0.760846,0.501179,0.381319
6,65,8,1,1,2,1,I,7,L,1,S,10,0.773752,0.395555,0.306062
6,66,9,2,9,2,1,C,7,L,7,L,8,0.792939,0.263212,0.208711
6,67,2,9,2,1,1,I,7,L,1,S,12,0.484444,0.778865,0.377316
6,68,2,9,9,2,1,I,7,L,7,L,12,0.518382,0.754334,0.391033
6,69,8,1,2,9,1,I,7,L,7,L,11,0.752091,0.494808,0.37214
6,70,9,2,8,2,1,C,7,L,6,S,8,0.798672,0.25823,0.206241
6,71,1,2,1,2,1,C,1,S,1,S,10,0.346424,0.779909,0.270179
6,72,1,9,2,9,1,C,8,L,7,L,8,0.233798,0.836769,0.195635
6,73,9,2,1,9,1,I,7,L,8,L,12,0.781515,0.519653,0.406117
6,74,9,1,2,1,1,C,8,L,1,S,8,0.776768,0.276285,0.214609
6,75,1,8,9,8,1,I,7,L,1,S,9,0.321769,0.798641,0.256978
6,76,8,9,1,9,1,C,1,S,8,L,10,0.322999,0.82083,0.265127
6,77,1,8,1,9,1,C,7,L,8,L,8,0.222384,0.854146,0.189948
6,78,2,1,2,8,1,I,1,S,6,S,16,0.758205,0.600984,0.455669
6,79,2,9,8,1,1,I,7,L,7,L,14,0.579222,0.770801,0.446465
6,80,9,2,8,9,1,I,7,L,1,S,9,0.781787,0.325131,0.254183
6,81,2,8,8,9,1,C,6,S,1,S,10,0.357785,0.780466,0.279239
6,82,9,2,1,8,1,I,7,L,7,L,11,0.756793,0.498767,0.377464
6,83,2,1,9,8,1,C,1,S,1,S,11,0.785029,0.375796,0.295011
6,84,8,2,1,8,1,I,6,S,7,L,12,0.766885,0.526141,0.40349
6,85,9,1,8,1,1,C,8,L,7,L,8,0.84734,0.224747,0.190437
6,86,1,8,2,9,1,C,7,L,7,L,8,0.242665,0.826312,0.200517
6,87,1,9,9,8,1,I,8,L,1,S,9,0.312441,0.809637,0.252964
6,88,8,1,9,8,1,C,7,L,1,S,9,0.781807,0.325285,0.25431
6,89,8,2,9,2,1,C,6,S,7,L,8,0.769836,0.280797,0.216167
6,90,1,8,1,8,1,C,7,L,7,L,8,0.231788,0.842075,0.195183
6,91,1,8,2,8,1,C,7,L,6,S,8,0.254908,0.811028,0.206737
6,92,9,8,1,9,1,I,1,S,8,L,22,0.768625,0.647888,0.497983
6,93,2,8,2,8,1,C,6,S,6,S,9,0.287921,0.819582,0.235975
6,94,8,2,8,2,1,C,6,S,6,S,8,0.775568,0.275815,0.213914
6,95,8,9,2,9,1,C,1,S,7,L,10,0.347891,0.786674,0.273677
6,96,9,2,2,8,1,I,7,L,6,S,11,0.788045,0.456623,0.359839
6,97,2,9,1,2,1,C,7,L,1,S,9,0.310904,0.78493,0.244038
6,98,8,2,1,9,1,I,6,S,8,L,12,0.755488,0.540356,0.408233
6,99,8,9,2,1,1,I,1,S,1,S,20,0.636876,0.753559,0.479924
6,100,9,8,1,8,1,I,1,S,7,L,21,0.752872,0.656302,0.494111
6,101,1,8,8,2,1,I,7,L,6,S,10,0.447625,0.757366,0.339016
6,102,1,9,9,1,1,I,8,L,8,L,11,0.495801,0.776249,0.384865
6,103,1,2,9,2,1,I,1,S,7,L,16,0.601516,0.758977,0.456536
6,104,9,8,2,1,1,C,1,S,1,S,10,0.751142,0.372215,0.279586
6,105,8,9,9,8,1,I,1,S,1,S,15,0.480791,0.774202,0.372229
6,106,9,2,2,9,1,I,7,L,7,L,11,0.771326,0.47826,0.368895
6,107,8,9,1,8,1,C,1,S,7,L,10,0.3341,0.806495,0.26945
6,108,9,1,1,8,1,I,8,L,7,L,11,0.763228,0.495215,0.377962
6,109,2,8,1,2,1,C,6,S,1,S,9,0.32881,0.762809,0.250819
6,110,8,9,8,2,1,I,1,S,6,S,21,0.64797,0.755438,0.489501
6,111,2,9,9,8,1,I,7,L,1,S,10,0.364538,0.782159,0.285127
6,112,8,1,2,1,1,C,7,L,1,S,8,0.754231,0.293471,0.221345
6,113,2,9,1,9,1,C,7,L,8,L,8,0.272533,0.777974,0.212023
6,114,1,9,1,2,1,C,8,L,1,S,8,0.278076,0.777829,0.216296
6,115,8,1,9,1,1,C,7,L,8,L,8,0.821036,0.245226,0.20134
6,116,9,2,8,1,1,C,7,L,7,L,8,0.841866,0.227315,0.191369
6,117,9,2,9,1,1,C,7,L,8,L,8,0.838099,0.230609,0.193273
6,118,1,9,9,2,1,I,8,L,7,L,10,0.430607,0.774599,0.333548
6,119,1,8,8,9,1,C,7,L,1,S,9,0.303039,0.814286,0.246761
6,120,9,8,9,1,1,C,1,S,8,L,9,0.755308,0.338972,0.256028
6,121,8,1,1,9,1,I,7,L,8,L,12,0.762952,0.535947,0.408902
6,122,9,1,9,1,1,C,8,L,8,L,8,0.843573,0.22804,0.192369
6,123,1,2,9,8,1,I,1,S,1,S,12,0.413127,0.786533,0.324938
6,124,9,1,1,9,1,I,8,L,8,L,11,0.751831,0.509714,0.383219
6,125,9,1,9,8,1,C,8,L,1,S,9,0.806531,0.30648,0.247186
6,126,2,9,1,8,1,C,7,L,7,L,8,0.281937,0.765902,0.215936
6,127,2,1,1,2,1,I,1,S,1,S,14,0.76789,0.519421,0.398858
6,128,9,1,8,9,1,I,8,L,1,S,9,0.787801,0.322126,0.253771
6,129,1,8,8,1,1,I,7,L,7,L,11,0.509336,0.761857,0.388041
6,130,1,2,8,1,1,I,1,S,7,L,18,0.629097,0.768751,0.483619
6,131,1,9,2,8,1,C,8,L,6,S,8,0.24604,0.821484,0.202118
6,132,2,9,2,8,1,C,7,L,6,S,9,0.270016,0.841704,0.227273
6,133,1,2,9,1,1,I,1,S,8,L,18,0.626756,0.77119,0.483348
6,134,9,2,9,8,1,C,7,L,1,S,9,0.800516,0.309485,0.247748
6,135,1,9,8,2,1,I,8,L,6,S,10,0.438132,0.768415,0.336667
6,136,9,1,2,8,1,I,8,L,6,S,10,0.750384,0.444776,0.333753
6,137,1,2,1,8,1,C,1,S,7,L,9,0.307652,0.79056,0.243217
6,138,2,1,8,2,1,C,1,S,6,S,9,0.763924,0.326084,0.249103
6,139,1,8,9,2,1,I,7,L,7,L,10,0.4401,0.763549,0.336038
6,140,9,8,2,9,1,I,1,S,7,L,21,0.762609,0.644262,0.49132
6,141,2,1,8,9,1,I,1,S,1,S,12,0.808425,0.383815,0.310286
6,142,2,1,2,1,1,C,1,S,1,S,10,0.8211,0.316467,0.259851
6,143,1,2,2,1,1,I,1,S,1,S,15,0.575087,0.756792,0.435221
6,144,8,1,8,2,1,C,7,L,6,S,8,0.781609,0.272848,0.21326
7,1,2,8,1,9,1,C,6,S,8,L,8,0.284526,0.768001,0.218517
7,2,1,8,1,9,1,C,7,L,8,L,8,0.251624,0.811202,0.204118
7,3,8,2,9,1,1,C,6,S,8,L,8,0.770356,0.277458,0.213742
7,4,2,8,8,2,1,I,6,S,6,S,14,0.56017,0.776489,0.434966
7,5,9,8,2,1,1,C,1,S,1,S,11,0.783243,0.375606,0.29419
7,6,9,1,2,9,1,I,8,L,7,L,11,0.762157,0.496563,0.37846
7,7,9,1,9,1,1,C,8,L,8,L,8,0.826026,0.242893,0.200636
7,8,8,1,9,2,1,C,7,L,7,L,8,0.788065,0.266833,0.210282
7,9,1,2,8,1,1,I,1,S,7,L,20,0.642729,0.753288,0.48416
7,10,2,1,2,9,1,I,1,S,7,L,21,0.757135,0.655013,0.495934
7,11,8,2,8,2,1,C,6,S,6,S,9,0.856214,0.256654,0.21975
7,12,9,8,9,8,1,C,1,S,1,S,12,0.813069,0.376242,0.305911
7,13,9,2,9,8,1,C,7,L,1,S,9,0.777803,0.327049,0.25438
7,14,1,2,2,9,1,C,1,S,7,L,10,0.325919,0.813961,0.265286
7,15,8,9,8,9,1,C,1,S,1,S,12,0.422533,0.75169,0.317614
7,16,9,2,1,9,1,I,7,L,8,L,12,0.758727,0.545386,0.413799
7,17,9,2,1,2,1,I,7,L,1,S,10,0.805563,0.357063,0.287637
7,18,2,1,9,2,1,C,1,S,7,L,10,0.828279,0.319127,0.264326
7,19,9,8,9,1,1,C,1,S,8,L,9,0.782843,0.315805,0.247226
7,20,1,2,1,9,1,C,1,S,8,L,9,0.331617,0.763449,0.253172
7,21,8,1,2,9,1,I,7,L,7,L,13,0.780678,0.541652,0.422856
7,22,2,8,1,8,1,C,6,S,7,L,8,0.28161,0.77014,0.216879
7,23,8,9,1,9,1,C,1,S,8,L,10,0.347009,0.799873,0.277563
7,24,8,9,9,2,0,I,1,S,7,L,11,0.760315,0.422334,0.321107
7,25,1,8,8,1,1,I,7,L,7,L,12,0.506893,0.7749,0.392792
7,26,1,8,8,9,1,C,7,L,1,S,9,0.308077,0.794959,0.244909
7,27,1,2,9,1,1,I,1,S,8,L,21,0.649963,0.758252,0.492836
7,28,9,8,1,9,1,I,1,S,8,L,19,0.766932,0.64186,0.492262
7,29,9,2,8,1,1,C,7,L,7,L,8,0.785888,0.268726,0.211189
7,30,8,1,2,1,1,C,7,L,1,S,9,0.762188,0.334945,0.255291
7,31,2,9,9,2,1,I,7,L,7,L,13,0.573979,0.750366,0.430694
7,32,1,2,2,8,1,C,1,S,6,S,10,0.321628,0.817822,0.263034
7,33,2,8,2,9,1,C,6,S,7,L,9,0.269593,0.847068,0.228363
7,34,1,9,1,2,1,C,8,L,1,S,9,0.304464,0.803026,0.244493
7,35,9,1,2,1,1,C,8,L,1,S,9,0.808984,0.304317,0.246188
7,36,2,1,8,1,1,C,1,S,7,L,10,0.789148,0.347092,0.273907
7,37,1,9,1,9,1,C,8,L,8,L,8,0.242557,0.827934,0.200822
7,38,1,9,8,2,1,I,8,L,6,S,11,0.494037,0.753268,0.372142
7,39,2,1,9,1,1,C,1,S,8,L,10,0.823975,0.322576,0.265795
7,40,9,1,8,2,1,C,8,L,6,S,8,0.802488,0.258783,0.20767
7,41,2,1,8,9,1,I,1,S,1,S,17,0.759306,0.575403,0.436907
7,42,1,2,2,1,1,I,1,S,1,S,15,0.50188,0.76712,0.385002
7,43,2,9,9,8,1,I,7,L,1,S,10,0.359279,0.789229,0.283553
7,44,8,1,9,8,1,C,7,L,1,S,10,0.822388,0.326644,0.268629
7,45,9,1,8,9,1,I,8,L,1,S,10,0.809762,0.36367,0.294486
7,46,8,2,8,1,1,C,6,S,7,L,9,0.850698,0.26102,0.222049
7,47,1,2,8,2,1,I,1,S,6,S,20,0.646185,0.750057,0.484675
7,48,8,2,9,2,1,C,6,S,7,L,8,0.77408,0.274456,0.212451
7,49,8,9,1,8,1,C,1,S,7,L,10,0.344031,0.802131,0.275958
7,50,8,2,2,1,1,C,6,S,1,S,10,0.829899,0.315098,0.2615
7,51,1,9,8,1,1,I,8,L,7,L,11,0.487788,0.758215,0.369848
7,52,8,1,8,2,1,C,7,L,6,S,8,0.760802,0.285726,0.217381
7,53,1,2,9,8,1,I,1,S,1,S,13,0.44497,0.753247,0.335172
7,54,2,9,1,8,1,C,7,L,7,L,8,0.269992,0.790009,0.213296
7,55,2,9,2,1,1,I,7,L,1,S,10,0.38462,0.767277,0.29511
7,56,9,2,2,1,1,C,7,L,1,S,9,0.795805,0.311423,0.247832
7,57,9,2,2,9,1,I,7,L,7,L,12,0.78447,0.511593,0.401329
7,58,2,8,2,8,1,C,6,S,6,S,9,0.265431,0.850729,0.22581
7,59,2,8,9,1,1,I,6,S,8,L,14,0.587556,0.755956,0.444166
7,60,9,8,2,9,1,I,1,S,7,L,18,0.763171,0.631087,0.481627
7,61,2,8,2,1,1,I,6,S,1,S,11,0.389579,0.798348,0.31102
7,62,2,9,2,9,1,C,7,L,7,L,8,0.293678,0.759182,0.222955
7,63,9,8,9,2,1,C,1,S,7,L,9,0.786965,0.312519,0.245942
7,64,9,1,1,2,1,I,8,L,1,S,9,0.753217,0.359328,0.270652
7,65,9,2,2,8,1,I,7,L,6,S,12,0.780307,0.515259,0.40206
7,66,2,8,8,1,1,I,6,S,7,L,13,0.554012,0.75172,0.416462
7,67,2,9,8,9,1,C,7,L,1,S,9,0.331626,0.76823,0.254765
7,68,9,8,8,9,1,I,1,S,1,S,14,0.771433,0.504844,0.389453
7,69,8,9,2,1,1,I,1,S,1,S,20,0.599937,0.753008,0.451758
7,70,8,9,8,1,0,I,1,S,7,L,12,0.752752,0.453802,0.341601
7,71,8,2,1,8,1,I,6,S,7,L,14,0.76349,0.586671,0.447917
7,72,1,2,1,2,1,C,1,S,1,S,12,0.36655,0.812051,0.297657
7,73,8,2,1,9,1,I,6,S,8,L,14,0.765816,0.585242,0.448187
7,74,1,8,1,8,1,C,7,L,7,L,8,0.248707,0.813341,0.202283
7,75,8,9,8,2,0,I,1,S,6,S,12,0.758981,0.448792,0.340625
7,76,1,8,9,1,1,I,7,L,8,L,13,0.545343,0.780787,0.425796
7,77,9,8,1,2,1,I,1,S,1,S,13,0.75698,0.47729,0.361299
7,78,8,9,9,1,0,I,1,S,8,L,11,0.756005,0.425842,0.321939
7,79,9,2,8,9,1,I,7,L,1,S,10,0.795863,0.371505,0.295667
7,80,2,8,9,2,1,I,6,S,7,L,14,0.591305,0.752705,0.445078
7,81,8,1,1,2,1,I,7,L,1,S,10,0.769811,0.382401,0.294377
7,82,2,9,8,1,1,I,7,L,7,L,13,0.535356,0.779702,0.417418
7,83,1,8,1,2,1,C,7,L,1,S,9,0.315036,0.784244,0.247065
7,84,9,8,2,8,1,I,1,S,6,S,18,0.760641,0.632648,0.481218
7,85,2,9,9,1,1,I,7,L,8,L,13,0.569985,0.753755,0.429629
7,86,2,8,9,8,1,I,6,S,1,S,10,0.375357,0.762994,0.286395
7,87,9,1,1,9,1,I,8,L,8,L,12,0.772831,0.536825,0.414875
7,88,9,1,2,8,1,I,8,L,6,S,11,0.757876,0.500407,0.379246
7,89,2,9,2,8,1,C,7,L,6,S,8,0.289806,0.762391,0.220945
7,90,8,2,1,2,1,I,6,S,1,S,10,0.75198,0.392808,0.295384
7,91,8,1,8,1,1,C,7,L,7,L,8,0.756101,0.289556,0.218934
7,92,8,2,8,9,1,I,6,S,1,S,11,0.794925,0.40304,0.320387
7,93,8,1,8,9,1,I,7,L,1,S,10,0.76011,0.396843,0.301644
7,94,1,9,2,9,1,C,8,L,7,L,8,0.263326,0.799246,0.210462
7,95,2,1,1,2,1,I,1,S,1,S,16,0.756598,0.544897,0.412268
7,96,8,1,1,9,1,I,7,L,8,L,13,0.75534,0.574208,0.433723
7,97,8,9,9,8,1,I,1,S,1,S,17,0.487862,0.773773,0.377494
7,98,2,1,2,8,1,I,1,S,6,S,21,0.755401,0.655667,0.495291
7,99,8,1,1,8,1,I,7,L,7,L,13,0.752804,0.575897,0.433538
7,100,1,2,9,2,1,I,1,S,7,L,21,0.65202,0.756264,0.493099
7,101,1,9,1,8,1,C,8,L,7,L,8,0.239641,0.830073,0.198919
7,102,1,8,2,1,1,I,7,L,1,S,10,0.359703,0.79584,0.286266
7,103,2,1,9,8,1,C,1,S,1,S,13,0.792308,0.4074,0.322786
7,104,1,2,1,8,1,C,1,S,7,L,9,0.328618,0.765723,0.25163
7,105,9,8,1,8,1,I,1,S,7,L,19,0.765647,0.642084,0.49161
7,106,9,2,9,1,1,C,7,L,8,L,8,0.814128,0.249006,0.202722
7,107,8,9,2,9,1,C,1,S,7,L,10,0.371839,0.765947,0.284809
7,108,9,8,8,2,1,C,1,S,6,S,9,0.756005,0.333976,0.252488
7,109,9,2,9,2,1,C,7,L,7,L,8,0.817852,0.246004,0.201194
7,110,2,9,8,2,1,I,7,L,6,S,13,0.541393,0.774747,0.419443
7,111,2,1,8,2,1,C,1,S,6,S,10,0.795178,0.342353,0.272232
7,112,9,2,8,2,1,C,7,L,6,S,8,0.790589,0.264896,0.209424
7,113,1,8,9,2,1,I,7,L,7,L,13,0.549336,0.777398,0.427052
7,114,2,9,1,2,1,C,7,L,1,S,9,0.338585,0.757515,0.256483
7,115,2,9,1,9,1,C,7,L,8,L,8,0.272909,0.78787,0.215017
7,116,2,1,1,9,0,I,1,S,8,L,13,0.509523,0.760362,0.387422
7,117,1,9,2,1,1,I,8,L,1,S,10,0.348018,0.815833,0.283924
7,118,1,8,9,8,1,I,7,L,1,S,10,0.334362,0.817792,0.273439
7,119,1,8,8,2,1,I,7,L,6,S,12,0.513123,0.76989,0.395048
7,120,9,1,9,8,1,C,8,L,1,S,9,0.790981,0.319943,0.253069
7,121,9,8,8,1,1,C,1,S,7,L,9,0.750489,0.338343,0.253923
7,122,1,2,8,9,1,C,1,S,1,S,11,0.389023,0.759479,0.295455
7,123,8,9,2,8,1,C,1,S,6,S,10,0.367548,0.769808,0.282941
7,124,8,2,2,8,1,I,6,S,6,S,13,0.75804,0.557032,0.422253
7,125,1,9,9,2,1,I,8,L,7,L,12,0.533915,0.765768,0.408855
7,126,2,8,8,9,1,C,6,S,1,S,10,0.313079,0.833193,0.260855
7,127,8,9,1,2,1,C,1,S,1,S,13,0.406453,0.78803,0.320297
7,128,2,1,2,1,1,C,1,S,1,S,12,0.781497,0.397718,0.310816
7,129,1,9,8,9,1,C,8,L,1,S,9,0.297505,0.813741,0.242092
7,130,8,2,9,8,1,C,6,S,1,S,10,0.804558,0.337051,0.271177
7,131,1,8,2,9,1,C,7,L,7,L,8,0.272392,0.782514,0.213151
7,132,1,9,2,8,1,C,8,L,6,S,8,0.259454,0.802456,0.2082
7,133,1,8,2,8,1,C,7,L,6,S,8,0.26852,0.785723,0.210983
7,134,1,9,9,1,1,I,8,L,8,L,12,0.529723,0.769249,0.407489
7,135,8,2,2,9,1,I,6,S,7,L,13,0.762004,0.55365,0.421883
7,136,9,1,8,1,1,C,8,L,7,L,8,0.797786,0.262614,0.20951
7,137,2,8,1,2,1,C,6,S,1,S,10,0.322779,0.818751,0.264276
7,138,9,1,1,8,1,I,8,L,7,L,12,0.770105,0.538755,0.414898
7,139,9,1,9,2,1,C,8,L,7,L,8,0.82975,0.239891,0.199049
7,140,1,9,9,8,1,I,8,L,1,S,9,0.342228,0.763642,0.261339
7,141,9,2,1,8,1,I,7,L,7,L,12,0.756001,0.547316,0.413771
7,142,2,1,1,8,0,I,1,S,7,L,12,0.484704,0.750874,0.363952
7,143,8,1,2,8,1,I,7,L,6,S,13,0.776714,0.545035,0.423336
7,144,8,1,9,1,1,C,7,L,8,L,8,0.784341,0.269835,0.211643
8,1,1,9,9,2,1,I,8,L,7,L,12,0.509195,0.771084,0.392632
8,2,1,8,8,9,1,C,7,L,1,S,9,0.331867,0.77629,0.257625
8,3,8,9,1,2,1,C,1,S,1,S,13,0.425109,0.785714,0.334014
8,4,2,9,9,8,1,I,7,L,1,S,9,0.352965,0.750939,0.265055
8,5,2,8,1,8,1,C,6,S,7,L,8,0.244271,0.823295,0.201107
8,6,9,2,1,2,1,I,7,L,1,S,12,0.789434,0.465038,0.367117
8,7,8,2,2,9,1,I,6,S,7,L,13,0.774681,0.530949,0.411316
8,8,2,1,9,1,1,C,1,S,8,L,9,0.768481,0.322545,0.24787
8,9,2,9,8,1,1,I,7,L,7,L,12,0.525498,0.764505,0.401746
8,10,1,9,1,2,1,C,8,L,1,S,9,0.296135,0.810588,0.240044
8,11,2,1,8,9,1,I,1,S,1,S,12,0.772677,0.413893,0.319806
8,12,8,1,8,2,1,C,7,L,6,S,8,0.798878,0.26249,0.209698
8,13,9,8,8,2,0,C,1,S,6,S,20,0.636709,0.76468,0.486879
8,14,9,8,8,9,0,I,1,S,1,S,13,0.407072,0.799541,0.325471
8,15,8,9,9,8,0,I,1,S,1,S,21,0.759985,0.506171,0.384682
8,16,1,9,1,8,1,C,8,L,7,L,8,0.272634,0.785643,0.214193
8,17,9,1,2,8,1,I,8,L,6,S,10,0.762383,0.434892,0.331554
8,18,9,2,2,1,1,C,7,L,1,S,9,0.7716,0.324136,0.250104
8,19,1,8,1,2,1,C,7,L,1,S,9,0.274724,0.84004,0.230779
8,20,2,8,8,9,1,C,6,S,1,S,9,0.321775,0.788918,0.253854
8,21,2,9,1,2,1,C,7,L,1,S,9,0.283945,0.825937,0.234521
8,22,8,9,2,1,0,I,1,S,1,S,13,0.759655,0.444422,0.337607
8,23,2,1,2,9,1,I,1,S,7,L,17,0.753917,0.613296,0.462374
8,24,9,8,9,2,0,C,1,S,7,L,20,0.641244,0.760874,0.487906
8,25,1,8,1,8,1,C,7,L,7,L,8,0.253549,0.811784,0.205827
8,26,8,9,1,8,1,C,1,S,7,L,10,0.392872,0.750405,0.294813
8,27,1,8,2,1,1,I,7,L,1,S,10,0.397732,0.771395,0.306809
8,28,2,9,2,8,1,C,7,L,6,S,8,0.291316,0.756283,0.220318
8,29,8,1,1,2,1,I,7,L,1,S,10,0.794763,0.388429,0.308709
8,30,2,1,8,2,1,C,1,S,6,S,10,0.82084,0.31644,0.259746
8,31,2,9,2,9,1,C,7,L,7,L,8,0.290106,0.757306,0.219699
8,32,8,2,9,1,1,C,6,S,8,L,9,0.858536,0.261937,0.224883
8,33,2,9,9,2,1,I,7,L,7,L,12,0.495859,0.787353,0.390417
8,34,2,8,9,8,1,I,6,S,1,S,9,0.333651,0.77767,0.25947
8,35,8,2,9,2,1,C,6,S,7,L,9,0.827818,0.284744,0.235716
8,36,2,9,8,9,1,C,7,L,1,S,9,0.341089,0.762187,0.259974
8,37,9,2,8,2,1,C,7,L,6,S,9,0.825958,0.28638,0.236538
8,38,2,8,2,9,1,C,6,S,7,L,8,0.27269,0.781424,0.213087
8,39,1,9,8,9,1,C,8,L,1,S,10,0.330026,0.824469,0.272096
8,40,2,1,1,8,1,I,1,S,7,L,19,0.76703,0.634939,0.487017
8,41,8,9,2,9,1,C,1,S,7,L,12,0.400361,0.799168,0.319956
8,42,2,9,1,8,1,C,7,L,7,L,8,0.261686,0.799177,0.209134
8,43,9,1,1,9,1,I,8,L,8,L,11,0.765345,0.500833,0.38331
8,44,8,2,1,9,1,I,6,S,8,L,14,0.76369,0.585648,0.447253
8,45,8,1,1,9,1,I,7,L,8,L,11,0.762711,0.502508,0.383268
8,46,1,2,9,1,1,I,1,S,8,L,21,0.642259,0.770413,0.494805
8,47,8,2,8,2,1,C,6,S,6,S,9,0.821869,0.28903,0.237545
8,48,8,2,1,2,1,I,6,S,1,S,12,0.7845,0.468424,0.367479
8,49,1,8,9,8,1,I,7,L,1,S,9,0.343743,0.765042,0.262978
8,50,9,8,1,9,0,I,1,S,8,L,10,0.319883,0.830432,0.265641
8,51,9,1,2,1,1,C,8,L,1,S,8,0.758975,0.290839,0.22074
8,52,2,9,9,1,1,I,7,L,8,L,12,0.53051,0.760808,0.403616
8,53,1,8,1,9,1,C,7,L,8,L,8,0.252714,0.812411,0.205308
8,54,8,2,2,8,1,I,6,S,6,S,13,0.776193,0.529473,0.410973
8,55,8,2,8,1,1,C,6,S,7,L,9,0.85392,0.265168,0.226432
8,56,9,8,1,2,0,I,1,S,1,S,11,0.361722,0.802681,0.290348
8,57,9,1,8,1,1,C,8,L,7,L,8,0.828401,0.240511,0.199239
8,58,8,2,2,1,1,C,6,S,1,S,9,0.767512,0.326786,0.250812
8,59,9,8,1,8,0,I,1,S,7,L,10,0.320766,0.829725,0.266148
8,60,1,2,2,9,1,C,1,S,7,L,10,0.353858,0.779069,0.27568
8,61,8,9,9,1,0,I,1,S,8,L,11,0.790926,0.38821,0.307046
8,62,9,2,9,2,1,C,7,L,7,L,9,0.831907,0.282094,0.234676
8,63,2,1,2,8,1,I,1,S,6,S,17,0.755077,0.612318,0.462347
8,64,1,2,2,8,1,C,1,S,6,S,10,0.355341,0.777626,0.276322
8,65,1,2,8,1,1,I,1,S,7,L,21,0.639367,0.772788,0.494095
8,66,2,8,2,8,1,C,6,S,6,S,8,0.273901,0.780401,0.213752
8,67,9,1,9,1,1,C,8,L,8,L,8,0.832457,0.237667,0.197848
8,68,8,2,9,8,1,C,6,S,1,S,10,0.789228,0.357336,0.28202
8,69,9,2,9,1,1,C,7,L,8,L,8,0.752658,0.296458,0.223131
8,70,8,1,9,2,1,C,7,L,7,L,8,0.803789,0.258884,0.208088
8,71,8,1,2,1,1,C,7,L,1,S,8,0.756641,0.292182,0.221077
8,72,8,1,2,9,1,I,7,L,7,L,10,0.75828,0.437949,0.332088
8,73,2,8,2,1,1,I,6,S,1,S,10,0.387188,0.784492,0.303745
8,74,9,2,1,8,1,I,7,L,7,L,14,0.769138,0.581751,0.447447
8,75,9,2,2,8,1,I,7,L,6,S,13,0.781074,0.526041,0.410877
8,76,9,8,9,1,0,C,1,S,8,L,21,0.646432,0.766594,0.495551
8,77,9,8,8,1,0,C,1,S,7,L,21,0.64354,0.768969,0.494862
8,78,9,2,9,8,1,C,7,L,1,S,10,0.793801,0.354333,0.28127
8,79,1,8,8,1,1,I,7,L,7,L,12,0.514965,0.779511,0.401421
8,80,2,8,9,1,1,I,6,S,8,L,11,0.502958,0.752121,0.378285
8,81,1,8,8,2,1,I,7,L,6,S,11,0.471817,0.770328,0.363454
8,82,8,9,2,8,1,C,1,S,6,S,12,0.401906,0.797636,0.320575
8,83,1,9,2,8,1,C,8,L,6,S,9,0.266423,0.850703,0.226647
8,84,1,2,8,9,1,C,1,S,1,S,13,0.401611,0.805236,0.323392
8,85,1,2,1,9,1,C,1,S,8,L,10,0.316165,0.83349,0.26352
8,86,1,9,2,9,1,C,8,L,7,L,9,0.265051,0.851974,0.225817
8,87,1,2,8,2,1,I,1,S,6,S,20,0.632127,0.769043,0.486133
8,88,1,2,1,2,1,C,1,S,1,S,11,0.35732,0.806726,0.288259
8,89,9,2,8,9,1,I,7,L,1,S,10,0.776976,0.370481,0.287855
8,90,8,1,8,9,1,I,7,L,1,S,9,0.794046,0.32278,0.256302
8,91,9,1,8,9,1,I,8,L,1,S,9,0.796575,0.321275,0.25592
8,92,2,9,1,9,1,C,7,L,8,L,8,0.260851,0.799805,0.20863
8,93,1,9,2,1,1,I,8,L,1,S,11,0.42169,0.789621,0.332975
8,94,9,2,2,9,1,I,7,L,7,L,13,0.779562,0.527517,0.411232
8,95,2,9,8,2,1,I,7,L,6,S,11,0.482204,0.755156,0.364139
8,96,8,1,1,8,1,I,7,L,7,L,11,0.763576,0.501824,0.383181
8,97,8,9,8,2,0,I,1,S,6,S,12,0.797102,0.40425,0.322229
8,98,9,8,2,8,0,I,1,S,6,S,10,0.359058,0.774568,0.278115
8,99,8,1,9,8,1,C,7,L,1,S,9,0.805922,0.311532,0.251071
8,100,2,1,1,9,1,I,1,S,8,L,19,0.766624,0.635064,0.486855
8,101,9,1,1,8,1,I,8,L,7,L,11,0.766211,0.500149,0.383219
8,102,1,9,8,2,1,I,8,L,6,S,12,0.501939,0.776435,0.389723
8,103,8,9,9,2,0,I,1,S,7,L,11,0.756226,0.414307,0.31331
8,104,2,1,8,1,1,C,1,S,7,L,9,0.763865,0.325776,0.248849
8,105,1,2,1,8,1,C,1,S,7,L,10,0.317049,0.832782,0.264032
8,106,1,2,2,1,1,I,1,S,1,S,18,0.590606,0.772009,0.455953
8,107,2,8,8,2,1,I,6,S,6,S,11,0.461134,0.783384,0.361245
8,108,9,8,9,8,0,C,1,S,1,S,13,0.45143,0.756194,0.341369
8,109,2,8,9,2,1,I,6,S,7,L,11,0.468258,0.778218,0.364407
8,110,9,1,1,2,1,I,8,L,1,S,10,0.797384,0.386815,0.308441
8,111,8,9,1,9,1,C,1,S,8,L,10,0.391989,0.751112,0.294427
8,112,9,2,8,1,1,C,7,L,7,L,9,0.858008,0.262518,0.225243
8,113,8,1,2,8,1,I,7,L,6,S,10,0.759762,0.436506,0.331641
8,114,8,2,1,8,1,I,6,S,7,L,14,0.764407,0.585156,0.447297
8,115,2,8,1,9,1,C,6,S,8,L,8,0.243435,0.823923,0.200572
8,116,2,8,1,2,1,C,6,S,1,S,9,0.264631,0.852668,0.225642
8,117,8,9,8,1,0,I,1,S,7,L,11,0.78587,0.391858,0.307949
8,118,9,1,9,2,1,C,8,L,7,L,8,0.806123,0.257541,0.20761
8,119,1,8,2,8,1,C,7,L,6,S,8,0.283179,0.76889,0.217734
8,120,9,8,2,9,0,I,1,S,7,L,10,0.357576,0.776012,0.277483
8,121,8,2,8,9,1,I,6,S,1,S,10,0.772403,0.373484,0.28848
8,122,1,9,8,1,1,I,8,L,7,L,13,0.541767,0.780809,0.423017
8,123,9,1,8,2,1,C,8,L,6,S,8,0.801213,0.261148,0.209235
8,124,1,8,9,1,1,I,7,L,8,L,12,0.519977,0.775815,0.403406
8,125,1,9,1,9,1,C,8,L,8,L,8,0.271799,0.78627,0.213707
8,126,1,2,9,8,1,I,1,S,1,S,13,0.445969,0.761889,0.339779
8,127,8,1,8,1,1,C,7,L,7,L,8,0.826067,0.241853,0.199787
8,128,2,1,9,8,1,C,1,S,1,S,12,0.805116,0.3823,0.307796
8,129,8,1,9,1,1,C,7,L,8,L,8,0.830123,0.23901,0.198408
8,130,1,9,9,8,1,I,8,L,1,S,10,0.346851,0.808321,0.280367
8,131,9,8,2,1,0,C,1,S,1,S,18,0.595925,0.766596,0.456834
8,132,9,1,9,8,1,C,8,L,1,S,9,0.808451,0.310027,0.250642
8,133,2,1,2,1,1,C,1,S,1,S,10,0.755484,0.361523,0.273125
8,134,2,1,1,2,1,I,1,S,1,S,16,0.771622,0.565915,0.436672
8,135,2,9,2,1,1,I,7,L,1,S,10,0.407697,0.756474,0.308412
8,136,2,1,9,2,1,C,1,S,7,L,10,0.827539,0.311627,0.257884
8,137,1,9,9,1,1,I,8,L,8,L,13,0.546626,0.777144,0.424808
8,138,1,2,9,2,1,I,1,S,7,L,20,0.636662,0.765237,0.487198
8,139,1,8,2,9,1,C,7,L,7,L,8,0.281969,0.769912,0.217091
8,140,9,2,1,9,1,I,7,L,8,L,14,0.76842,0.582243,0.447407
8,141,1,8,9,2,1,I,7,L,7,L,11,0.478942,0.765163,0.366468
8,142,2,8,8,1,1,I,6,S,7,L,11,0.497902,0.755769,0.376299
8,143,8,9,8,9,1,C,1,S,1,S,19,0.486637,0.753378,0.366621
8,144,9,1,2,9,1,I,8,L,7,L,10,0.760901,0.436336,0.332008
9,1,1,9,1,9,1,C,8,L,8,L,8,0.236123,0.828372,0.195598
9,2,8,9,2,8,1,C,1,S,6,S,12,0.441645,0.757164,0.334397
9,3,1,9,8,1,1,I,8,L,7,L,11,0.491459,0.758004,0.372528
9,4,8,1,2,9,1,I,7,L,7,L,12,0.782918,0.512369,0.401142
9,5,8,2,9,2,1,C,6,S,7,L,9,0.841777,0.272237,0.229163
9,6,1,9,9,1,1,I,8,L,8,L,11,0.494107,0.758565,0.374813
9,7,8,1,1,9,1,I,7,L,8,L,12,0.765863,0.533289,0.408426
9,8,8,1,8,1,1,C,7,L,7,L,8,0.797737,0.260036,0.207441
9,9,8,2,2,1,1,C,6,S,1,S,9,0.761126,0.333323,0.253701
9,10,2,9,8,2,1,I,7,L,6,S,12,0.49813,0.776328,0.386712
9,11,2,9,2,1,1,I,7,L,1,S,10,0.383625,0.77104,0.29579
9,12,9,2,8,9,1,I,7,L,1,S,11,0.795162,0.393576,0.312957
9,13,2,1,9,8,1,C,1,S,1,S,14,0.760825,0.451147,0.343244
9,14,2,1,8,2,1,C,1,S,6,S,11,0.819674,0.350624,0.287397
9,15,8,1,2,1,1,C,7,L,1,S,9,0.805637,0.302467,0.243679
9,16,2,8,8,2,1,I,6,S,6,S,13,0.52822,0.775252,0.409504
9,17,2,9,9,2,1,I,7,L,7,L,12,0.500533,0.777195,0.389012
9,18,1,8,9,1,1,I,7,L,8,L,12,0.518938,0.771328,0.400272
9,19,2,1,9,1,1,C,1,S,8,L,10,0.782891,0.35693,0.279437
9,20,2,8,9,8,1,I,6,S,1,S,10,0.359354,0.784204,0.281807
9,21,1,9,1,2,1,C,8,L,1,S,9,0.270526,0.839745,0.227173
9,22,8,9,2,9,1,C,1,S,7,L,12,0.424199,0.781897,0.33168
9,23,8,1,2,8,1,I,7,L,6,S,11,0.763194,0.481254,0.36729
9,24,8,1,9,8,1,C,7,L,1,S,9,0.771158,0.336321,0.259357
9,25,8,1,9,1,1,C,7,L,8,L,8,0.799505,0.261427,0.209012
9,26,9,2,2,1,1,C,7,L,1,S,10,0.82806,0.31584,0.261535
9,27,9,8,2,1,1,C,1,S,1,S,12,0.780344,0.393596,0.30714
9,28,1,8,1,2,1,C,7,L,1,S,9,0.28712,0.817075,0.234599
9,29,2,1,9,2,1,C,1,S,7,L,11,0.821785,0.351814,0.289115
9,30,1,9,2,8,1,C,8,L,6,S,8,0.262461,0.792391,0.207972
9,31,2,8,2,8,1,C,6,S,6,S,9,0.276472,0.834578,0.230737
9,32,9,8,2,8,1,I,1,S,6,S,22,0.75882,0.648155,0.491833
9,33,8,2,2,9,1,I,6,S,7,L,13,0.767269,0.551007,0.42277
9,34,2,9,9,8,1,I,7,L,1,S,10,0.334587,0.817532,0.273536
9,35,2,9,8,1,1,I,7,L,7,L,12,0.532622,0.750716,0.399848
9,36,9,2,1,9,1,I,7,L,8,L,14,0.758048,0.58668,0.444731
9,37,8,2,8,9,1,I,6,S,1,S,10,0.760952,0.387551,0.294908
9,38,2,9,1,8,1,C,7,L,7,L,8,0.275034,0.774821,0.213102
9,39,1,8,8,2,1,I,7,L,6,S,11,0.475169,0.759193,0.360745
9,40,8,2,9,1,1,C,6,S,8,L,8,0.760351,0.288557,0.219404
9,41,1,2,1,8,1,C,1,S,7,L,9,0.290581,0.810503,0.235517
9,42,2,9,2,8,1,C,7,L,6,S,8,0.291216,0.754699,0.21978
9,43,9,1,1,9,1,I,8,L,8,L,13,0.781814,0.547571,0.428099
9,44,9,8,9,8,1,C,1,S,1,S,14,0.783352,0.429777,0.336666
9,45,1,8,2,8,1,C,7,L,6,S,8,0.277512,0.771835,0.214194
9,46,9,8,8,1,1,C,1,S,7,L,10,0.788806,0.344555,0.271787
9,47,9,8,9,1,1,C,1,S,8,L,10,0.791177,0.34542,0.273288
9,48,1,2,9,8,1,I,1,S,1,S,11,0.374713,0.795106,0.297937
9,49,1,2,2,1,1,I,1,S,1,S,12,0.438221,0.778274,0.341056
9,50,2,8,1,9,1,C,6,S,8,L,8,0.28466,0.764502,0.217623
9,51,8,2,1,8,1,I,6,S,7,L,13,0.763944,0.552285,0.421915
9,52,1,2,9,1,1,I,1,S,8,L,16,0.599896,0.77313,0.463797
9,53,2,1,2,1,1,C,1,S,1,S,12,0.764827,0.410421,0.313901
9,54,9,2,1,8,1,I,7,L,7,L,14,0.771142,0.568675,0.438529
9,55,8,9,9,8,0,I,1,S,1,S,16,0.762822,0.460213,0.351061
9,56,1,9,2,9,1,C,8,L,7,L,8,0.25025,0.810677,0.202872
9,57,9,1,9,1,1,C,8,L,8,L,8,0.785802,0.270708,0.212723
9,58,8,1,1,8,1,I,7,L,7,L,12,0.779282,0.513999,0.400551
9,59,2,1,1,2,1,I,1,S,1,S,21,0.769345,0.618682,0.47598
9,60,8,9,9,1,0,I,1,S,8,L,10,0.756917,0.374684,0.283604
9,61,9,1,8,2,1,C,8,L,6,S,8,0.75893,0.287652,0.218308
9,62,8,2,8,2,1,C,6,S,6,S,9,0.840241,0.270503,0.227288
9,63,8,9,1,8,1,C,1,S,7,L,12,0.420564,0.783527,0.329523
9,64,9,8,1,9,0,I,1,S,8,L,12,0.469044,0.752377,0.352898
9,65,1,9,9,8,1,I,8,L,1,S,9,0.323785,0.784203,0.253913
9,66,9,2,9,1,1,C,7,L,8,L,9,0.852299,0.264047,0.225047
9,67,1,2,8,9,1,C,1,S,1,S,10,0.356867,0.770089,0.274819
9,68,1,8,8,9,1,C,7,L,1,S,9,0.31144,0.789769,0.245966
9,69,2,8,9,2,1,I,6,S,7,L,13,0.530898,0.775795,0.411868
9,70,2,1,2,8,0,I,1,S,6,S,14,0.519125,0.753055,0.39093
9,71,8,9,8,1,0,I,1,S,7,L,10,0.754547,0.373819,0.282064
9,72,9,8,1,8,0,I,1,S,7,L,14,0.521423,0.755937,0.394163
9,73,1,9,2,1,1,I,8,L,1,S,9,0.358264,0.750349,0.268823
9,74,9,2,1,2,1,I,7,L,1,S,11,0.756498,0.44113,0.333714
9,75,9,1,2,1,1,C,8,L,1,S,9,0.790315,0.312916,0.247302
9,76,2,8,8,1,1,I,6,S,7,L,14,0.561771,0.779198,0.437731
9,77,9,1,9,8,1,C,8,L,1,S,9,0.755836,0.34677,0.262101
9,78,8,1,1,2,1,I,7,L,1,S,10,0.777188,0.391139,0.303988
9,79,1,2,8,1,1,I,1,S,7,L,16,0.596282,0.773846,0.461431
9,80,1,8,2,9,1,C,7,L,7,L,8,0.265301,0.790122,0.20962
9,81,2,8,9,1,1,I,6,S,8,L,14,0.565075,0.778917,0.440146
9,82,2,9,9,1,1,I,7,L,8,L,12,0.535518,0.750976,0.402161
9,83,1,9,8,9,1,C,8,L,1,S,9,0.294846,0.81244,0.239545
9,84,2,1,1,9,0,I,1,S,8,L,12,0.453527,0.769202,0.348854
9,85,1,9,9,2,1,I,8,L,7,L,11,0.459317,0.784159,0.360177
9,86,1,8,9,2,1,I,7,L,7,L,11,0.477279,0.760383,0.362915
9,87,9,1,8,9,1,I,8,L,1,S,10,0.792386,0.365352,0.289499
9,88,2,1,8,9,1,I,1,S,1,S,18,0.750324,0.580694,0.435709
9,89,1,8,9,8,1,I,7,L,1,S,9,0.340379,0.761533,0.25921
9,90,1,2,2,9,1,C,1,S,7,L,9,0.294671,0.808446,0.238225
9,91,8,9,9,2,0,I,1,S,7,L,11,0.786737,0.376798,0.296441
9,92,8,2,1,9,1,I,6,S,8,L,13,0.750578,0.571049,0.428617
9,93,1,2,1,9,1,C,1,S,8,L,9,0.278992,0.828378,0.231111
9,94,2,8,2,1,1,I,6,S,1,S,11,0.40171,0.791953,0.318136
9,95,9,8,1,2,1,I,1,S,1,S,20,0.767047,0.609583,0.467579
9,96,1,8,2,1,1,I,7,L,1,S,10,0.367465,0.791531,0.29086
9,97,2,8,8,9,1,C,6,S,1,S,10,0.319543,0.824664,0.263515
9,98,8,9,2,1,0,I,1,S,1,S,13,0.774098,0.415225,0.321425
9,99,2,9,1,9,1,C,7,L,8,L,8,0.264877,0.790681,0.209434
9,100,9,1,2,8,1,I,8,L,6,S,12,0.78416,0.499399,0.391608
9,101,2,8,1,2,1,C,6,S,1,S,9,0.325035,0.767181,0.24936
9,102,8,2,2,8,1,I,6,S,6,S,12,0.752013,0.523026,0.393322
9,103,1,2,2,8,1,C,1,S,6,S,9,0.309002,0.787003,0.243185
9,104,8,9,1,2,0,C,1,S,1,S,25,0.767741,0.634109,0.486832
9,105,2,9,8,9,1,C,7,L,1,S,9,0.326654,0.770435,0.251665
9,106,9,8,9,2,1,C,1,S,7,L,10,0.757896,0.369605,0.280123
9,107,9,8,8,2,1,C,1,S,6,S,10,0.756083,0.368116,0.278327
9,108,9,2,2,8,1,I,7,L,6,S,13,0.762227,0.543492,0.414264
9,109,9,1,8,1,1,C,8,L,7,L,8,0.784034,0.269318,0.211154
9,110,1,9,1,8,1,C,8,L,7,L,8,0.24628,0.812512,0.200105
9,111,2,9,2,9,1,C,7,L,7,L,8,0.279005,0.772986,0.215667
9,112,9,1,2,9,1,I,8,L,7,L,12,0.766714,0.524131,0.401859
9,113,9,2,8,2,1,C,7,L,6,S,9,0.820567,0.284233,0.233232
9,114,9,2,2,9,1,I,7,L,7,L,14,0.774124,0.567787,0.439537
9,115,2,8,1,8,1,C,6,S,7,L,9,0.258052,0.858078,0.221429
9,116,1,2,8,2,1,I,1,S,6,S,15,0.571293,0.772464,0.441303
9,117,9,8,8,9,1,I,1,S,1,S,17,0.75072,0.560259,0.420598
9,118,8,2,9,8,1,C,6,S,1,S,10,0.800764,0.347091,0.277937
9,119,9,2,9,2,1,C,7,L,7,L,9,0.822102,0.285967,0.235094
9,120,8,2,1,2,1,I,6,S,1,S,11,0.779293,0.424915,0.331133
9,121,8,2,8,1,1,C,6,S,7,L,8,0.758584,0.287166,0.21784
9,122,2,9,1,2,1,C,7,L,1,S,9,0.302334,0.79774,0.241184
9,123,1,2,9,2,1,I,1,S,7,L,15,0.574445,0.772409,0.443706
9,124,8,1,8,2,1,C,7,L,6,S,8,0.772633,0.278371,0.215078
9,125,9,8,2,9,0,I,1,S,7,L,14,0.524405,0.755048,0.395951
9,126,1,2,1,2,1,C,1,S,1,S,10,0.325481,0.807104,0.262697
9,127,1,8,1,9,1,C,7,L,8,L,8,0.251174,0.807817,0.202902
9,128,9,1,1,8,1,I,8,L,7,L,12,0.763079,0.525762,0.401198
9,129,8,9,1,9,1,C,1,S,8,L,11,0.409755,0.767002,0.314283
9,130,9,2,9,8,1,C,7,L,1,S,10,0.779023,0.362332,0.282265
9,131,8,9,8,9,0,C,1,S,1,S,23,0.760635,0.621011,0.472362
9,132,1,9,8,2,1,I,8,L,6,S,11,0.457206,0.782969,0.357978
9,133,9,1,1,2,1,I,8,L,1,S,10,0.761,0.402367,0.306201
9,134,9,1,9,2,1,C,8,L,7,L,8,0.760238,0.289542,0.220121
9,135,8,1,9,2,1,C,7,L,7,L,8,0.773941,0.280261,0.216905
9,136,2,8,2,9,1,C,6,S,7,L,9,0.262141,0.856021,0.224398
9,137,1,8,8,1,1,I,7,L,7,L,12,0.516042,0.771068,0.397903
9,138,2,1,1,8,0,I,1,S,7,L,13,0.480248,0.768025,0.368842
9,139,8,9,8,2,0,I,1,S,6,S,11,0.784626,0.375608,0.294712
9,140,8,1,8,9,1,I,7,L,1,S,10,0.808574,0.354123,0.286335
9,141,2,1,2,9,0,I,1,S,7,L,13,0.483573,0.766746,0.370778
9,142,2,1,8,1,1,C,1,S,7,L,10,0.78052,0.356065,0.277916
9,143,1,8,1,8,1,C,7,L,7,L,8,0.261331,0.791957,0.206963
9,144,9,2,8,1,1,C,7,L,7,L,9,0.850229,0.262895,0.223521
10,1,9,8,9,1,1,C,1,S,8,L,10,0.816459,0.330461,0.269808
10,2,8,2,8,1,1,C,6,S,7,L,8,0.777394,0.275831,0.214429
10,3,8,9,1,9,1,C,1,S,8,L,10,0.363223,0.776052,0.28188
10,4,2,8,9,8,1,I,6,S,1,S,10,0.35823,0.784902,0.281176
10,5,9,2,2,9,1,I,7,L,7,L,12,0.771544,0.51986,0.401094
10,6,9,1,9,1,1,C,8,L,8,L,8,0.808905,0.252235,0.204034
10,7,8,9,8,1,0,I,1,S,7,L,11,0.756695,0.417171,0.315671
10,8,8,2,2,1,1,C,6,S,1,S,9,0.768311,0.328755,0.252586
10,9,1,9,2,8,1,C,8,L,6,S,8,0.250996,0.808553,0.202944
10,10,8,1,8,1,1,C,7,L,7,L,8,0.782764,0.270931,0.212075
10,11,1,8,9,8,1,I,7,L,1,S,9,0.341308,0.760407,0.259533
10,12,8,1,1,9,1,I,7,L,8,L,13,0.77425,0.554333,0.429192
10,13,2,8,8,2,1,I,6,S,6,S,14,0.568936,0.778165,0.442726
10,14,2,8,9,2,1,I,6,S,7,L,14,0.582961,0.765857,0.446465
10,15,1,9,2,9,1,C,8,L,7,L,8,0.256762,0.800273,0.20548
10,16,1,2,2,9,1,C,1,S,7,L,10,0.333011,0.803293,0.267505
10,17,1,8,8,2,1,I,7,L,6,S,12,0.525691,0.768224,0.403848
10,18,1,9,9,2,1,I,8,L,7,L,12,0.530001,0.767265,0.406651
10,19,8,1,9,8,1,C,7,L,1,S,9,0.750316,0.347202,0.260512
10,20,2,9,8,9,1,C,7,L,1,S,9,0.344298,0.750822,0.258506
10,21,8,2,8,9,1,I,6,S,1,S,10,0.794517,0.360689,0.286574
10,22,9,8,2,8,0,I,1,S,6,S,13,0.510376,0.750326,0.382948
10,23,9,8,9,8,1,C,1,S,1,S,14,0.800367,0.419858,0.336041
10,24,9,1,2,1,1,C,8,L,1,S,9,0.788103,0.31507,0.248308
10,25,2,9,8,1,1,I,7,L,7,L,13,0.548182,0.770293,0.422261
10,26,1,2,2,1,1,I,1,S,1,S,16,0.511708,0.777227,0.397714
10,27,8,9,9,2,0,I,1,S,7,L,11,0.777496,0.401004,0.311779
10,28,9,2,9,1,1,C,7,L,8,L,8,0.803895,0.256837,0.20647
10,29,2,1,9,2,1,C,1,S,7,L,10,0.824967,0.318331,0.262612
10,30,9,2,9,2,1,C,7,L,7,L,8,0.807256,0.255027,0.205872
10,31,9,8,2,9,1,I,1,S,7,L,22,0.768363,0.648057,0.497943
10,32,9,1,9,2,1,C,8,L,7,L,8,0.812266,0.250425,0.203412
10,33,8,1,2,8,1,I,7,L,6,S,12,0.754684,0.534885,0.403669
10,34,2,1,2,1,1,C,1,S,1,S,12,0.77432,0.397276,0.307619
10,35,9,1,8,9,1,I,8,L,1,S,10,0.815565,0.345927,0.282126
10,36,8,1,8,9,1,I,7,L,1,S,10,0.800952,0.355037,0.284368
10,37,2,8,1,2,1,C,6,S,1,S,10,0.330851,0.813328,0.269091
10,38,1,8,8,9,1,C,7,L,1,S,9,0.323517,0.781564,0.252849
10,39,8,2,1,8,1,I,6,S,7,L,13,0.762593,0.567425,0.432714
10,40,9,8,8,1,1,C,1,S,7,L,10,0.799871,0.343882,0.275061
10,41,1,2,8,2,1,I,1,S,6,S,21,0.656451,0.750526,0.492684
10,42,2,8,2,8,1,C,6,S,6,S,8,0.29308,0.755508,0.221424
10,43,8,2,9,2,1,C,6,S,7,L,8,0.794727,0.26252,0.208632
10,44,9,1,2,8,1,I,8,L,6,S,12,0.769582,0.525039,0.404061
10,45,1,9,1,9,1,C,8,L,8,L,8,0.240804,0.823028,0.198189
10,46,1,2,9,8,1,I,1,S,1,S,13,0.431514,0.761831,0.328741
10,47,2,8,2,1,1,I,6,S,1,S,10,0.392529,0.751898,0.295142
10,48,8,1,8,2,1,C,7,L,6,S,8,0.786466,0.268854,0.211445
10,49,9,2,8,2,1,C,7,L,6,S,8,0.793625,0.266261,0.211311
10,50,2,1,1,9,0,I,1,S,8,L,13,0.508088,0.75312,0.382651
10,51,8,2,1,9,1,I,6,S,8,L,13,0.768262,0.559851,0.430113
10,52,9,8,9,2,1,C,1,S,7,L,10,0.82043,0.328151,0.269225
10,53,8,9,1,2,1,C,1,S,1,S,14,0.43808,0.760888,0.333329
10,54,9,2,1,9,1,I,7,L,8,L,12,0.751269,0.547216,0.411106
10,55,8,9,2,9,1,C,1,S,7,L,11,0.361359,0.810959,0.293048
10,56,2,9,9,8,1,I,7,L,1,S,10,0.34185,0.803934,0.274825
10,57,8,1,2,9,1,I,7,L,7,L,12,0.762262,0.524544,0.39984
10,58,8,2,9,8,1,C,6,S,1,S,10,0.820028,0.331039,0.271461
10,59,9,2,2,1,1,C,7,L,1,S,9,0.782524,0.320063,0.250457
10,60,2,1,1,2,1,I,1,S,1,S,15,0.759273,0.497196,0.377507
10,61,8,2,2,9,1,I,6,S,7,L,12,0.755949,0.530233,0.400829
10,62,2,9,9,1,1,I,7,L,8,L,13,0.563811,0.756955,0.42678
10,63,9,2,1,2,1,I,7,L,1,S,10,0.80787,0.349902,0.282676
10,64,8,2,2,8,1,I,6,S,6,S,13,0.780783,0.543435,0.424305
10,65,8,1,1,2,1,I,7,L,1,S,10,0.799084,0.353813,0.282727
10,66,8,1,1,8,1,I,7,L,7,L,13,0.768581,0.561906,0.431871
10,67,8,2,9,1,1,C,6,S,8,L,8,0.791366,0.26433,0.209182
10,68,2,8,1,9,1,C,6,S,8,L,8,0.282888,0.769983,0.217819
10,69,9,1,2,9,1,I,8,L,7,L,12,0.777161,0.514698,0.400003
10,70,2,9,1,9,1,C,7,L,8,L,8,0.269327,0.784845,0.21138
10,71,1,8,1,8,1,C,7,L,7,L,8,0.24642,0.8188,0.201769
10,72,9,1,1,8,1,I,8,L,7,L,12,0.751129,0.549915,0.413057
10,73,1,8,1,2,1,C,7,L,1,S,9,0.321716,0.780365,0.251056
10,74,8,9,8,2,0,I,1,S,6,S,11,0.761408,0.414256,0.315418
10,75,1,9,1,8,1,C,8,L,7,L,8,0.23607,0.829999,0.195938
10,76,2,1,1,8,0,I,1,S,7,L,13,0.502419,0.760693,0.382187
10,77,2,1,2,8,1,I,1,S,6,S,22,0.767711,0.645735,0.495738
10,78,9,1,9,8,1,C,8,L,1,S,9,0.764028,0.338894,0.258925
10,79,2,9,8,2,1,I,7,L,6,S,13,0.552825,0.767247,0.424154
10,80,1,9,9,1,1,I,8,L,8,L,12,0.525958,0.769784,0.404874
10,81,2,1,8,1,1,C,1,S,7,L,10,0.804408,0.334062,0.268722
10,82,8,9,9,8,1,I,1,S,1,S,17,0.462696,0.76737,0.355059
10,83,1,8,2,8,1,C,7,L,6,S,8,0.261346,0.797355,0.208386
10,84,2,9,1,8,1,C,7,L,7,L,8,0.264593,0.791816,0.209509
10,85,1,2,9,2,1,I,1,S,7,L,22,0.648204,0.765573,0.496248
10,86,9,8,8,2,1,C,1,S,6,S,10,0.804432,0.341153,0.274434
10,87,2,9,9,2,1,I,7,L,7,L,13,0.567773,0.754419,0.428339
10,88,8,2,8,2,1,C,6,S,6,S,8,0.781096,0.273754,0.213828
10,89,1,9,8,1,1,I,8,L,7,L,12,0.509594,0.783448,0.399241
10,90,9,2,2,8,1,I,7,L,6,S,12,0.763965,0.530201,0.405055
10,91,9,2,8,1,1,C,7,L,7,L,8,0.789923,0.268338,0.211966
10,92,1,2,1,9,1,C,1,S,8,L,10,0.313666,0.830511,0.260503
10,93,8,2,1,2,1,I,6,S,1,S,10,0.792649,0.359465,0.28493
10,94,1,8,9,2,1,I,7,L,7,L,12,0.541371,0.755056,0.408766
10,95,1,2,2,8,1,C,1,S,6,S,10,0.325872,0.813444,0.265078
10,96,2,9,1,2,1,C,7,L,1,S,10,0.314472,0.83236,0.261754
10,97,2,1,9,8,1,C,1,S,1,S,13,0.759008,0.433916,0.329345
10,98,9,1,1,9,1,I,8,L,8,L,12,0.756886,0.542055,0.410274
10,99,2,8,2,9,1,C,6,S,7,L,9,0.262137,0.856556,0.224535
10,100,8,9,1,8,1,C,1,S,7,L,10,0.357645,0.78403,0.280404
10,101,9,1,1,2,1,I,8,L,1,S,10,0.813698,0.344703,0.280484
10,102,2,9,2,8,1,C,7,L,6,S,8,0.279518,0.77037,0.215333
10,103,1,2,8,9,1,C,1,S,1,S,12,0.405266,0.767919,0.311211
10,104,1,9,8,9,1,C,8,L,1,S,9,0.312369,0.79391,0.247993
10,105,2,1,8,9,1,I,1,S,1,S,15,0.760337,0.499473,0.379768
10,106,2,1,9,1,1,C,1,S,8,L,10,0.820996,0.320641,0.263245
10,107,1,9,2,1,1,I,8,L,1,S,10,0.341996,0.81669,0.279305
10,108,2,1,2,9,1,I,1,S,7,L,21,0.750049,0.655326,0.491526
10,109,8,9,2,8,1,C,1,S,6,S,10,0.375429,0.758985,0.284945
10,110,8,9,2,1,1,I,1,S,1,S,24,0.620636,0.764703,0.474603
10,111,8,9,9,1,0,I,1,S,8,L,11,0.773438,0.403451,0.312045
10,112,1,2,1,2,1,C,1,S,1,S,12,0.403457,0.766525,0.30926
10,113,1,8,8,1,1,I,7,L,7,L,12,0.520964,0.77124,0.401788
10,114,8,9,8,9,1,C,1,S,1,S,14,0.439475,0.762785,0.335225
10,115,1,9,9,8,1,I,8,L,1,S,9,0.33016,0.772754,0.255132
10,116,9,1,8,1,1,C,8,L,7,L,8,0.794933,0.263736,0.209652
10,117,2,9,2,9,1,C,7,L,7,L,8,0.285285,0.76209,0.217412
10,118,9,8,8,9,1,I,1,S,1,S,16,0.778903,0.509709,0.397014
10,119,9,1,8,2,1,C,8,L,6,S,8,0.798635,0.261659,0.20897
10,120,1,2,9,1,1,I,1,S,8,L,22,0.645462,0.767409,0.495334
10,121,1,9,1,2,1,C,8,L,1,S,9,0.310569,0.792711,0.246191
10,122,9,8,1,2,1,I,1,S,1,S,16,0.77822,0.507014,0.394569
10,123,1,8,2,9,1,C,7,L,7,L,8,0.267112,0.789075,0.210772
10,124,1,8,1,9,1,C,7,L,8,L,8,0.251154,0.81183,0.203895
10,125,2,8,9,1,1,I,6,S,8,L,14,0.579122,0.76837,0.44498
10,126,9,8,1,8,0,I,1,S,7,L,12,0.472477,0.761414,0.35975
10,127,1,8,9,1,1,I,7,L,8,L,12,0.537328,0.757575,0.407066
10,128,2,8,8,9,1,C,6,S,1,S,10,0.332719,0.814552,0.271017
10,129,9,8,2,1,1,C,1,S,1,S,12,0.76574,0.409921,0.313893
10,130,1,8,2,1,1,I,7,L,1,S,10,0.353539,0.80389,0.284206
10,131,9,2,1,8,1,I,7,L,7,L,13,0.777835,0.557024,0.433273
10,132,8,1,2,1,1,C,7,L,1,S,9,0.774391,0.323378,0.250421
10,133,1,2,8,1,1,I,1,S,7,L,21,0.653247,0.752767,0.491743
10,134,2,8,8,1,1,I,6,S,7,L,13,0.564836,0.751617,0.42454
10,135,2,9,2,1,1,I,7,L,1,S,10,0.376149,0.77093,0.289985
10,136,9,8,1,9,0,I,1,S,8,L,12,0.478234,0.753554,0.360375
10,137,2,1,8,2,1,C,1,S,6,S,10,0.808969,0.331333,0.268038
10,138,2,8,1,8,1,C,6,S,7,L,8,0.278154,0.776954,0.216113
10,139,9,2,8,9,1,I,7,L,1,S,10,0.809738,0.351126,0.28432
10,140,8,1,9,2,1,C,7,L,7,L,8,0.800097,0.257621,0.206122
10,141,1,9,8,2,1,I,8,L,6,S,12,0.51432,0.780433,0.401393
10,142,8,1,9,1,1,C,7,L,8,L,8,0.796736,0.25943,0.206697
10,143,1,2,1,8,1,C,1,S,7,L,9,0.336608,0.756676,0.254703
10,144,9,2,9,8,1,C,7,L,1,S,9,0.75845,0.343887,0.260821
11,1,2,8,1,9,1,C,6,S,8,L,8,0.23399,0.836678,0.195775
11,2,9,8,1,9,0,I,1,S,8,L,10,0.375695,0.764134,0.287081
11,3,1,2,8,9,1,C,1,S,1,S,15,0.502769,0.762468,0.383346
11,4,2,8,2,1,1,I,6,S,1,S,10,0.389764,0.784159,0.305637
11,5,8,2,2,8,1,I,6,S,6,S,13,0.782009,0.536473,0.419527
11,6,1,8,1,8,1,C,7,L,7,L,8,0.241796,0.822503,0.198878
11,7,2,9,9,8,1,I,7,L,1,S,9,0.348859,0.771187,0.269035
11,8,2,8,8,1,1,I,6,S,7,L,12,0.557255,0.753926,0.420129
11,9,2,1,2,1,1,C,1,S,1,S,11,0.775623,0.375723,0.291419
11,10,2,1,2,8,1,I,1,S,6,S,22,0.767926,0.643628,0.494258
11,11,8,2,1,2,1,I,6,S,1,S,10,0.756612,0.397895,0.301052
11,12,9,2,8,1,1,C,7,L,7,L,8,0.834043,0.232814,0.194177
11,13,9,8,2,9,0,I,1,S,7,L,10,0.382741,0.754017,0.288593
11,14,8,9,1,2,1,C,1,S,1,S,11,0.34347,0.817719,0.280862
11,15,8,1,8,1,1,C,7,L,7,L,8,0.865548,0.211834,0.183353
11,16,9,2,9,2,1,C,7,L,7,L,8,0.791708,0.262735,0.208009
11,17,2,1,1,9,0,I,1,S,8,L,13,0.500599,0.760729,0.38082
11,18,9,8,9,2,1,C,1,S,7,L,11,0.785858,0.388079,0.304975
11,19,8,2,9,1,1,C,6,S,8,L,8,0.815951,0.245855,0.200606
11,20,8,9,2,8,1,C,1,S,6,S,9,0.328148,0.762642,0.250259
11,21,1,8,2,1,1,I,7,L,1,S,10,0.3871,0.785481,0.30406
11,22,8,2,8,9,1,I,6,S,1,S,9,0.765953,0.329403,0.252307
11,23,1,9,8,9,1,C,8,L,1,S,9,0.331121,0.785135,0.259975
11,24,1,9,2,9,1,C,8,L,7,L,8,0.22187,0.851197,0.188856
11,25,2,8,8,2,1,I,6,S,6,S,12,0.520712,0.781274,0.406819
11,26,9,1,8,1,1,C,8,L,7,L,8,0.874805,0.20541,0.179693
11,27,8,1,9,1,1,C,7,L,8,L,8,0.859122,0.216591,0.186078
11,28,2,8,9,8,1,I,6,S,1,S,10,0.359058,0.810901,0.29116
11,29,8,1,1,8,1,I,7,L,7,L,11,0.75537,0.502164,0.37932
11,30,1,2,2,1,1,I,1,S,1,S,18,0.597492,0.758097,0.452957
11,31,8,9,2,9,1,C,1,S,7,L,9,0.31521,0.781445,0.24632
11,32,1,8,8,9,1,C,7,L,1,S,9,0.347822,0.761477,0.264858
11,33,1,9,2,1,1,I,8,L,1,S,9,0.369659,0.75066,0.277488
11,34,2,1,9,1,1,C,1,S,8,L,9,0.769111,0.329175,0.253172
11,35,1,8,8,2,1,I,7,L,6,S,12,0.51839,0.78221,0.40549
11,36,9,8,8,9,1,I,1,S,1,S,16,0.750402,0.481815,0.361555
11,37,2,9,2,9,1,C,7,L,7,L,8,0.224192,0.850296,0.19063
11,38,1,2,1,8,1,C,1,S,7,L,10,0.314906,0.824049,0.259498
11,39,9,8,1,8,0,I,1,S,7,L,11,0.373049,0.801592,0.299033
11,40,1,9,8,1,1,I,8,L,7,L,12,0.537181,0.77845,0.418168
11,41,9,1,9,1,1,C,8,L,8,L,8,0.868379,0.210167,0.182504
11,42,9,2,2,8,1,I,7,L,6,S,12,0.764054,0.522525,0.399237
11,43,8,2,1,9,1,I,6,S,8,L,13,0.760233,0.565676,0.430045
11,44,1,9,8,2,1,I,8,L,6,S,11,0.494261,0.770234,0.380696
11,45,2,1,8,9,1,I,1,S,1,S,12,0.771912,0.400721,0.309322
11,46,8,9,2,1,1,I,1,S,1,S,15,0.554448,0.75561,0.418946
11,47,9,8,1,2,0,I,1,S,1,S,14,0.425868,0.787956,0.335566
11,48,9,8,2,8,0,I,1,S,6,S,11,0.38181,0.789306,0.301365
11,49,2,9,8,1,1,I,7,L,7,L,12,0.538995,0.778071,0.419376
11,50,2,9,8,2,1,I,7,L,6,S,11,0.496263,0.769649,0.381948
11,51,2,8,1,2,1,C,6,S,1,S,9,0.281748,0.830653,0.234035
11,52,9,1,8,2,1,C,8,L,6,S,8,0.841319,0.228692,0.192403
11,53,9,1,8,9,1,I,8,L,1,S,9,0.824042,0.289564,0.238613
11,54,9,8,9,1,1,C,1,S,8,L,10,0.774725,0.370484,0.287023
11,55,2,1,1,2,1,I,1,S,1,S,18,0.760172,0.588405,0.447289
11,56,1,2,9,1,0,I,1,S,8,L,13,0.758973,0.508625,0.386032
11,57,9,2,9,8,1,C,7,L,1,S,9,0.794644,0.306964,0.243927
11,58,1,9,1,8,1,C,8,L,7,L,8,0.22648,0.844434,0.191247
11,59,1,9,9,2,1,I,8,L,7,L,11,0.483664,0.778331,0.37645
11,60,2,9,1,9,1,C,7,L,8,L,8,0.218258,0.859058,0.187496
11,61,2,9,1,2,1,C,7,L,1,S,8,0.294732,0.755709,0.222732
11,62,9,2,9,1,1,C,7,L,8,L,8,0.827617,0.237572,0.196618
11,63,2,8,9,2,1,I,6,S,7,L,11,0.504008,0.752944,0.37949
11,64,8,9,9,1,1,I,1,S,8,L,19,0.653983,0.752054,0.491831
11,65,8,9,1,9,1,C,1,S,8,L,9,0.308601,0.791114,0.244138
11,66,9,1,1,2,1,I,8,L,1,S,9,0.755222,0.360138,0.271984
11,67,2,1,9,2,1,C,1,S,7,L,10,0.808876,0.330656,0.26746
11,68,8,2,8,2,1,C,6,S,6,S,8,0.788891,0.264381,0.208568
11,69,2,9,9,2,1,I,7,L,7,L,11,0.485665,0.777747,0.377725
11,70,8,9,8,1,1,I,1,S,7,L,20,0.644275,0.770681,0.496531
11,71,2,9,8,9,1,C,7,L,1,S,9,0.333397,0.784263,0.261471
11,72,1,8,8,1,1,I,7,L,7,L,12,0.554934,0.754861,0.418898
11,73,1,2,9,2,1,I,1,S,7,L,21,0.647833,0.758063,0.491098
11,74,8,1,9,8,1,C,7,L,1,S,9,0.829495,0.283511,0.235171
11,75,8,1,2,9,1,I,7,L,7,L,12,0.78568,0.51656,0.405851
11,76,9,8,8,1,1,C,1,S,7,L,10,0.781654,0.365216,0.285473
11,77,9,8,2,1,1,C,1,S,1,S,13,0.754097,0.445336,0.335827
11,78,9,8,9,8,1,C,1,S,1,S,15,0.773933,0.455722,0.352698
11,79,1,8,9,8,1,I,7,L,1,S,10,0.356394,0.812222,0.289471
11,80,9,1,9,2,1,C,8,L,7,L,8,0.83247,0.23533,0.195905
11,81,1,2,9,8,1,I,1,S,1,S,17,0.554413,0.774421,0.429349
11,82,1,8,2,9,1,C,7,L,7,L,8,0.237187,0.829267,0.196691
11,83,1,8,1,2,1,C,7,L,1,S,9,0.279001,0.832051,0.232143
11,84,8,9,9,2,1,I,1,S,7,L,18,0.639078,0.751003,0.47995
11,85,2,9,1,8,1,C,7,L,7,L,8,0.228801,0.843532,0.193001
11,86,9,1,2,9,1,I,8,L,7,L,11,0.759883,0.502746,0.382028
11,87,8,2,9,2,1,C,6,S,7,L,8,0.780042,0.271018,0.211406
11,88,1,9,9,8,1,I,8,L,1,S,9,0.346583,0.772059,0.267583
11,89,2,9,2,1,1,I,7,L,1,S,10,0.37175,0.809062,0.300769
11,90,2,9,2,8,1,C,7,L,6,S,8,0.235625,0.833631,0.196425
11,91,8,1,9,2,1,C,7,L,7,L,8,0.823214,0.241754,0.199015
11,92,8,2,2,9,1,I,6,S,7,L,13,0.767435,0.556016,0.426706
11,93,1,2,2,9,1,C,1,S,7,L,10,0.309341,0.832037,0.257384
11,94,9,2,1,8,1,I,7,L,7,L,12,0.75517,0.534706,0.403794
11,95,2,1,8,1,1,C,1,S,7,L,9,0.775932,0.32408,0.251464
11,96,8,9,8,2,1,I,1,S,6,S,19,0.633828,0.768223,0.486921
11,97,8,1,8,2,1,C,7,L,6,S,8,0.832062,0.235117,0.195632
11,98,9,2,2,9,1,I,7,L,7,L,13,0.781244,0.545505,0.426173
11,99,1,9,2,8,1,C,8,L,6,S,8,0.233304,0.834533,0.194699
11,100,1,9,1,2,1,C,8,L,1,S,8,0.292411,0.756611,0.221241
11,101,8,1,2,8,1,I,7,L,6,S,11,0.76413,0.489878,0.374331
11,102,8,9,1,8,1,C,1,S,7,L,9,0.320393,0.773883,0.247947
11,103,1,2,2,8,1,C,1,S,6,S,10,0.323302,0.812037,0.262533
11,104,1,8,9,2,1,I,7,L,7,L,11,0.501493,0.7541,0.378176
11,105,1,8,9,1,1,I,7,L,8,L,12,0.548342,0.760091,0.41679
11,106,8,1,1,9,1,I,7,L,8,L,12,0.778376,0.526573,0.409872
11,107,2,1,2,9,0,I,1,S,7,L,13,0.507801,0.75107,0.381394
11,108,9,2,2,1,1,C,7,L,1,S,9,0.817721,0.285564,0.233512
11,109,9,1,2,1,1,C,8,L,1,S,8,0.759551,0.288001,0.218752
11,110,9,1,1,9,1,I,8,L,8,L,11,0.752618,0.512942,0.386049
11,111,8,1,1,2,1,I,7,L,1,S,10,0.807283,0.362718,0.292816
11,112,2,1,1,8,1,I,1,S,7,L,22,0.762527,0.650318,0.495885
11,113,2,8,2,8,1,C,6,S,6,S,8,0.251358,0.811251,0.203914
11,114,1,2,8,1,0,I,1,S,7,L,12,0.755893,0.479259,0.362269
11,115,1,8,1,9,1,C,7,L,8,L,8,0.231253,0.838029,0.193797
11,116,8,9,9,8,1,I,1,S,1,S,14,0.502079,0.768105,0.385649
11,117,1,9,9,1,1,I,8,L,8,L,12,0.530589,0.78368,0.415812
11,118,2,1,8,2,1,C,1,S,6,S,10,0.819349,0.322787,0.264475
11,119,8,2,1,8,1,I,6,S,7,L,13,0.773194,0.548288,0.423933
11,120,1,8,2,8,1,C,7,L,6,S,8,0.24862,0.812602,0.202029
11,121,1,9,1,9,1,C,8,L,8,L,8,0.215936,0.85996,0.185696
11,122,9,1,1,8,1,I,8,L,7,L,11,0.765652,0.494642,0.378723
11,123,9,1,2,8,1,I,8,L,6,S,11,0.774413,0.482355,0.373542
11,124,2,8,1,8,1,C,6,S,7,L,8,0.244534,0.821152,0.200799
11,125,8,2,9,8,1,C,6,S,1,S,9,0.781415,0.316327,0.247183
11,126,9,2,8,2,1,C,7,L,6,S,8,0.800557,0.256097,0.20502
11,127,2,8,8,9,1,C,6,S,1,S,9,0.350568,0.760079,0.26646
11,128,2,9,9,1,1,I,7,L,8,L,12,0.532403,0.7833,0.417031
11,129,2,8,2,9,1,C,6,S,7,L,8,0.239924,0.827916,0.198637
11,130,8,2,2,1,1,C,6,S,1,S,9,0.804491,0.294928,0.237267
11,131,9,1,9,8,1,C,8,L,1,S,9,0.839504,0.276488,0.232113
11,132,8,1,2,1,1,C,7,L,1,S,8,0.750295,0.294425,0.220906
11,133,8,2,8,1,1,C,6,S,7,L,8,0.822377,0.241098,0.198273
11,134,9,2,1,9,1,I,7,L,8,L,13,0.774042,0.555164,0.42972
11,135,8,9,8,9,1,C,1,S,1,S,13,0.458757,0.767824,0.352245
11,136,1,2,1,9,1,C,1,S,8,L,9,0.332112,0.758593,0.251938
11,137,2,8,9,1,1,I,6,S,8,L,12,0.550663,0.759155,0.418039
11,138,9,2,8,9,1,I,7,L,1,S,9,0.779183,0.32004,0.249369
11,139,2,1,9,8,1,C,1,S,1,S,12,0.807887,0.37278,0.301165
11,140,1,2,8,2,1,I,1,S,6,S,21,0.653428,0.753137,0.492121
11,141,8,1,8,9,1,I,7,L,1,S,9,0.814034,0.296587,0.241431
11,142,1,2,1,2,1,C,1,S,1,S,11,0.381066,0.764525,0.291335
11,143,9,8,8,2,1,C,1,S,6,S,11,0.796455,0.379981,0.302638
11,144,9,2,1,2,1,I,7,L,1,S,10,0.77073,0.387798,0.298888
12,1,9,2,2,8,1,I,7,L,6,S,12,0.78538,0.486959,0.382448
12,2,9,1,8,1,1,C,8,L,7,L,8,0.843585,0.225667,0.190369
12,3,9,8,1,9,0,I,1,S,8,L,11,0.401954,0.787212,0.316423
12,4,9,1,1,9,1,I,8,L,8,L,12,0.7699,0.53943,0.415307
12,5,2,8,2,9,1,C,6,S,7,L,8,0.273153,0.783203,0.213934
12,6,8,2,1,8,1,I,6,S,7,L,13,0.778824,0.553069,0.430743
12,7,2,1,9,2,1,C,1,S,7,L,9,0.76057,0.334384,0.254322
12,8,1,8,8,9,1,C,7,L,1,S,9,0.298301,0.820749,0.24483
12,9,9,8,2,9,0,I,1,S,7,L,12,0.440937,0.767245,0.338307
12,10,1,9,8,2,1,I,8,L,6,S,11,0.490943,0.786982,0.386363
12,11,9,1,2,9,1,I,8,L,7,L,11,0.772615,0.479625,0.370566
12,12,1,2,9,2,1,I,1,S,7,L,14,0.591183,0.757879,0.448046
12,13,1,9,1,2,1,C,8,L,1,S,8,0.292801,0.767009,0.224581
12,14,2,1,9,8,1,C,1,S,1,S,11,0.759183,0.391389,0.297136
12,15,9,2,8,9,1,I,7,L,1,S,10,0.805006,0.34474,0.277518
12,16,8,2,2,9,1,I,6,S,7,L,12,0.767982,0.520314,0.399592
12,17,2,9,9,8,1,I,7,L,1,S,10,0.359241,0.813729,0.292325
12,18,1,2,1,8,1,C,1,S,7,L,8,0.287332,0.763377,0.219343
12,19,8,2,1,9,1,I,6,S,8,L,13,0.761797,0.574892,0.437951
12,20,1,9,1,9,1,C,8,L,8,L,7,0.232351,0.766744,0.178154
12,21,1,2,2,9,1,C,1,S,7,L,9,0.267762,0.846728,0.226722
12,22,8,2,2,1,1,C,6,S,1,S,9,0.827726,0.2824,0.23375
12,23,8,9,9,1,0,I,1,S,8,L,11,0.798485,0.383898,0.306537
12,24,2,9,1,8,1,C,7,L,7,L,8,0.241919,0.8297,0.20072
12,25,8,2,1,2,1,I,6,S,1,S,10,0.791281,0.368348,0.291467
12,26,8,1,9,1,1,C,7,L,8,L,8,0.849311,0.223694,0.189986
12,27,2,1,9,1,1,C,1,S,8,L,9,0.759153,0.333893,0.253476
12,28,8,1,2,9,1,I,7,L,7,L,11,0.783499,0.472666,0.370333
12,29,2,9,9,1,1,I,7,L,8,L,12,0.528269,0.777381,0.410666
12,30,8,9,8,9,1,C,1,S,1,S,18,0.443175,0.790397,0.350284
12,31,1,2,1,9,1,C,1,S,8,L,8,0.27253,0.784059,0.21368
12,32,2,9,1,2,1,C,7,L,1,S,9,0.301687,0.812293,0.245058
12,33,2,1,1,2,1,I,1,S,1,S,15,0.767082,0.508638,0.390167
12,34,1,9,2,9,1,C,8,L,7,L,8,0.225128,0.851415,0.191678
12,35,9,8,9,8,1,C,1,S,1,S,13,0.799148,0.400279,0.319882
12,36,2,1,8,9,1,I,1,S,1,S,13,0.769957,0.430848,0.331735
12,37,9,8,1,2,1,I,1,S,1,S,21,0.751648,0.615204,0.462417
12,38,8,2,9,8,1,C,6,S,1,S,9,0.790497,0.315597,0.249479
12,39,1,9,8,1,1,I,8,L,7,L,11,0.489169,0.786891,0.384922
12,40,8,9,2,8,1,C,1,S,6,S,12,0.395199,0.799865,0.316106
12,41,2,9,8,9,1,C,7,L,1,S,9,0.322274,0.788519,0.254119
12,42,1,8,9,2,1,I,7,L,7,L,11,0.498921,0.773714,0.386022
12,43,2,8,8,9,1,C,6,S,1,S,9,0.339095,0.764185,0.259131
12,44,8,9,2,9,1,C,1,S,7,L,11,0.383602,0.7898,0.302969
12,45,9,1,9,8,1,C,8,L,1,S,9,0.830819,0.283361,0.235422
12,46,8,1,1,2,1,I,7,L,1,S,9,0.776181,0.340019,0.263916
12,47,1,8,2,9,1,C,7,L,7,L,8,0.235929,0.835143,0.197034
12,48,2,9,1,9,1,C,7,L,8,L,8,0.227117,0.850382,0.193136
12,49,9,2,1,9,1,I,7,L,8,L,14,0.775709,0.583787,0.452849
12,50,2,8,8,1,1,I,6,S,7,L,13,0.552912,0.780592,0.431599
12,51,2,1,8,2,1,C,1,S,6,S,9,0.764858,0.330464,0.252758
12,52,9,8,8,1,1,C,1,S,7,L,10,0.792743,0.34913,0.27677
12,53,9,2,9,1,1,C,7,L,8,L,8,0.790808,0.266483,0.210737
12,54,8,9,1,8,1,C,1,S,7,L,10,0.379975,0.762497,0.28973
12,55,1,8,8,2,1,I,7,L,6,S,11,0.503256,0.769689,0.387351
12,56,1,8,1,9,1,C,7,L,8,L,7,0.241874,0.752235,0.181946
12,57,9,1,2,1,1,C,8,L,1,S,8,0.762229,0.2849,0.217159
12,58,1,2,9,1,1,I,1,S,8,L,14,0.589134,0.75818,0.44667
12,59,8,9,8,1,0,I,1,S,7,L,10,0.752303,0.390132,0.293497
12,60,9,2,8,2,1,C,7,L,6,S,8,0.795983,0.263462,0.209711
12,61,2,1,2,9,1,I,1,S,7,L,20,0.756418,0.644172,0.487263
12,62,9,8,2,1,1,C,1,S,1,S,12,0.807346,0.378155,0.305302
12,63,2,8,2,8,1,C,6,S,6,S,8,0.295846,0.753131,0.222811
12,64,8,1,2,8,1,I,7,L,6,S,10,0.770567,0.422364,0.32546
12,65,9,1,8,2,1,C,8,L,6,S,8,0.844868,0.226264,0.191163
12,66,1,2,8,1,1,I,1,S,7,L,14,0.592663,0.754659,0.447258
12,67,2,9,2,8,1,C,7,L,6,S,8,0.280778,0.775097,0.217631
12,68,8,9,2,1,0,I,1,S,1,S,13,0.76673,0.44372,0.340214
12,69,9,2,1,2,1,I,7,L,1,S,10,0.776083,0.378166,0.293488
12,70,8,1,1,8,1,I,7,L,7,L,11,0.762382,0.503219,0.383645
12,71,9,2,9,2,1,C,7,L,7,L,8,0.792043,0.267134,0.211581
12,72,1,2,8,2,1,I,1,S,6,S,14,0.594754,0.754313,0.448631
12,73,8,1,9,8,1,C,7,L,1,S,9,0.841254,0.277103,0.233114
12,74,8,2,8,9,1,I,6,S,1,S,10,0.820204,0.334923,0.274705
12,75,1,9,9,1,1,I,8,L,8,L,11,0.484881,0.790861,0.383474
12,76,8,2,9,2,1,C,6,S,7,L,8,0.80438,0.259457,0.208702
12,77,1,2,9,8,1,I,1,S,1,S,11,0.410601,0.785589,0.322563
12,78,9,2,9,8,1,C,7,L,1,S,9,0.776385,0.324513,0.251947
12,79,9,2,2,9,1,I,7,L,7,L,12,0.752338,0.530964,0.399464
12,80,1,9,2,8,1,C,8,L,6,S,8,0.247822,0.821342,0.203546
12,81,9,8,8,2,1,C,1,S,6,S,10,0.794374,0.349393,0.277549
12,82,1,2,8,9,1,C,1,S,1,S,10,0.353373,0.787165,0.278163
12,83,8,9,1,2,1,C,1,S,1,S,14,0.454764,0.752659,0.342282
12,84,9,2,1,8,1,I,7,L,7,L,13,0.763536,0.563738,0.430434
12,85,8,1,8,9,1,I,7,L,1,S,9,0.796768,0.316244,0.251973
12,86,2,8,2,1,1,I,6,S,1,S,11,0.429665,0.79478,0.341489
12,87,2,1,1,9,0,I,1,S,8,L,14,0.552667,0.750821,0.414954
12,88,8,2,8,2,1,C,6,S,6,S,8,0.80832,0.255785,0.206756
12,89,2,1,8,1,1,C,1,S,7,L,9,0.763391,0.330028,0.251941
12,90,8,1,1,9,1,I,7,L,8,L,12,0.780621,0.532382,0.415588
12,91,9,8,8,9,1,I,1,S,1,S,17,0.783286,0.468093,0.366651
12,92,8,9,1,9,1,C,1,S,8,L,10,0.362879,0.785855,0.28517
12,93,2,9,9,2,1,I,7,L,7,L,12,0.530119,0.777363,0.412095
12,94,1,2,1,2,1,C,1,S,1,S,10,0.324451,0.82059,0.266241
12,95,8,1,8,2,1,C,7,L,6,S,8,0.854487,0.220673,0.188562
12,96,1,8,1,2,1,C,7,L,1,S,8,0.303601,0.750737,0.227924
12,97,8,1,9,2,1,C,7,L,7,L,8,0.850547,0.224345,0.190816
12,98,1,8,2,8,1,C,7,L,6,S,8,0.258622,0.805071,0.208209
12,99,9,1,8,9,1,I,8,L,1,S,9,0.786334,0.322503,0.253595
12,100,8,9,9,8,0,I,1,S,1,S,15,0.75114,0.484899,0.364227
12,101,1,9,9,2,1,I,8,L,7,L,11,0.486607,0.791007,0.384909
12,102,2,9,2,9,1,C,7,L,7,L,8,0.258085,0.80517,0.207802
12,103,2,8,9,2,1,I,6,S,7,L,12,0.548739,0.752063,0.412686
12,104,9,8,1,8,0,I,1,S,7,L,11,0.419402,0.763867,0.320368
12,105,8,1,8,1,1,C,7,L,7,L,8,0.853204,0.220076,0.18777
12,106,2,1,2,8,1,I,1,S,6,S,19,0.757356,0.628516,0.47601
12,107,9,2,8,1,1,C,7,L,7,L,8,0.7947,0.262865,0.208899
12,108,1,8,2,1,1,I,7,L,1,S,10,0.382966,0.805637,0.308531
12,109,8,9,8,2,0,I,1,S,6,S,10,0.753935,0.390394,0.294332
12,110,9,1,9,1,1,C,8,L,8,L,8,0.839692,0.229285,0.192529
12,111,1,9,1,8,1,C,8,L,7,L,8,0.208962,0.875946,0.18304
12,112,8,2,8,1,1,C,6,S,7,L,8,0.807037,0.255188,0.205946
12,113,2,1,1,8,1,I,1,S,7,L,21,0.763902,0.64892,0.495711
12,114,9,2,2,1,1,C,7,L,1,S,9,0.813614,0.291316,0.237019
12,115,2,9,2,1,1,I,7,L,1,S,10,0.407932,0.772607,0.315171
12,116,2,8,1,9,1,C,6,S,8,L,8,0.242185,0.828415,0.20063
12,117,9,1,9,2,1,C,8,L,7,L,8,0.840928,0.229936,0.193359
12,118,9,8,2,8,0,I,1,S,6,S,14,0.485153,0.767798,0.3725
12,119,9,1,2,8,1,I,8,L,6,S,10,0.759745,0.429072,0.325985
12,120,2,9,8,2,1,I,7,L,6,S,12,0.534264,0.773434,0.413218
12,121,1,9,8,9,1,C,8,L,1,S,8,0.30697,0.750453,0.230367
12,122,2,8,1,8,1,C,6,S,7,L,8,0.256987,0.807734,0.207577
12,123,9,1,1,8,1,I,8,L,7,L,11,0.751498,0.510179,0.383398
12,124,2,8,1,2,1,C,6,S,1,S,9,0.318508,0.78796,0.250971
12,125,2,1,2,1,1,C,1,S,1,S,11,0.81888,0.342909,0.280801
12,126,1,8,9,8,1,I,7,L,1,S,9,0.342787,0.781607,0.267925
12,127,9,8,9,2,1,C,1,S,7,L,10,0.789972,0.353423,0.279194
12,128,9,8,9,1,1,C,1,S,8,L,10,0.78839,0.353105,0.278384
12,129,1,8,1,8,1,C,7,L,7,L,8,0.219762,0.859674,0.188924
12,130,9,1,1,2,1,I,8,L,1,S,9,0.765746,0.346278,0.265161
12,131,2,9,8,1,1,I,7,L,7,L,12,0.532368,0.773503,0.411788
12,132,1,2,2,8,1,C,1,S,6,S,9,0.294545,0.810423,0.238706
12,133,8,9,9,2,0,I,1,S,7,L,11,0.80021,0.384044,0.307316
12,134,8,1,2,1,1,C,7,L,1,S,8,0.771848,0.279309,0.215584
12,135,2,8,9,1,1,I,6,S,8,L,12,0.546889,0.75208,0.411305
12,136,1,2,2,1,1,I,1,S,1,S,12,0.474518,0.777308,0.368847
12,137,8,2,9,1,1,C,6,S,8,L,8,0.803145,0.258807,0.207859
12,138,1,8,8,1,1,I,7,L,7,L,11,0.501482,0.769598,0.38594
12,139,1,9,9,8,1,I,8,L,1,S,9,0.331125,0.798813,0.264507
12,140,1,9,2,1,1,I,8,L,1,S,9,0.368354,0.765616,0.282018
12,141,1,8,9,1,1,I,7,L,8,L,11,0.497195,0.773568,0.384614
12,142,8,2,2,8,1,I,6,S,6,S,11,0.7626,0.470658,0.358924
12,143,2,8,8,2,1,I,6,S,6,S,13,0.554913,0.780377,0.433041
12,144,2,8,9,8,1,I,6,S,1,S,10,0.377194,0.788208,0.297307
13,1,2,1,9,1,1,C,1,S,8,L,9,0.754191,0.340863,0.257076
13,2,8,2,1,8,1,I,6,S,7,L,16,0.771271,0.608407,0.469246
13,3,2,1,8,2,1,C,1,S,6,S,10,0.778794,0.353506,0.275309
13,4,9,8,8,2,1,C,1,S,6,S,9,0.783553,0.312149,0.244585
13,5,2,1,9,8,1,C,1,S,1,S,18,0.763349,0.573893,0.43808
13,6,2,8,1,8,1,C,6,S,7,L,8,0.27473,0.774232,0.212705
13,7,1,8,8,1,1,I,7,L,7,L,13,0.559752,0.773088,0.432737
13,8,8,1,1,9,1,I,7,L,8,L,13,0.769551,0.547473,0.421309
13,9,2,8,9,2,1,I,6,S,7,L,13,0.541308,0.770197,0.416914
13,10,2,1,8,1,1,C,1,S,7,L,9,0.755547,0.338821,0.255995
13,11,9,2,8,9,1,I,7,L,1,S,9,0.791506,0.315074,0.249383
13,12,8,2,9,8,1,C,6,S,1,S,11,0.751111,0.430837,0.323607
13,13,2,9,8,9,1,C,7,L,1,S,10,0.382131,0.767775,0.29339
13,14,8,2,2,1,1,C,6,S,1,S,9,0.77308,0.319,0.246612
13,15,9,8,1,2,1,I,1,S,1,S,13,0.776755,0.476521,0.37014
13,16,1,9,1,8,1,C,8,L,7,L,8,0.245507,0.818882,0.201041
13,17,9,1,1,8,1,I,8,L,7,L,11,0.759328,0.505592,0.38391
13,18,8,9,8,9,1,C,1,S,1,S,19,0.584244,0.754615,0.440879
13,19,8,9,1,9,1,C,1,S,8,L,10,0.365268,0.772316,0.282102
13,20,1,2,9,8,1,I,1,S,1,S,10,0.362793,0.763153,0.276867
13,21,9,1,9,1,1,C,8,L,8,L,8,0.864293,0.214497,0.185388
13,22,9,8,9,8,1,C,1,S,1,S,12,0.761815,0.449045,0.342089
13,23,1,8,9,2,1,I,7,L,7,L,11,0.492897,0.75017,0.369756
13,24,2,1,2,1,1,C,1,S,1,S,11,0.811818,0.349835,0.284003
13,25,9,2,9,2,1,C,7,L,7,L,8,0.785069,0.272732,0.214113
13,26,2,9,9,2,1,I,7,L,7,L,13,0.538573,0.778412,0.419232
13,27,8,9,9,2,0,I,1,S,7,L,12,0.750083,0.462852,0.347177
13,28,2,8,2,9,1,C,6,S,7,L,9,0.269094,0.840741,0.226239
13,29,8,9,9,8,1,I,1,S,1,S,13,0.397647,0.80361,0.319553
13,30,2,9,2,9,1,C,7,L,7,L,9,0.268552,0.846945,0.227449
13,31,2,8,1,9,1,C,6,S,8,L,8,0.289136,0.754408,0.218127
13,32,2,9,9,8,1,I,7,L,1,S,9,0.338487,0.758486,0.256737
13,33,8,2,1,2,1,I,6,S,1,S,12,0.775693,0.451907,0.350541
13,34,1,9,9,2,1,I,8,L,7,L,11,0.491195,0.757141,0.371904
13,35,8,9,1,8,1,C,1,S,7,L,10,0.34803,0.795868,0.276986
13,36,1,8,8,2,1,I,7,L,6,S,12,0.503357,0.782959,0.394108
13,37,2,8,2,1,1,I,6,S,1,S,12,0.496,0.76455,0.379217
13,38,8,2,9,1,1,C,6,S,8,L,8,0.752942,0.295001,0.222118
13,39,2,9,1,9,1,C,7,L,8,L,8,0.289247,0.759681,0.219735
13,40,1,9,8,9,1,C,8,L,1,S,10,0.34657,0.815627,0.282672
13,41,9,1,8,9,1,I,8,L,1,S,9,0.82597,0.28978,0.23935
13,42,1,2,1,8,1,C,1,S,7,L,9,0.284046,0.820902,0.233174
13,43,9,2,2,1,1,C,7,L,1,S,8,0.758056,0.288775,0.218908
13,44,8,2,8,1,1,C,6,S,7,L,8,0.754251,0.29298,0.220981
13,45,9,8,1,8,1,I,1,S,7,L,17,0.762388,0.624133,0.475831
13,46,2,8,9,1,1,I,6,S,8,L,14,0.594262,0.756941,0.449821
13,47,1,8,2,1,1,I,7,L,1,S,11,0.452797,0.775536,0.351161
13,48,8,9,8,2,0,I,1,S,6,S,12,0.753465,0.459133,0.34594
13,49,8,9,2,9,1,C,1,S,7,L,11,0.358063,0.814266,0.291558
13,50,9,8,8,1,1,C,1,S,7,L,9,0.835214,0.274412,0.229193
13,51,8,1,8,9,1,I,7,L,1,S,9,0.753537,0.340062,0.256249
13,52,8,2,2,8,1,I,6,S,6,S,15,0.759623,0.597352,0.453762
13,53,9,8,1,9,1,I,1,S,8,L,16,0.752917,0.614338,0.462546
13,54,8,9,8,1,0,I,1,S,7,L,11,0.777481,0.413595,0.321562
13,55,1,9,2,9,1,C,8,L,7,L,8,0.275002,0.778381,0.214057
13,56,9,8,2,1,1,C,1,S,1,S,10,0.842015,0.298893,0.251672
13,57,1,8,1,2,1,C,7,L,1,S,9,0.294275,0.809487,0.238212
13,58,8,1,8,1,1,C,7,L,7,L,8,0.800567,0.257406,0.20607
13,59,1,9,8,1,1,I,8,L,7,L,13,0.557302,0.780498,0.434973
13,60,1,2,8,2,1,I,1,S,6,S,16,0.600542,0.76683,0.460514
13,61,9,2,9,8,1,C,7,L,1,S,10,0.802736,0.362125,0.290691
13,62,1,2,2,9,1,C,1,S,7,L,9,0.31762,0.77442,0.245971
13,63,1,8,1,8,1,C,7,L,7,L,8,0.245613,0.813575,0.199825
13,64,9,1,9,8,1,C,8,L,1,S,9,0.772115,0.34561,0.26685
13,65,9,8,2,9,1,I,1,S,7,L,16,0.771425,0.591467,0.456272
13,66,8,1,9,1,1,C,7,L,8,L,8,0.799258,0.259426,0.207348
13,67,9,2,9,1,1,C,7,L,8,L,8,0.832682,0.237618,0.19786
13,68,2,8,1,2,1,C,6,S,1,S,9,0.327209,0.764522,0.250158
13,69,2,1,1,9,0,I,1,S,8,L,14,0.522089,0.755574,0.394477
13,70,9,8,9,2,1,C,1,S,7,L,9,0.780369,0.315739,0.246393
13,71,8,2,2,9,1,I,6,S,7,L,14,0.753874,0.572703,0.431746
13,72,2,9,1,2,1,C,7,L,1,S,9,0.326667,0.770726,0.251771
13,73,1,2,8,9,1,C,1,S,1,S,12,0.42086,0.785898,0.330753
13,74,2,1,9,2,1,C,1,S,7,L,10,0.775354,0.35726,0.277003
13,75,9,2,1,2,1,I,7,L,1,S,10,0.787472,0.379001,0.298453
13,76,2,1,8,9,1,I,1,S,1,S,12,0.751416,0.416737,0.313143
13,77,2,8,8,9,1,C,6,S,1,S,10,0.383323,0.760797,0.291631
13,78,8,1,8,2,1,C,7,L,6,S,8,0.754352,0.291255,0.219709
13,79,9,2,8,1,1,C,7,L,7,L,8,0.833992,0.235597,0.196486
13,80,1,9,2,1,1,I,8,L,1,S,11,0.451095,0.782508,0.352986
13,81,8,2,9,2,1,C,6,S,7,L,9,0.805908,0.299141,0.24108
13,82,2,9,8,1,1,I,7,L,7,L,14,0.591872,0.763815,0.452081
13,83,1,8,1,9,1,C,7,L,8,L,8,0.260019,0.79375,0.20639
13,84,9,1,8,2,1,C,8,L,6,S,8,0.819387,0.246327,0.201837
13,85,1,8,8,9,1,C,7,L,1,S,10,0.34779,0.80905,0.281379
13,86,2,8,8,1,1,I,6,S,7,L,14,0.594948,0.755456,0.449457
13,87,9,8,2,8,1,I,1,S,6,S,16,0.750937,0.616454,0.462918
13,88,8,2,8,9,1,I,6,S,1,S,10,0.774971,0.35751,0.27706
13,89,1,2,2,1,1,I,1,S,1,S,15,0.564264,0.77138,0.435262
13,90,9,8,9,1,1,C,1,S,8,L,9,0.833858,0.276455,0.230524
13,91,8,1,2,1,1,C,7,L,1,S,9,0.829018,0.277125,0.229742
13,92,9,1,2,1,1,C,8,L,1,S,8,0.789666,0.265655,0.209779
13,93,9,1,1,2,1,I,8,L,1,S,9,0.760295,0.357849,0.272071
13,94,1,2,1,9,1,C,1,S,8,L,9,0.300166,0.798646,0.239726
13,95,8,1,2,8,1,I,7,L,6,S,13,0.767232,0.550131,0.422078
