ANN,trial,N1,N2,P1,P2,Succ.,Cong,Ndist,Ndist,Pdist,Pdist,rt,a1,a2,x_acc
1,1,2,1,1,2,1,I,1,S,1,S,13,0.776615,0.492696,0.382635
1,2,8,1,8,9,1,I,7,L,1,S,10,0.763236,0.392408,0.2995
1,3,2,9,8,2,1,I,7,L,6,S,14,0.542595,0.759901,0.412318
1,4,2,9,2,9,1,C,7,L,7,L,10,0.311815,0.833424,0.259874
1,5,2,9,9,2,1,I,7,L,7,L,16,0.617994,0.750464,0.463783
1,6,8,2,1,2,1,I,6,S,1,S,12,0.777789,0.463556,0.360549
1,7,9,1,2,8,1,I,8,L,6,S,10,0.753999,0.432584,0.326168
1,8,2,8,9,2,1,I,6,S,7,L,14,0.57652,0.759657,0.437957
1,9,2,1,9,1,1,C,1,S,8,L,9,0.817497,0.291585,0.23837
1,10,2,1,2,9,1,I,1,S,7,L,14,0.755099,0.563522,0.425515
1,11,2,8,2,9,1,C,6,S,7,L,9,0.311139,0.787988,0.245173
1,12,1,8,8,9,1,C,7,L,1,S,9,0.329149,0.771888,0.254066
1,13,1,8,1,8,1,C,7,L,7,L,8,0.290708,0.755992,0.219773
1,14,8,9,8,2,0,I,1,S,6,S,13,0.755338,0.456288,0.344652
1,15,8,1,2,1,1,C,7,L,1,S,9,0.771083,0.327224,0.252317
1,16,2,8,9,8,1,I,6,S,1,S,12,0.462626,0.774754,0.358421
1,17,2,1,1,9,1,I,1,S,8,L,15,0.752441,0.600365,0.45174
1,18,2,9,9,1,1,I,7,L,8,L,17,0.627287,0.760206,0.476867
1,19,2,1,8,2,1,C,1,S,6,S,10,0.821762,0.322798,0.265263
1,20,9,1,1,8,1,I,8,L,7,L,11,0.768359,0.481857,0.37024
1,21,1,8,8,2,1,I,7,L,6,S,11,0.440174,0.779173,0.342972
1,22,8,9,1,8,1,C,1,S,7,L,11,0.387031,0.781734,0.302555
1,23,1,2,2,8,1,C,1,S,6,S,12,0.38862,0.806515,0.313428
1,24,1,8,2,9,1,C,7,L,7,L,9,0.276101,0.837634,0.231272
1,25,2,9,2,8,1,C,7,L,6,S,10,0.3154,0.82623,0.260593
1,26,9,8,2,8,0,I,1,S,6,S,15,0.528321,0.75147,0.397018
1,27,8,9,9,1,0,I,1,S,8,L,11,0.78432,0.394452,0.309376
1,28,9,1,8,9,1,I,8,L,1,S,9,0.750334,0.365152,0.273986
1,29,1,9,1,2,1,C,8,L,1,S,9,0.336717,0.757845,0.255179
1,30,8,1,9,1,1,C,7,L,8,L,8,0.776037,0.277975,0.215719
1,31,2,9,1,2,1,C,7,L,1,S,10,0.352193,0.780036,0.274724
1,32,8,2,8,2,1,C,6,S,6,S,9,0.758803,0.336961,0.255687
1,33,1,2,1,2,1,C,1,S,1,S,13,0.406441,0.802885,0.326325
1,34,9,8,2,1,1,C,1,S,1,S,12,0.750727,0.422258,0.317
1,35,1,8,1,9,1,C,7,L,8,L,8,0.288978,0.760541,0.21978
1,36,2,8,1,9,1,C,6,S,8,L,9,0.285733,0.822578,0.235038
1,37,1,2,9,1,0,I,1,S,8,L,11,0.777883,0.405439,0.315384
1,38,2,8,2,1,1,I,6,S,1,S,11,0.429666,0.758116,0.325737
1,39,8,2,2,1,1,C,6,S,1,S,10,0.812046,0.329834,0.267841
1,40,2,1,8,1,1,C,1,S,7,L,9,0.765211,0.329718,0.252304
1,41,8,9,2,1,0,I,1,S,1,S,16,0.768413,0.483402,0.371452
1,42,9,8,9,2,1,C,1,S,7,L,10,0.759781,0.375521,0.285314
1,43,8,2,2,9,1,I,6,S,7,L,13,0.76186,0.534405,0.407142
1,44,9,1,8,2,1,C,8,L,6,S,9,0.852851,0.270171,0.230416
1,45,8,1,2,8,1,I,7,L,6,S,12,0.785432,0.481851,0.378461
1,46,1,9,8,1,1,I,8,L,7,L,13,0.528528,0.773321,0.408721
1,47,9,1,2,1,1,C,8,L,1,S,9,0.820505,0.293679,0.240965
1,48,8,1,9,2,1,C,7,L,7,L,8,0.757062,0.292748,0.221629
1,49,1,8,1,2,1,C,7,L,1,S,9,0.309772,0.794324,0.246059
1,50,2,9,8,9,1,C,7,L,1,S,11,0.342123,0.83012,0.284003
1,51,1,8,2,1,1,I,7,L,1,S,10,0.394377,0.761855,0.300458
1,52,1,8,8,1,1,I,7,L,7,L,12,0.492718,0.781788,0.385201
1,53,9,2,2,9,1,I,7,L,7,L,11,0.760859,0.473106,0.359967
1,54,9,1,9,1,1,C,8,L,8,L,8,0.819883,0.248407,0.203665
1,55,9,1,2,9,1,I,8,L,7,L,10,0.750414,0.439778,0.330015
1,56,9,8,9,1,1,C,1,S,8,L,10,0.783056,0.35765,0.28006
1,57,1,9,2,9,1,C,8,L,7,L,9,0.303046,0.801155,0.242787
1,58,9,8,8,9,1,I,1,S,1,S,21,0.763497,0.614275,0.468997
1,59,9,8,9,8,1,C,1,S,1,S,12,0.787854,0.393104,0.309709
1,60,2,8,8,9,1,C,6,S,1,S,10,0.334913,0.806092,0.269971
1,61,2,8,8,2,1,I,6,S,6,S,12,0.486227,0.760975,0.370006
1,62,8,9,1,9,1,C,1,S,8,L,11,0.383928,0.788032,0.302548
1,63,8,1,1,2,1,I,7,L,1,S,11,0.788131,0.422879,0.333284
1,64,9,2,1,9,1,I,7,L,8,L,12,0.767943,0.520819,0.399959
1,65,1,8,9,1,1,I,7,L,8,L,13,0.555892,0.769017,0.42749
1,66,8,2,1,9,1,I,6,S,8,L,14,0.760533,0.575913,0.438001
1,67,8,2,8,1,1,C,6,S,7,L,9,0.793009,0.309557,0.245481
1,68,8,9,8,9,1,C,1,S,1,S,14,0.434119,0.779104,0.338224
1,69,9,2,8,9,1,I,7,L,1,S,10,0.781213,0.381852,0.298308
1,70,2,8,1,2,1,C,6,S,1,S,10,0.309918,0.836337,0.259196
1,71,2,9,2,1,1,I,7,L,1,S,13,0.473566,0.7762,0.367582
1,72,2,8,2,8,1,C,6,S,6,S,9,0.313987,0.781868,0.245496
1,73,1,2,2,9,1,C,1,S,7,L,11,0.40801,0.757532,0.309081
1,74,8,2,9,2,1,C,6,S,7,L,9,0.823584,0.288062,0.237243
1,75,1,9,8,2,1,I,8,L,6,S,12,0.475277,0.777643,0.369596
1,76,2,1,2,1,1,C,1,S,1,S,10,0.77948,0.3532,0.275313
1,77,1,2,9,2,0,I,1,S,7,L,11,0.754089,0.423946,0.319693
1,78,8,1,8,1,1,C,7,L,7,L,9,0.837636,0.276311,0.231448
1,79,2,9,9,8,1,I,7,L,1,S,14,0.516276,0.776242,0.400755
1,80,9,2,8,2,1,C,7,L,6,S,9,0.820005,0.294327,0.24135
1,81,1,9,2,8,1,C,8,L,6,S,9,0.305894,0.795035,0.243197
1,82,1,8,9,2,1,I,7,L,7,L,12,0.529844,0.754857,0.399956
1,83,9,2,1,2,1,I,7,L,1,S,10,0.756218,0.412097,0.311635
1,84,1,9,2,1,1,I,8,L,1,S,11,0.419323,0.774272,0.32467
1,85,1,2,2,1,1,I,1,S,1,S,26,0.64405,0.763908,0.491996
1,86,8,1,9,8,1,C,7,L,1,S,9,0.789625,0.310736,0.245365
1,87,1,9,9,2,1,I,8,L,7,L,14,0.565255,0.775946,0.438607
1,88,2,9,1,9,1,C,7,L,8,L,9,0.32203,0.775286,0.249665
1,89,8,9,2,8,1,C,1,S,6,S,12,0.398217,0.791938,0.315363
1,90,8,1,1,9,1,I,7,L,8,L,13,0.781954,0.535863,0.41902
1,91,1,9,1,9,1,C,8,L,8,L,9,0.277641,0.835745,0.232037
1,92,8,1,2,9,1,I,7,L,7,L,12,0.780754,0.490343,0.382837
1,93,2,9,1,8,1,C,7,L,7,L,9,0.324303,0.76994,0.249694
1,94,2,8,8,1,1,I,6,S,7,L,13,0.539768,0.756657,0.408419
1,95,9,8,8,1,1,C,1,S,7,L,11,0.792137,0.37471,0.296822
1,96,8,1,1,8,1,I,7,L,7,L,12,0.752531,0.526147,0.395942
1,97,9,1,1,9,1,I,8,L,8,L,11,0.765256,0.488156,0.373564
1,98,1,9,8,9,1,C,8,L,1,S,10,0.325525,0.821094,0.267287
1,99,2,1,2,8,1,I,1,S,6,S,14,0.760279,0.554811,0.421811
1,100,2,1,1,8,1,I,1,S,7,L,15,0.756079,0.594085,0.449175
1,101,8,1,8,2,1,C,7,L,6,S,9,0.803429,0.303716,0.244014
1,102,9,2,8,1,1,C,7,L,7,L,9,0.854211,0.266923,0.228008
1,103,9,2,9,8,1,C,7,L,1,S,9,0.806201,0.301347,0.242946
1,104,8,9,9,2,0,I,1,S,7,L,11,0.760527,0.412959,0.314066
1,105,9,8,2,9,0,I,1,S,7,L,14,0.505968,0.752211,0.380595
1,106,8,2,8,9,1,I,6,S,1,S,11,0.766434,0.42352,0.3246
1,107,9,2,1,8,1,I,7,L,7,L,12,0.771308,0.514348,0.396721
1,108,1,2,8,1,0,I,1,S,7,L,12,0.757797,0.44315,0.335818
1,109,8,9,8,1,0,I,1,S,7,L,12,0.767394,0.428573,0.328885
1,110,8,2,9,1,1,C,6,S,8,L,9,0.845295,0.271424,0.229433
1,111,1,9,9,8,1,I,8,L,1,S,12,0.451676,0.791421,0.357466
1,112,1,8,9,8,1,I,7,L,1,S,11,0.419311,0.790961,0.331659
1,113,8,2,2,8,1,I,6,S,6,S,13,0.766858,0.525695,0.403133
1,114,9,2,9,2,1,C,7,L,7,L,8,0.771467,0.284882,0.219777
1,115,9,1,9,2,1,C,8,L,7,L,8,0.800908,0.263181,0.210783
1,116,9,2,2,8,1,I,7,L,6,S,11,0.765063,0.465109,0.355838
1,117,2,1,9,8,1,C,1,S,1,S,10,0.804314,0.33226,0.267242
1,118,9,1,1,2,1,I,8,L,1,S,10,0.790793,0.38639,0.305554
1,119,1,2,8,9,1,C,1,S,1,S,13,0.446377,0.750635,0.335066
1,120,9,1,9,8,1,C,8,L,1,S,9,0.839048,0.277191,0.232576
1,121,1,2,1,9,1,C,1,S,8,L,11,0.377491,0.79902,0.301623
1,122,9,2,9,1,1,C,7,L,8,L,8,0.790442,0.270109,0.213505
1,123,2,1,9,2,1,C,1,S,7,L,9,0.795786,0.308223,0.24528
1,124,8,2,1,8,1,I,6,S,7,L,14,0.764151,0.569492,0.435178
1,125,1,2,8,2,0,I,1,S,6,S,14,0.769733,0.471292,0.362769
1,126,9,8,8,2,1,C,1,S,6,S,12,0.811455,0.379326,0.307806
1,127,2,8,1,8,1,C,6,S,7,L,9,0.288006,0.817231,0.235368
1,128,9,1,8,1,1,C,8,L,7,L,8,0.775552,0.281236,0.218113
1,129,8,9,1,2,1,C,1,S,1,S,13,0.420153,0.783527,0.329201
1,130,9,8,1,9,0,I,1,S,8,L,12,0.455499,0.755406,0.344087
1,131,9,8,1,2,1,I,1,S,1,S,22,0.752567,0.641616,0.482859
1,132,1,9,9,1,1,I,8,L,8,L,14,0.586732,0.758187,0.444853
1,133,8,9,9,8,0,I,1,S,1,S,14,0.76234,0.462,0.352201
1,134,9,8,1,8,0,I,1,S,7,L,13,0.465996,0.771838,0.359673
1,135,1,2,9,8,0,I,1,S,1,S,15,0.76499,0.487255,0.372745
1,136,2,1,8,9,1,I,1,S,1,S,12,0.776203,0.444578,0.345082
1,137,8,9,2,9,1,C,1,S,7,L,12,0.393539,0.80043,0.315001
1,138,1,9,1,8,1,C,8,L,7,L,9,0.279913,0.830399,0.23244
1,139,1,8,2,8,1,C,7,L,6,S,9,0.278949,0.831514,0.23195
1,140,2,9,8,1,1,I,7,L,7,L,16,0.586301,0.775418,0.454629
1,141,2,8,9,1,1,I,6,S,8,L,15,0.594107,0.769547,0.457194
1,142,1,2,1,8,1,C,1,S,7,L,11,0.380594,0.792721,0.301705
1,143,8,2,9,8,1,C,6,S,1,S,10,0.836881,0.308894,0.258508
1,144,9,2,2,1,1,C,7,L,1,S,9,0.787658,0.317835,0.250345
2,1,1,9,2,1,1,I,8,L,1,S,10,0.349403,0.809132,0.282713
2,2,2,1,8,2,1,C,1,S,6,S,11,0.799482,0.374798,0.299644
2,3,9,1,9,1,1,C,8,L,8,L,9,0.841629,0.277272,0.23336
2,4,8,9,2,9,1,C,1,S,7,L,10,0.340047,0.795209,0.270408
2,5,1,2,2,8,1,C,1,S,6,S,10,0.319819,0.823968,0.26352
2,6,1,9,9,1,1,I,8,L,8,L,11,0.48105,0.756455,0.363893
2,7,8,1,9,8,1,C,7,L,1,S,10,0.787139,0.356058,0.280267
2,8,8,9,9,1,1,I,1,S,8,L,19,0.635791,0.753916,0.479333
2,9,9,1,8,1,1,C,8,L,7,L,9,0.851667,0.2684,0.228588
2,10,1,8,2,1,1,I,7,L,1,S,10,0.362323,0.79473,0.287949
2,11,8,2,1,9,1,I,6,S,8,L,17,0.750557,0.630019,0.472865
2,12,2,8,8,1,1,I,6,S,7,L,13,0.534807,0.777484,0.415804
2,13,9,8,1,2,0,I,1,S,1,S,14,0.446719,0.779446,0.348194
2,14,2,9,8,9,1,C,7,L,1,S,10,0.321321,0.827653,0.265943
2,15,9,8,9,2,1,C,1,S,7,L,12,0.792877,0.411368,0.326164
2,16,1,8,8,1,1,I,7,L,7,L,12,0.512199,0.76984,0.394311
2,17,8,9,8,1,1,I,1,S,7,L,20,0.629941,0.770091,0.485112
2,18,8,2,1,2,1,I,6,S,1,S,14,0.776217,0.507926,0.394261
2,19,2,9,8,1,1,I,7,L,7,L,12,0.516103,0.761347,0.392933
2,20,1,2,1,9,1,C,1,S,8,L,9,0.311622,0.788802,0.245808
2,21,1,8,9,8,1,I,7,L,1,S,10,0.349214,0.80649,0.281637
2,22,8,1,2,1,1,C,7,L,1,S,10,0.800248,0.344298,0.275524
2,23,8,2,2,1,1,C,6,S,1,S,11,0.779349,0.381996,0.297708
2,24,1,8,9,1,1,I,7,L,8,L,12,0.500122,0.780244,0.390218
2,25,1,9,1,8,1,C,8,L,7,L,8,0.281652,0.768863,0.216552
2,26,8,9,1,8,1,C,1,S,7,L,10,0.333329,0.801853,0.267281
2,27,1,8,8,9,1,C,7,L,1,S,9,0.345628,0.753599,0.260465
2,28,2,8,9,2,1,I,6,S,7,L,12,0.513786,0.76004,0.390498
2,29,1,2,2,9,1,C,1,S,7,L,9,0.333533,0.760964,0.253806
2,30,9,2,8,1,1,C,7,L,7,L,9,0.783101,0.316838,0.248116
2,31,8,2,9,2,1,C,6,S,7,L,10,0.828352,0.316809,0.262429
2,32,1,9,1,9,1,C,8,L,8,L,8,0.268058,0.787684,0.211145
2,33,9,8,1,9,0,I,1,S,8,L,11,0.388504,0.792312,0.307816
2,34,1,9,8,2,1,I,8,L,6,S,11,0.488278,0.751139,0.366764
2,35,9,8,2,8,0,I,1,S,6,S,12,0.424151,0.773693,0.328162
2,36,2,9,9,8,1,I,7,L,1,S,10,0.352253,0.798657,0.28133
2,37,8,9,2,1,1,I,1,S,1,S,14,0.458971,0.779107,0.357587
2,38,8,9,9,2,1,I,1,S,7,L,19,0.632972,0.757536,0.479499
2,39,2,8,8,9,1,C,6,S,1,S,10,0.336423,0.810444,0.272652
2,40,9,8,1,8,0,I,1,S,7,L,11,0.40632,0.767906,0.312016
2,41,8,2,8,2,1,C,6,S,6,S,10,0.840532,0.306358,0.257504
2,42,1,2,1,8,1,C,1,S,7,L,9,0.327199,0.767019,0.250968
2,43,2,9,2,8,1,C,7,L,6,S,9,0.284612,0.826593,0.235258
2,44,9,1,1,8,1,I,8,L,7,L,12,0.752525,0.528452,0.397673
2,45,1,9,9,8,1,I,8,L,1,S,10,0.336294,0.820892,0.276061
2,46,8,2,1,8,1,I,6,S,7,L,17,0.765824,0.611368,0.468201
2,47,1,8,9,2,1,I,7,L,7,L,12,0.49429,0.786044,0.388534
2,48,1,2,9,1,1,I,1,S,8,L,16,0.594869,0.768861,0.457372
2,49,1,2,8,2,1,I,1,S,6,S,16,0.601164,0.763762,0.459146
2,50,2,9,1,8,1,C,7,L,7,L,8,0.294559,0.750799,0.221155
2,51,9,1,1,9,1,I,8,L,8,L,13,0.767912,0.554938,0.426144
2,52,9,8,9,8,1,C,1,S,1,S,20,0.78376,0.469615,0.368066
2,53,1,8,1,2,1,C,7,L,1,S,9,0.317349,0.788065,0.250092
2,54,9,1,9,2,1,C,8,L,7,L,9,0.83689,0.282346,0.236292
2,55,8,1,8,9,1,I,7,L,1,S,10,0.756207,0.385054,0.291181
2,56,1,2,1,2,1,C,1,S,1,S,10,0.362826,0.766636,0.278156
2,57,8,9,1,9,1,C,1,S,8,L,10,0.316346,0.825475,0.261136
2,58,1,9,1,2,1,C,8,L,1,S,9,0.305063,0.80163,0.244548
2,59,8,9,8,2,1,I,1,S,6,S,20,0.628345,0.77264,0.485484
2,60,9,2,2,8,1,I,7,L,6,S,14,0.765384,0.553386,0.423553
2,61,2,1,1,9,0,I,1,S,8,L,11,0.431383,0.750402,0.323711
2,62,9,2,1,2,1,I,7,L,1,S,12,0.755394,0.47303,0.357324
2,63,8,2,9,8,1,C,6,S,1,S,11,0.761097,0.398276,0.303126
2,64,2,1,2,9,0,I,1,S,7,L,12,0.456912,0.752961,0.344037
2,65,8,9,8,9,1,C,1,S,1,S,12,0.397875,0.777584,0.309381
2,66,9,8,2,1,1,C,1,S,1,S,17,0.772699,0.471515,0.36434
2,67,9,1,1,2,1,I,8,L,1,S,11,0.796811,0.413006,0.329088
2,68,1,9,8,1,1,I,8,L,7,L,12,0.499206,0.783994,0.391374
2,69,9,2,9,8,1,C,7,L,1,S,11,0.80507,0.368916,0.297003
2,70,2,8,2,8,1,C,6,S,6,S,9,0.298717,0.810791,0.242197
2,71,9,1,2,8,1,I,8,L,6,S,12,0.786227,0.485643,0.381825
2,72,1,2,8,9,1,C,1,S,1,S,11,0.373754,0.78941,0.295045
2,73,9,2,1,8,1,I,7,L,7,L,15,0.760844,0.590751,0.449469
2,74,2,8,1,8,1,C,6,S,7,L,9,0.271486,0.845042,0.229417
2,75,9,1,8,9,1,I,8,L,1,S,10,0.783146,0.36838,0.288495
2,76,9,1,9,8,1,C,8,L,1,S,10,0.814078,0.339384,0.276285
2,77,9,8,8,9,0,I,1,S,1,S,17,0.484143,0.756567,0.366287
2,78,1,2,9,8,1,I,1,S,1,S,12,0.3947,0.80603,0.31814
2,79,2,1,8,1,1,C,1,S,7,L,11,0.804219,0.369888,0.297471
2,80,8,1,9,2,1,C,7,L,7,L,9,0.812571,0.297028,0.241356
2,81,9,8,2,9,0,I,1,S,7,L,11,0.413187,0.761062,0.314461
2,82,2,8,9,1,1,I,6,S,8,L,12,0.519618,0.75424,0.391917
2,83,8,1,8,1,1,C,7,L,7,L,9,0.827348,0.283083,0.234208
2,84,9,8,8,2,1,C,1,S,6,S,11,0.756603,0.416708,0.315283
2,85,9,2,2,1,1,C,7,L,1,S,11,0.823323,0.352636,0.290333
2,86,2,8,2,1,1,I,6,S,1,S,10,0.380464,0.769688,0.292839
2,87,2,8,1,2,1,C,6,S,1,S,9,0.333881,0.765141,0.255466
2,88,8,2,8,1,1,C,6,S,7,L,9,0.751739,0.337641,0.253818
2,89,1,8,2,8,1,C,7,L,6,S,9,0.282185,0.833714,0.235262
2,90,1,8,1,8,1,C,7,L,7,L,8,0.292833,0.756942,0.221658
2,91,2,9,9,2,1,I,7,L,7,L,12,0.498194,0.777551,0.387372
2,92,2,1,9,8,1,C,1,S,1,S,15,0.791267,0.432697,0.342378
2,93,2,1,2,8,0,I,1,S,6,S,14,0.495823,0.761037,0.37734
2,94,1,2,2,1,1,I,1,S,1,S,12,0.419724,0.784018,0.329071
2,95,8,2,8,9,1,I,6,S,1,S,12,0.769365,0.425546,0.3274
2,96,2,1,9,1,1,C,1,S,8,L,11,0.792254,0.380114,0.301147
2,97,8,1,1,9,1,I,7,L,8,L,14,0.76965,0.573179,0.441147
2,98,2,8,2,9,1,C,6,S,7,L,9,0.27782,0.838987,0.233087
2,99,8,1,9,1,1,C,7,L,8,L,9,0.817311,0.291954,0.238618
2,100,1,9,9,2,1,I,8,L,7,L,11,0.475269,0.762204,0.362252
2,101,2,9,2,1,1,I,7,L,1,S,10,0.365362,0.786898,0.287502
2,102,2,9,1,9,1,C,7,L,8,L,8,0.280965,0.76962,0.216237
2,103,2,9,2,9,1,C,7,L,7,L,9,0.263716,0.854789,0.225421
2,104,9,2,2,9,1,I,7,L,7,L,15,0.766727,0.585443,0.448875
2,105,9,1,2,1,1,C,8,L,1,S,10,0.827187,0.327624,0.271006
2,106,8,2,2,8,1,I,6,S,6,S,16,0.77092,0.583584,0.449897
2,107,8,1,8,2,1,C,7,L,6,S,9,0.823258,0.287574,0.236748
2,108,1,9,8,9,1,C,8,L,1,S,9,0.333343,0.767164,0.255728
2,109,2,1,1,8,0,I,1,S,7,L,12,0.450096,0.759687,0.341932
2,110,2,1,1,2,1,I,1,S,1,S,23,0.768023,0.633106,0.48624
2,111,8,1,1,2,1,I,7,L,1,S,11,0.768437,0.431064,0.331245
2,112,8,9,9,8,1,I,1,S,1,S,13,0.436202,0.768706,0.335311
2,113,9,2,1,9,1,I,7,L,8,L,16,0.770565,0.605277,0.466405
2,114,1,2,9,2,1,I,1,S,7,L,16,0.590527,0.773668,0.456872
2,115,8,9,1,2,1,C,1,S,1,S,11,0.376973,0.777828,0.29322
2,116,9,1,2,9,1,I,8,L,7,L,12,0.759341,0.521726,0.396168
2,117,2,8,9,8,1,I,6,S,1,S,10,0.367355,0.781448,0.287069
2,118,1,9,2,8,1,C,8,L,6,S,9,0.269899,0.847279,0.22868
2,119,2,1,8,9,1,I,1,S,1,S,19,0.76264,0.559079,0.426376
2,120,9,8,8,1,1,C,1,S,7,L,11,0.76134,0.411798,0.313518
2,121,9,2,9,1,1,C,7,L,8,L,9,0.773064,0.325709,0.251794
2,122,2,9,9,1,1,I,7,L,8,L,12,0.504027,0.771751,0.388983
2,123,1,8,2,9,1,C,7,L,7,L,8,0.298539,0.751864,0.224461
2,124,8,9,2,8,1,C,1,S,6,S,10,0.363791,0.762819,0.277506
2,125,1,8,1,9,1,C,7,L,8,L,8,0.27924,0.775763,0.216624
2,126,8,1,1,8,1,I,7,L,7,L,13,0.757473,0.550413,0.416923
2,127,2,1,2,1,1,C,1,S,1,S,14,0.784259,0.428049,0.335701
2,128,2,1,9,2,1,C,1,S,7,L,11,0.786474,0.385863,0.303471
2,129,1,8,8,2,1,I,7,L,6,S,12,0.507515,0.774725,0.393185
2,130,2,8,1,9,1,C,6,S,8,L,8,0.293524,0.756162,0.221952
2,131,9,1,8,2,1,C,8,L,6,S,9,0.847576,0.272892,0.231297
2,132,9,2,8,9,1,I,7,L,1,S,11,0.762732,0.409878,0.312627
2,133,8,1,2,9,1,I,7,L,7,L,13,0.764081,0.544034,0.415686
2,134,1,2,8,1,1,I,1,S,7,L,16,0.604426,0.759866,0.459283
2,135,9,2,8,2,1,C,7,L,6,S,9,0.77901,0.321329,0.250319
2,136,8,2,2,9,1,I,6,S,7,L,17,0.770793,0.607282,0.468089
2,137,8,2,9,1,1,C,6,S,8,L,10,0.833777,0.311296,0.259551
2,138,9,8,9,1,1,C,1,S,8,L,12,0.798709,0.405569,0.323931
2,139,2,9,1,2,1,C,7,L,1,S,9,0.319776,0.780944,0.249727
2,140,2,8,8,2,1,I,6,S,6,S,13,0.530353,0.782225,0.414855
2,141,8,1,2,8,1,I,7,L,6,S,12,0.757424,0.504505,0.382124
2,142,9,2,9,2,1,C,7,L,7,L,9,0.768324,0.330783,0.254148
2,143,1,9,2,9,1,C,8,L,7,L,8,0.287358,0.763785,0.219479
2,144,2,9,8,2,1,I,7,L,6,S,12,0.51142,0.766232,0.391866
3,1,1,9,2,9,1,C,8,L,7,L,8,0.29038,0.762686,0.221468
3,2,8,2,2,8,1,I,6,S,6,S,13,0.777345,0.544382,0.423173
3,3,9,8,2,1,1,C,1,S,1,S,11,0.776129,0.390943,0.303422
3,4,9,2,2,1,1,C,7,L,1,S,10,0.827022,0.330409,0.273256
3,5,8,1,8,1,1,C,7,L,7,L,8,0.769257,0.284037,0.218498
3,6,9,2,9,8,1,C,7,L,1,S,9,0.77723,0.32694,0.254108
3,7,1,9,2,1,1,I,8,L,1,S,10,0.352508,0.802135,0.28276
3,8,2,1,9,2,1,C,1,S,7,L,9,0.784798,0.31477,0.247031
3,9,8,1,9,8,1,C,7,L,1,S,9,0.80405,0.305282,0.245462
3,10,9,2,8,2,1,C,7,L,6,S,9,0.851584,0.268433,0.228593
3,11,1,8,2,1,1,I,7,L,1,S,11,0.380232,0.798423,0.303586
3,12,2,1,2,9,1,I,1,S,7,L,17,0.750231,0.630031,0.472669
3,13,9,2,9,1,1,C,7,L,8,L,8,0.787252,0.27274,0.214715
3,14,1,9,2,8,1,C,8,L,6,S,8,0.291603,0.762467,0.222338
3,15,8,9,1,9,1,C,1,S,8,L,11,0.402716,0.776495,0.312707
3,16,9,8,8,9,1,I,1,S,1,S,13,0.752984,0.50792,0.382456
3,17,9,8,8,1,1,C,1,S,7,L,9,0.75248,0.340447,0.25618
3,18,1,9,9,2,1,I,8,L,7,L,13,0.560713,0.765535,0.429245
3,19,2,9,8,2,1,I,7,L,6,S,13,0.522911,0.783194,0.40954
3,20,1,8,2,8,1,C,7,L,6,S,9,0.295502,0.814346,0.240641
3,21,8,9,8,1,0,I,1,S,7,L,11,0.767414,0.400027,0.306986
3,22,9,8,2,9,1,I,1,S,7,L,17,0.773638,0.613007,0.474245
3,23,9,1,9,8,1,C,8,L,1,S,9,0.813722,0.299598,0.243789
3,24,2,1,1,2,1,I,1,S,1,S,13,0.770622,0.465403,0.358649
3,25,8,1,8,2,1,C,7,L,6,S,8,0.767462,0.284725,0.218516
3,26,1,9,1,2,1,C,8,L,1,S,9,0.335257,0.76337,0.255925
3,27,9,2,8,1,1,C,7,L,7,L,9,0.853782,0.267481,0.22837
3,28,2,1,8,1,1,C,1,S,7,L,10,0.828566,0.315284,0.261233
3,29,9,2,9,2,1,C,7,L,7,L,8,0.785681,0.273265,0.214699
3,30,8,9,1,8,1,C,1,S,7,L,11,0.403543,0.776658,0.313415
3,31,9,2,1,9,1,I,7,L,8,L,13,0.776298,0.550641,0.427462
3,32,1,8,8,2,1,I,7,L,6,S,14,0.56008,0.765997,0.42902
3,33,2,9,1,9,1,C,7,L,8,L,8,0.291267,0.757283,0.220571
3,34,8,9,2,1,0,I,1,S,1,S,16,0.754164,0.467913,0.352883
3,35,1,2,9,1,0,I,1,S,8,L,11,0.780871,0.403275,0.314906
3,36,8,2,1,9,1,I,6,S,8,L,13,0.763218,0.559556,0.427063
3,37,2,1,1,8,1,I,1,S,7,L,18,0.764304,0.631027,0.482297
3,38,8,1,1,9,1,I,7,L,8,L,12,0.771399,0.524958,0.404952
3,39,9,8,2,8,1,I,1,S,6,S,17,0.774035,0.613566,0.474922
3,40,2,1,2,1,1,C,1,S,1,S,11,0.75435,0.404915,0.305448
3,41,1,2,1,8,1,C,1,S,7,L,10,0.380848,0.760759,0.289734
3,42,9,2,1,8,1,I,7,L,7,L,13,0.776905,0.551015,0.428087
3,43,2,1,2,8,1,I,1,S,6,S,17,0.750628,0.63059,0.473339
3,44,9,1,2,1,1,C,8,L,1,S,9,0.785651,0.326526,0.256535
3,45,8,9,9,1,0,I,1,S,8,L,10,0.76292,0.378456,0.288732
3,46,1,2,1,9,1,C,1,S,8,L,10,0.379928,0.760684,0.289005
3,47,2,9,8,9,1,C,7,L,1,S,9,0.330751,0.766083,0.253383
3,48,1,2,8,1,0,I,1,S,7,L,12,0.765729,0.437181,0.334762
3,49,2,9,1,8,1,C,7,L,7,L,8,0.292289,0.757271,0.221342
3,50,1,8,8,9,1,C,7,L,1,S,10,0.326009,0.81645,0.26617
3,51,2,8,2,9,1,C,6,S,7,L,9,0.314209,0.786106,0.247002
3,52,2,8,8,9,1,C,6,S,1,S,10,0.349704,0.782311,0.273577
3,53,1,2,9,2,0,I,1,S,7,L,11,0.77888,0.404185,0.314812
3,54,8,2,9,2,1,C,6,S,7,L,8,0.775476,0.279386,0.216657
3,55,8,2,8,1,1,C,6,S,7,L,9,0.841996,0.274694,0.231292
3,56,2,9,9,1,1,I,7,L,8,L,14,0.579676,0.769225,0.445901
3,57,1,8,9,1,1,I,7,L,8,L,15,0.611004,0.751688,0.459285
3,58,2,9,9,2,1,I,7,L,7,L,14,0.577684,0.770277,0.444977
3,59,1,8,1,9,1,C,7,L,8,L,9,0.281755,0.829669,0.233763
3,60,2,1,9,8,1,C,1,S,1,S,11,0.809471,0.355454,0.28773
3,61,9,2,2,9,1,I,7,L,7,L,12,0.757041,0.532314,0.402984
3,62,8,2,2,9,1,I,6,S,7,L,13,0.776463,0.54431,0.422636
3,63,1,2,8,2,0,I,1,S,6,S,12,0.762834,0.438716,0.334667
3,64,9,1,1,9,1,I,8,L,8,L,12,0.781669,0.518312,0.405148
3,65,9,2,1,2,1,I,7,L,1,S,10,0.777765,0.379268,0.294981
3,66,1,9,9,1,1,I,8,L,8,L,13,0.562729,0.764507,0.430211
3,67,1,2,9,8,1,I,1,S,1,S,26,0.644219,0.763041,0.491566
3,68,9,1,9,2,1,C,8,L,7,L,8,0.81827,0.248695,0.2035
3,69,8,2,9,8,1,C,6,S,1,S,9,0.765445,0.334154,0.255776
3,70,1,2,8,9,1,C,1,S,1,S,13,0.411674,0.795375,0.327436
3,71,2,8,1,2,1,C,6,S,1,S,11,0.340513,0.8284,0.282081
3,72,9,8,9,8,1,C,1,S,1,S,10,0.750902,0.376549,0.282752
3,73,8,9,1,2,0,C,1,S,1,S,26,0.761921,0.639945,0.487588
3,74,9,2,2,8,1,I,7,L,6,S,12,0.758041,0.53227,0.403482
3,75,1,9,8,9,1,C,8,L,1,S,9,0.316364,0.788034,0.249306
3,76,9,1,2,9,1,I,8,L,7,L,11,0.758615,0.495917,0.37621
3,77,9,1,8,1,1,C,8,L,7,L,8,0.777983,0.279073,0.217114
3,78,9,8,9,2,1,C,1,S,7,L,9,0.799755,0.305386,0.244234
3,79,9,1,8,9,1,I,8,L,1,S,10,0.791187,0.383376,0.303322
3,80,2,1,1,9,1,I,1,S,8,L,18,0.764211,0.630155,0.481571
3,81,8,1,9,2,1,C,7,L,7,L,8,0.809544,0.253659,0.205349
3,82,8,1,1,2,1,I,7,L,1,S,10,0.806078,0.35637,0.287262
3,83,2,8,8,1,1,I,6,S,7,L,15,0.591352,0.751487,0.444394
3,84,8,2,9,1,1,C,6,S,8,L,8,0.777047,0.278861,0.216688
3,85,2,8,1,9,1,C,6,S,8,L,9,0.301691,0.801183,0.24171
3,86,8,9,2,9,1,C,1,S,7,L,11,0.416319,0.760215,0.316492
3,87,1,8,1,8,1,C,7,L,7,L,9,0.282744,0.829682,0.234588
3,88,1,9,8,1,1,I,8,L,7,L,12,0.504274,0.773795,0.390205
3,89,2,9,2,8,1,C,7,L,6,S,9,0.267418,0.852563,0.227991
3,90,8,1,2,9,1,I,7,L,7,L,12,0.784964,0.509006,0.399552
3,91,2,9,9,8,1,I,7,L,1,S,11,0.401036,0.795766,0.319131
3,92,9,8,9,1,1,C,1,S,8,L,9,0.801532,0.304706,0.244232
3,93,1,9,8,2,1,I,8,L,6,S,12,0.50138,0.77533,0.388734
3,94,2,8,2,8,1,C,6,S,6,S,9,0.315438,0.78586,0.24789
3,95,9,8,1,2,1,I,1,S,1,S,12,0.7549,0.453935,0.342675
3,96,1,8,1,2,1,C,7,L,1,S,10,0.351088,0.78325,0.27499
3,97,1,9,1,8,1,C,8,L,7,L,8,0.280116,0.77593,0.217351
3,98,8,1,9,1,1,C,7,L,8,L,8,0.811115,0.253135,0.205322
3,99,9,8,8,2,1,C,1,S,6,S,9,0.750283,0.341399,0.256146
3,100,2,9,2,9,1,C,7,L,7,L,9,0.266189,0.852809,0.227009
3,101,2,1,8,2,1,C,1,S,6,S,10,0.826036,0.316475,0.26142
3,102,9,1,2,8,1,I,8,L,6,S,11,0.75972,0.495771,0.376647
3,103,2,1,8,9,1,I,1,S,1,S,14,0.759417,0.526595,0.399905
3,104,8,1,1,8,1,I,7,L,7,L,12,0.77212,0.525224,0.405536
3,105,1,8,8,1,1,I,7,L,7,L,14,0.563007,0.764311,0.430312
3,106,9,1,1,2,1,I,8,L,1,S,10,0.816266,0.350175,0.285836
3,107,8,2,8,2,1,C,6,S,6,S,9,0.839799,0.275646,0.231487
3,108,2,8,2,1,1,I,6,S,1,S,11,0.406898,0.760089,0.309279
3,109,2,8,9,2,1,I,6,S,7,L,17,0.622575,0.765738,0.47673
3,110,9,8,1,9,1,I,1,S,8,L,17,0.763107,0.624096,0.476252
3,111,8,1,8,9,1,I,7,L,1,S,10,0.780999,0.38957,0.304254
3,112,2,9,8,1,1,I,7,L,7,L,13,0.525853,0.781561,0.410986
3,113,2,8,9,1,1,I,6,S,8,L,17,0.624436,0.764695,0.477503
3,114,8,9,9,2,0,I,1,S,7,L,10,0.761005,0.379266,0.288624
3,115,8,2,2,1,1,C,6,S,1,S,10,0.814225,0.338443,0.275568
3,116,2,8,8,2,1,I,6,S,6,S,15,0.588484,0.753191,0.443241
3,117,2,8,1,8,1,C,6,S,7,L,9,0.302681,0.801196,0.242507
3,118,1,9,9,8,1,I,8,L,1,S,10,0.392412,0.76511,0.300238
3,119,8,9,8,2,0,I,1,S,6,S,11,0.764652,0.401415,0.306943
3,120,8,2,8,9,1,I,6,S,1,S,11,0.790296,0.419941,0.331878
3,121,1,8,2,9,1,C,7,L,7,L,9,0.294273,0.814591,0.239712
3,122,9,1,9,1,1,C,8,L,8,L,8,0.819841,0.248171,0.203461
3,123,8,1,2,8,1,I,7,L,6,S,12,0.785965,0.508961,0.400026
3,124,8,2,1,8,1,I,6,S,7,L,13,0.763826,0.55993,0.427689
3,125,9,8,1,8,1,I,1,S,7,L,17,0.76329,0.624881,0.476966
3,126,8,9,9,8,0,I,1,S,1,S,14,0.79703,0.418757,0.333762
3,127,8,2,1,2,1,I,6,S,1,S,10,0.764968,0.387301,0.296273
3,128,1,2,2,9,1,C,1,S,7,L,11,0.373843,0.804835,0.300882
3,129,9,2,8,9,1,I,7,L,1,S,10,0.752686,0.412468,0.310459
3,130,8,9,2,8,1,C,1,S,6,S,11,0.417423,0.76007,0.317271
3,131,1,2,2,8,1,C,1,S,6,S,11,0.374948,0.804689,0.301716
3,132,2,9,1,2,1,C,7,L,1,S,10,0.319313,0.826832,0.264018
3,133,8,1,2,1,1,C,7,L,1,S,9,0.775979,0.332211,0.257788
3,134,1,2,2,1,1,I,1,S,1,S,20,0.531611,0.761294,0.404712
3,135,2,9,2,1,1,I,7,L,1,S,10,0.36857,0.777973,0.286737
3,136,8,9,8,9,1,C,1,S,1,S,15,0.486057,0.763216,0.370966
3,137,9,1,1,8,1,I,8,L,7,L,12,0.78239,0.518577,0.40573
3,138,1,9,1,9,1,C,8,L,8,L,8,0.279094,0.775943,0.216561
3,139,2,8,9,8,1,I,6,S,1,S,12,0.458291,0.754835,0.345934
3,140,9,1,8,2,1,C,8,L,6,S,8,0.776188,0.279761,0.217147
3,141,1,2,1,2,1,C,1,S,1,S,14,0.425204,0.787766,0.334961
3,142,1,8,9,2,1,I,7,L,7,L,15,0.609051,0.752749,0.458463
3,143,2,1,9,1,1,C,1,S,8,L,9,0.786575,0.31409,0.247055
3,144,1,8,9,8,1,I,7,L,1,S,12,0.42958,0.795628,0.341786
4,1,8,2,9,2,1,C,6,S,7,L,9,0.80222,0.303103,0.243155
4,2,1,2,2,9,1,C,1,S,7,L,10,0.349012,0.784666,0.273858
4,3,1,9,8,1,1,I,8,L,7,L,13,0.530065,0.771668,0.409035
4,4,8,2,9,8,1,C,6,S,1,S,10,0.815163,0.324978,0.26491
4,5,8,9,8,2,0,I,1,S,6,S,11,0.766237,0.399328,0.30598
4,6,8,1,2,8,1,I,7,L,6,S,11,0.773658,0.450091,0.348216
4,7,1,2,1,8,1,C,1,S,7,L,10,0.313368,0.83435,0.261459
4,8,1,2,8,2,1,I,1,S,6,S,19,0.623864,0.766442,0.478155
4,9,2,9,1,8,1,C,7,L,7,L,8,0.290694,0.759791,0.220866
4,10,9,2,9,8,1,C,7,L,1,S,10,0.817137,0.32485,0.265447
4,11,2,1,1,9,0,I,1,S,8,L,13,0.502418,0.761676,0.38268
4,12,8,1,1,2,1,I,7,L,1,S,11,0.765751,0.464008,0.355314
4,13,2,9,1,9,1,C,7,L,8,L,8,0.281499,0.774513,0.218025
4,14,9,2,2,9,1,I,7,L,7,L,14,0.752013,0.571759,0.42997
4,15,9,1,2,8,1,I,8,L,6,S,11,0.775724,0.449665,0.348816
4,16,2,8,8,2,1,I,6,S,6,S,13,0.517949,0.782199,0.40514
4,17,2,9,1,2,1,C,7,L,1,S,9,0.297495,0.810175,0.241023
4,18,1,8,8,9,1,C,7,L,1,S,10,0.344105,0.794923,0.273537
4,19,2,1,8,2,1,C,1,S,6,S,10,0.750701,0.375366,0.281787
4,20,1,9,2,8,1,C,8,L,6,S,9,0.312971,0.785616,0.245875
4,21,8,1,9,1,1,C,7,L,8,L,8,0.778229,0.276133,0.214894
4,22,2,9,9,8,1,I,7,L,1,S,11,0.447293,0.760439,0.340139
4,23,2,1,2,8,1,I,1,S,6,S,20,0.762152,0.626891,0.477786
4,24,9,1,8,9,1,I,8,L,1,S,10,0.793784,0.365359,0.290017
4,25,9,1,9,1,1,C,8,L,8,L,8,0.77975,0.276212,0.215376
4,26,9,8,1,9,0,I,1,S,8,L,11,0.428872,0.761545,0.326605
4,27,2,1,9,8,1,C,1,S,1,S,11,0.775603,0.379772,0.294552
4,28,9,1,1,8,1,I,8,L,7,L,12,0.75221,0.541,0.406945
4,29,8,9,1,8,1,C,1,S,7,L,11,0.41539,0.76696,0.318588
4,30,9,8,9,8,1,C,1,S,1,S,12,0.804939,0.382698,0.308048
4,31,1,9,8,9,1,C,8,L,1,S,10,0.33649,0.807646,0.271765
4,32,8,1,9,8,1,C,7,L,1,S,9,0.811828,0.295043,0.239524
4,33,8,1,9,2,1,C,7,L,7,L,8,0.774394,0.279551,0.216483
4,34,9,2,1,2,1,I,7,L,1,S,14,0.767717,0.552454,0.424128
4,35,2,1,9,2,1,C,1,S,7,L,10,0.794372,0.344196,0.27342
4,36,9,2,2,8,1,I,7,L,6,S,14,0.777359,0.537099,0.417519
4,37,2,8,2,8,1,C,6,S,6,S,9,0.308981,0.789208,0.24385
4,38,1,9,8,2,1,I,8,L,6,S,13,0.522155,0.778283,0.406384
4,39,9,1,9,2,1,C,8,L,7,L,8,0.775916,0.27963,0.216969
4,40,2,8,1,8,1,C,6,S,7,L,8,0.295593,0.75094,0.221973
4,41,9,8,1,2,1,I,1,S,1,S,23,0.760547,0.650208,0.494514
4,42,8,2,1,2,1,I,6,S,1,S,14,0.765011,0.553353,0.423321
4,43,1,8,9,8,1,I,7,L,1,S,12,0.470486,0.771167,0.362824
4,44,2,8,9,2,1,I,6,S,7,L,14,0.564805,0.776779,0.438728
4,45,8,9,8,1,0,I,1,S,7,L,11,0.773984,0.392971,0.304153
4,46,1,8,2,1,1,I,7,L,1,S,11,0.386201,0.794445,0.306816
4,47,2,8,8,1,1,I,6,S,7,L,13,0.52586,0.775585,0.407849
4,48,9,8,2,1,1,C,1,S,1,S,13,0.757947,0.43259,0.327881
4,49,9,1,8,1,1,C,8,L,7,L,9,0.857242,0.262225,0.22479
4,50,1,9,1,8,1,C,8,L,7,L,9,0.262808,0.856702,0.225148
4,51,8,1,2,1,1,C,7,L,1,S,9,0.765455,0.333756,0.255476
4,52,9,1,1,2,1,I,8,L,1,S,11,0.767817,0.463582,0.355946
4,53,9,8,8,2,1,C,1,S,6,S,11,0.791475,0.376364,0.297882
4,54,9,8,2,8,1,I,1,S,6,S,23,0.767532,0.64005,0.491258
4,55,1,9,2,1,1,I,8,L,1,S,11,0.377757,0.808158,0.305287
4,56,1,2,2,8,1,C,1,S,6,S,10,0.369764,0.754432,0.278962
4,57,1,9,2,9,1,C,8,L,7,L,9,0.295196,0.8114,0.239522
4,58,2,9,9,1,1,I,7,L,8,L,13,0.560995,0.755934,0.424076
4,59,9,2,8,2,1,C,7,L,6,S,9,0.76509,0.330929,0.253191
4,60,2,8,1,2,1,C,6,S,1,S,9,0.303548,0.799592,0.242714
4,61,8,2,9,1,1,C,6,S,8,L,9,0.80665,0.299289,0.241421
4,62,9,8,2,9,0,I,1,S,7,L,14,0.507607,0.757448,0.384486
4,63,1,8,9,1,1,I,7,L,8,L,14,0.582432,0.755339,0.439934
4,64,8,9,2,8,1,C,1,S,6,S,14,0.475211,0.770013,0.365919
4,65,8,1,8,1,1,C,7,L,7,L,9,0.855493,0.262321,0.224414
4,66,1,2,2,1,1,I,1,S,1,S,14,0.464664,0.77521,0.360212
4,67,1,2,8,1,1,I,1,S,7,L,19,0.628867,0.761663,0.478985
4,68,8,2,2,8,1,I,6,S,6,S,14,0.774653,0.537998,0.416762
4,69,8,1,8,2,1,C,7,L,6,S,9,0.849336,0.267593,0.227277
4,70,8,2,2,9,1,I,6,S,7,L,15,0.777129,0.570736,0.443535
4,71,8,9,1,9,1,C,1,S,8,L,11,0.403635,0.784509,0.316655
4,72,1,8,8,2,1,I,7,L,6,S,13,0.531423,0.764088,0.406054
4,73,2,8,2,9,1,C,6,S,7,L,9,0.291206,0.814992,0.23733
4,74,2,1,8,9,1,I,1,S,1,S,16,0.765131,0.527906,0.403917
4,75,2,8,8,9,1,C,6,S,1,S,10,0.332238,0.811649,0.269661
4,76,1,9,9,2,1,I,8,L,7,L,14,0.568803,0.773167,0.43978
4,77,9,8,8,1,1,C,1,S,7,L,11,0.799221,0.370007,0.295717
4,78,9,1,8,2,1,C,8,L,6,S,9,0.851086,0.267497,0.227663
4,79,8,9,1,2,1,C,1,S,1,S,13,0.463994,0.7624,0.353749
4,80,9,2,9,1,1,C,7,L,8,L,9,0.808317,0.299382,0.241995
4,81,8,2,8,9,1,I,6,S,1,S,12,0.79811,0.418359,0.333897
4,82,1,8,2,9,1,C,7,L,7,L,9,0.301705,0.800231,0.241434
4,83,9,2,9,2,1,C,7,L,7,L,9,0.803886,0.303196,0.243735
4,84,1,9,9,1,1,I,8,L,8,L,14,0.573105,0.769252,0.440862
4,85,9,1,9,8,1,C,8,L,1,S,9,0.813577,0.294946,0.239961
4,86,8,2,8,2,1,C,6,S,6,S,9,0.763423,0.330836,0.252568
4,87,9,2,2,1,1,C,7,L,1,S,10,0.754213,0.375954,0.28355
4,88,1,8,8,1,1,I,7,L,7,L,13,0.539333,0.757474,0.408531
4,89,2,1,8,1,1,C,1,S,7,L,10,0.757842,0.369444,0.27998
4,90,9,8,8,9,1,I,1,S,1,S,19,0.759068,0.585529,0.444457
4,91,8,9,9,1,0,I,1,S,8,L,10,0.754246,0.38381,0.289487
4,92,1,2,9,2,1,I,1,S,7,L,20,0.642429,0.763575,0.490543
4,93,2,1,1,2,1,I,1,S,1,S,20,0.753893,0.63882,0.481602
4,94,2,9,8,9,1,C,7,L,1,S,10,0.325246,0.823501,0.26784
4,95,9,8,9,2,1,C,1,S,7,L,10,0.767548,0.370897,0.284681
4,96,1,2,1,2,1,C,1,S,1,S,10,0.362988,0.766812,0.278344
4,97,1,8,1,8,1,C,7,L,7,L,9,0.269318,0.845533,0.227717
4,98,2,9,2,9,1,C,7,L,7,L,9,0.285153,0.825575,0.235415
4,99,1,8,1,9,1,C,7,L,8,L,8,0.295163,0.753553,0.222421
4,100,8,2,2,1,1,C,6,S,1,S,10,0.752239,0.376082,0.282904
4,101,2,8,1,9,1,C,6,S,8,L,8,0.286398,0.765663,0.219284
4,102,8,1,2,9,1,I,7,L,7,L,11,0.750643,0.483408,0.362867
4,103,9,1,1,9,1,I,8,L,8,L,13,0.772739,0.560453,0.433084
4,104,2,9,2,8,1,C,7,L,6,S,9,0.302929,0.799791,0.242279
4,105,8,1,1,8,1,I,7,L,7,L,12,0.750052,0.541561,0.406198
4,106,1,9,1,9,1,C,8,L,8,L,8,0.289971,0.762715,0.221165
4,107,9,2,1,9,1,I,7,L,8,L,16,0.759165,0.623553,0.47338
4,108,8,2,8,1,1,C,6,S,7,L,9,0.76958,0.325564,0.250548
4,109,1,2,9,8,1,I,1,S,1,S,17,0.592461,0.756962,0.44847
4,110,1,2,1,9,1,C,1,S,8,L,9,0.333439,0.765843,0.255362
4,111,9,1,2,1,1,C,8,L,1,S,9,0.767205,0.33366,0.255985
4,112,8,2,1,9,1,I,6,S,8,L,16,0.756382,0.624666,0.472486
4,113,2,1,2,1,1,C,1,S,1,S,12,0.752085,0.418397,0.31467
4,114,9,8,1,8,0,I,1,S,7,L,12,0.445719,0.774037,0.345003
4,115,9,1,2,9,1,I,8,L,7,L,11,0.752708,0.482983,0.363545
4,116,1,8,1,2,1,C,7,L,1,S,9,0.314047,0.78483,0.246474
4,117,1,2,8,9,1,C,1,S,1,S,12,0.377026,0.808425,0.304797
4,118,8,2,1,8,1,I,6,S,7,L,16,0.767155,0.610076,0.468023
4,119,1,9,9,8,1,I,8,L,1,S,12,0.461499,0.785335,0.362431
4,120,8,9,2,1,0,I,1,S,1,S,14,0.762341,0.442233,0.337132
4,121,8,1,1,9,1,I,7,L,8,L,13,0.770519,0.561128,0.432359
4,122,9,2,1,8,1,I,7,L,7,L,16,0.769938,0.608963,0.468864
4,123,1,2,9,1,1,I,1,S,8,L,20,0.644797,0.761084,0.490745
4,124,8,9,2,9,1,C,1,S,7,L,12,0.449909,0.752237,0.338438
4,125,8,1,8,9,1,I,7,L,1,S,10,0.791853,0.365628,0.289523
4,126,2,8,9,8,1,I,6,S,1,S,12,0.457164,0.789454,0.36091
4,127,2,9,2,1,1,I,7,L,1,S,10,0.381988,0.763333,0.291584
4,128,8,9,9,8,0,I,1,S,1,S,12,0.770567,0.412903,0.318169
4,129,2,1,1,8,1,I,1,S,7,L,22,0.764519,0.650355,0.497209
4,130,1,9,1,2,1,C,8,L,1,S,9,0.307538,0.796,0.2448
4,131,1,8,9,2,1,I,7,L,7,L,14,0.57813,0.759254,0.438948
4,132,2,9,9,2,1,I,7,L,7,L,13,0.556409,0.760011,0.422877
4,133,1,8,2,8,1,C,7,L,6,S,9,0.31948,0.774447,0.247421
4,134,2,1,2,9,1,I,1,S,7,L,21,0.766358,0.636726,0.48796
4,135,9,8,9,1,1,C,1,S,8,L,10,0.772317,0.366832,0.283311
4,136,2,1,9,1,1,C,1,S,8,L,10,0.799141,0.340132,0.271813
4,137,2,8,9,1,1,I,6,S,8,L,14,0.569106,0.772864,0.439842
4,138,8,9,9,2,0,I,1,S,7,L,11,0.81269,0.365841,0.297315
4,139,9,2,8,9,1,I,7,L,1,S,11,0.751133,0.427784,0.321323
4,140,9,2,8,1,1,C,7,L,7,L,9,0.771246,0.325658,0.251162
4,141,2,9,8,2,1,I,7,L,6,S,12,0.505969,0.761451,0.385271
4,142,2,9,8,1,1,I,7,L,7,L,12,0.513951,0.754872,0.387967
4,143,2,8,2,1,1,I,6,S,1,S,10,0.38898,0.751481,0.292311
4,144,8,9,8,9,0,C,1,S,1,S,23,0.76423,0.622557,0.475777
5,1,2,9,2,1,1,I,7,L,1,S,9,0.341995,0.764976,0.261618
5,2,2,9,2,8,1,C,7,L,6,S,8,0.28138,0.771485,0.21708
5,3,2,9,1,9,1,C,7,L,8,L,8,0.257664,0.803552,0.207046
5,4,1,9,1,8,1,C,8,L,7,L,8,0.289236,0.758443,0.219369
5,5,2,9,2,9,1,C,7,L,7,L,8,0.279422,0.775812,0.216779
5,6,2,8,1,9,1,C,6,S,8,L,8,0.258156,0.802461,0.20716
5,7,9,1,9,1,1,C,8,L,8,L,8,0.789408,0.267942,0.211516
5,8,9,1,9,8,1,C,8,L,1,S,9,0.789009,0.319032,0.251719
5,9,2,1,2,8,0,I,1,S,6,S,13,0.468154,0.763292,0.357338
5,10,2,8,9,8,1,I,6,S,1,S,9,0.346579,0.756132,0.26206
5,11,8,9,8,9,1,C,1,S,1,S,15,0.445881,0.764126,0.340709
5,12,8,1,9,2,1,C,7,L,7,L,9,0.855867,0.260638,0.223071
5,13,1,9,8,9,1,C,8,L,1,S,10,0.338693,0.807214,0.273397
5,14,8,1,8,9,1,I,7,L,1,S,9,0.759574,0.344947,0.262013
5,15,1,2,2,8,1,C,1,S,6,S,10,0.371963,0.756366,0.28134
5,16,2,1,8,1,1,C,1,S,7,L,11,0.795664,0.369037,0.293629
5,17,2,1,8,2,1,C,1,S,6,S,12,0.808844,0.376402,0.304451
5,18,1,9,2,9,1,C,8,L,7,L,9,0.274168,0.841678,0.230761
5,19,2,8,1,8,1,C,6,S,7,L,8,0.259734,0.798612,0.207426
5,20,9,2,1,9,1,I,7,L,8,L,14,0.752641,0.587529,0.442198
5,21,8,9,8,1,0,I,1,S,7,L,12,0.757119,0.439313,0.332612
5,22,2,9,9,8,1,I,7,L,1,S,9,0.345987,0.757356,0.262035
5,23,9,1,1,8,1,I,8,L,7,L,11,0.751798,0.503222,0.378322
5,24,9,8,2,1,1,C,1,S,1,S,18,0.776759,0.45701,0.354987
5,25,9,2,8,9,1,I,7,L,1,S,10,0.751378,0.385233,0.289455
5,26,2,1,9,8,1,C,1,S,1,S,14,0.755346,0.442702,0.334393
5,27,9,8,8,1,1,C,1,S,7,L,11,0.762441,0.40182,0.306364
5,28,2,8,8,1,1,I,6,S,7,L,11,0.472894,0.766109,0.362288
5,29,1,8,8,1,1,I,7,L,7,L,12,0.518323,0.751659,0.389602
5,30,2,9,8,9,1,C,7,L,1,S,9,0.32832,0.776696,0.255005
5,31,8,1,9,1,1,C,7,L,8,L,8,0.778793,0.273635,0.213105
5,32,8,1,1,8,1,I,7,L,7,L,12,0.775759,0.51739,0.40137
5,33,1,8,9,2,1,I,7,L,7,L,12,0.482054,0.778278,0.375172
5,34,9,8,1,9,0,I,1,S,8,L,11,0.397115,0.780441,0.309925
5,35,2,8,9,2,1,I,6,S,7,L,11,0.438138,0.791327,0.34671
5,36,9,8,8,9,1,I,1,S,1,S,26,0.76605,0.616752,0.472463
5,37,1,2,9,2,1,I,1,S,7,L,21,0.640964,0.753398,0.482901
5,38,9,8,8,2,1,C,1,S,6,S,12,0.76296,0.419924,0.320385
5,39,8,1,2,8,1,I,7,L,6,S,11,0.768215,0.473148,0.363479
5,40,9,2,9,1,1,C,7,L,8,L,9,0.817546,0.287678,0.23519
5,41,1,2,8,9,1,C,1,S,1,S,13,0.425359,0.765046,0.32542
5,42,8,2,1,9,1,I,6,S,8,L,15,0.758122,0.599332,0.454367
5,43,2,1,2,1,1,C,1,S,1,S,15,0.7746,0.443231,0.343327
5,44,8,9,1,2,1,C,1,S,1,S,11,0.400117,0.757662,0.303153
5,45,2,9,9,2,1,I,7,L,7,L,11,0.437413,0.79267,0.346725
5,46,9,8,9,8,1,C,1,S,1,S,17,0.795943,0.433483,0.345028
5,47,2,8,2,9,1,C,6,S,7,L,8,0.279915,0.774721,0.216856
5,48,8,1,1,9,1,I,7,L,8,L,12,0.773079,0.522387,0.403846
5,49,8,9,1,9,1,C,1,S,8,L,10,0.374839,0.760551,0.285084
5,50,8,1,9,8,1,C,7,L,1,S,9,0.777241,0.325607,0.253075
5,51,9,1,8,2,1,C,8,L,6,S,8,0.751372,0.29676,0.222977
5,52,1,9,9,8,1,I,8,L,1,S,10,0.364079,0.780055,0.284002
5,53,2,1,9,1,1,C,1,S,8,L,11,0.806736,0.361028,0.291254
5,54,9,2,2,9,1,I,7,L,7,L,13,0.75072,0.553082,0.41521
5,55,2,8,2,1,1,I,6,S,1,S,9,0.342587,0.763753,0.261652
5,56,1,8,2,1,1,I,7,L,1,S,10,0.358577,0.788442,0.282718
5,57,2,9,8,1,1,I,7,L,7,L,11,0.472169,0.767452,0.362367
5,58,8,2,9,8,1,C,6,S,1,S,10,0.756819,0.370537,0.28043
5,59,1,2,1,9,1,C,1,S,8,L,10,0.34196,0.797392,0.272676
5,60,2,8,1,2,1,C,6,S,1,S,8,0.291597,0.755747,0.220374
5,61,8,1,2,9,1,I,7,L,7,L,11,0.764767,0.479481,0.366692
5,62,8,9,2,1,1,I,1,S,1,S,18,0.481459,0.769729,0.370593
5,63,2,9,1,2,1,C,7,L,1,S,8,0.291105,0.756838,0.220319
5,64,8,2,9,1,1,C,6,S,8,L,9,0.800191,0.298356,0.238742
5,65,1,2,9,8,1,I,1,S,1,S,15,0.465302,0.770425,0.358481
5,66,1,8,2,8,1,C,7,L,6,S,9,0.277483,0.834983,0.231694
5,67,1,8,9,1,1,I,7,L,8,L,13,0.533269,0.776394,0.414027
5,68,1,8,2,9,1,C,7,L,7,L,9,0.274936,0.840196,0.231
5,69,2,1,2,9,0,I,1,S,7,L,13,0.464269,0.769872,0.357427
5,70,2,1,8,9,1,I,1,S,1,S,18,0.775368,0.510878,0.396118
5,71,1,8,8,2,1,I,7,L,6,S,11,0.460454,0.75098,0.345792
5,72,8,9,1,8,1,C,1,S,7,L,10,0.377125,0.755807,0.285034
5,73,9,8,9,1,1,C,1,S,8,L,11,0.773513,0.393811,0.304618
5,74,9,2,8,2,1,C,7,L,6,S,9,0.769518,0.32309,0.248623
5,75,9,2,9,2,1,C,7,L,7,L,9,0.781189,0.314224,0.245469
5,76,9,1,2,9,1,I,8,L,7,L,11,0.777413,0.471859,0.366829
5,77,9,2,1,8,1,I,7,L,7,L,14,0.755446,0.582652,0.440162
5,78,8,2,1,8,1,I,6,S,7,L,15,0.760919,0.594581,0.452428
5,79,9,1,8,9,1,I,8,L,1,S,9,0.771342,0.338373,0.261001
5,80,1,9,1,2,1,C,8,L,1,S,9,0.288707,0.818353,0.236264
5,81,8,9,2,9,1,C,1,S,7,L,11,0.381407,0.786615,0.30002
5,82,2,9,8,2,1,I,7,L,6,S,10,0.417489,0.756941,0.316014
5,83,8,1,2,1,1,C,7,L,1,S,9,0.773249,0.333228,0.257668
5,84,9,8,1,8,0,I,1,S,7,L,11,0.399637,0.775506,0.309921
5,85,1,2,8,2,1,I,1,S,6,S,21,0.629713,0.763012,0.480479
5,86,2,1,1,2,0,I,1,S,1,S,14,0.493678,0.757389,0.373906
5,87,9,2,1,2,1,I,7,L,1,S,13,0.771135,0.523034,0.40333
5,88,1,9,8,2,1,I,8,L,6,S,11,0.459468,0.752719,0.345851
5,89,8,2,8,2,1,C,6,S,6,S,9,0.752164,0.333768,0.251048
5,90,1,8,1,2,1,C,7,L,1,S,9,0.289475,0.81687,0.236464
5,91,2,1,1,9,0,I,1,S,8,L,12,0.431512,0.780717,0.336889
5,92,9,1,8,1,1,C,8,L,7,L,8,0.78176,0.273541,0.213843
5,93,9,1,9,2,1,C,8,L,7,L,8,0.76024,0.289778,0.220301
5,94,2,9,1,8,1,C,7,L,7,L,8,0.259241,0.799704,0.207316
5,95,8,2,8,9,1,I,6,S,1,S,11,0.793137,0.38026,0.301598
5,96,2,8,9,1,1,I,6,S,8,L,11,0.483965,0.7581,0.366894
5,97,1,9,1,9,1,C,8,L,8,L,8,0.287659,0.762291,0.21928
5,98,8,2,2,9,1,I,6,S,7,L,14,0.757883,0.569462,0.431586
5,99,9,1,2,8,1,I,8,L,6,S,11,0.780861,0.465525,0.36351
5,100,1,8,1,9,1,C,7,L,8,L,8,0.288275,0.761035,0.219388
5,101,1,2,8,1,1,I,1,S,7,L,22,0.647194,0.758626,0.490978
5,102,1,8,8,9,1,C,7,L,1,S,10,0.339586,0.805569,0.27356
5,103,8,2,8,1,1,C,6,S,7,L,9,0.790936,0.305006,0.24124
5,104,9,2,2,8,1,I,7,L,6,S,13,0.754605,0.546503,0.412394
5,105,9,1,1,2,1,I,8,L,1,S,10,0.750818,0.435986,0.327346
5,106,8,2,9,2,1,C,6,S,7,L,9,0.763835,0.324902,0.248171
5,107,8,9,2,8,1,C,1,S,6,S,11,0.384854,0.780282,0.300295
5,108,9,2,2,1,1,C,7,L,1,S,10,0.770369,0.368106,0.283577
5,109,9,8,2,8,0,I,1,S,6,S,12,0.417852,0.781557,0.326575
5,110,1,2,9,1,1,I,1,S,8,L,22,0.653214,0.75355,0.492229
5,111,1,2,2,1,1,I,1,S,1,S,14,0.452347,0.761566,0.344492
5,112,8,2,1,2,1,I,6,S,1,S,14,0.778365,0.540048,0.420355
5,113,2,9,9,1,1,I,7,L,8,L,11,0.483241,0.759443,0.366994
5,114,2,1,1,8,0,I,1,S,7,L,12,0.434192,0.77572,0.336812
5,115,2,8,8,2,1,I,6,S,6,S,10,0.418159,0.755636,0.315976
5,116,8,2,2,8,1,I,6,S,6,S,14,0.761837,0.562977,0.428897
5,117,1,8,1,8,1,C,7,L,7,L,8,0.289852,0.757186,0.219472
5,118,8,9,9,2,0,I,1,S,7,L,13,0.75257,0.462396,0.347985
5,119,9,8,1,2,0,I,1,S,1,S,12,0.433984,0.758121,0.329012
5,120,9,8,2,9,0,I,1,S,7,L,12,0.41413,0.788103,0.326377
5,121,1,9,2,8,1,C,8,L,6,S,9,0.276715,0.836466,0.231463
5,122,2,8,8,9,1,C,6,S,1,S,9,0.328912,0.775472,0.255062
5,123,8,9,9,8,1,I,1,S,1,S,20,0.551454,0.752441,0.414936
5,124,9,1,1,9,1,I,8,L,8,L,12,0.785656,0.514558,0.404265
5,125,1,9,9,2,1,I,8,L,7,L,12,0.481007,0.780055,0.375212
5,126,1,9,2,1,1,I,8,L,1,S,10,0.357684,0.790086,0.282601
5,127,9,2,8,1,1,C,7,L,7,L,9,0.808291,0.294328,0.237902
5,128,1,2,1,2,1,C,1,S,1,S,11,0.356033,0.808357,0.287802
5,129,1,8,9,8,1,I,7,L,1,S,10,0.364973,0.778411,0.284099
5,130,1,2,2,9,1,C,1,S,7,L,10,0.368909,0.762261,0.281205
5,131,2,1,9,2,1,C,1,S,7,L,11,0.760908,0.394255,0.299992
5,132,8,9,9,1,0,I,1,S,8,L,12,0.768393,0.431016,0.33119
5,133,8,2,2,1,1,C,6,S,1,S,10,0.750424,0.380569,0.285588
5,134,8,1,8,2,1,C,7,L,6,S,9,0.844195,0.269503,0.227513
5,135,9,1,2,1,1,C,8,L,1,S,9,0.785017,0.326653,0.256428
5,136,8,1,8,1,1,C,7,L,7,L,8,0.771145,0.279233,0.215329
5,137,1,9,9,1,1,I,8,L,8,L,13,0.53219,0.778165,0.414131
5,138,2,8,2,8,1,C,6,S,6,S,8,0.281873,0.770394,0.217153
5,139,1,2,1,8,1,C,1,S,7,L,10,0.344246,0.792649,0.272866
5,140,1,9,8,1,1,I,8,L,7,L,12,0.517276,0.753436,0.389734
5,141,9,2,9,8,1,C,7,L,1,S,10,0.776764,0.358074,0.27814
5,142,8,1,1,2,1,I,7,L,1,S,11,0.783477,0.450528,0.352979
5,143,8,9,8,2,0,I,1,S,6,S,14,0.759799,0.474906,0.360833
5,144,9,8,9,2,1,C,1,S,7,L,12,0.780577,0.406967,0.317669
6,1,9,8,2,9,0,I,1,S,7,L,10,0.358697,0.7795,0.279604
6,2,2,9,1,8,1,C,7,L,7,L,9,0.298551,0.810789,0.242062
6,3,1,8,8,9,1,C,7,L,1,S,9,0.320151,0.774723,0.248029
6,4,8,9,8,1,0,I,1,S,7,L,12,0.786893,0.4148,0.326403
6,5,9,1,8,2,1,C,8,L,6,S,9,0.802419,0.300619,0.241222
6,6,2,8,2,1,1,I,6,S,1,S,11,0.375908,0.790526,0.297165
6,7,2,1,8,1,1,C,1,S,7,L,9,0.755399,0.335101,0.253135
6,8,8,1,9,8,1,C,7,L,1,S,11,0.768986,0.429748,0.33047
6,9,9,1,1,8,1,I,8,L,7,L,14,0.763019,0.588539,0.449066
6,10,8,9,2,8,1,C,1,S,6,S,10,0.386083,0.754459,0.291283
6,11,2,9,2,9,1,C,7,L,7,L,9,0.309721,0.794863,0.246186
6,12,9,2,2,1,1,C,7,L,1,S,11,0.770112,0.400079,0.308106
6,13,9,2,8,9,1,I,7,L,1,S,14,0.774139,0.531978,0.411825
6,14,2,9,9,1,1,I,7,L,8,L,17,0.610213,0.771721,0.470915
6,15,9,1,8,9,1,I,8,L,1,S,11,0.752821,0.457461,0.344386
6,16,1,2,8,1,1,I,1,S,7,L,21,0.646463,0.761892,0.492535
6,17,8,1,2,8,1,I,7,L,6,S,14,0.768525,0.5767,0.443208
6,18,9,8,8,1,1,C,1,S,7,L,13,0.77068,0.459567,0.354179
6,19,9,8,1,8,0,I,1,S,7,L,10,0.34684,0.796125,0.276128
6,20,1,2,9,8,1,I,1,S,1,S,11,0.399748,0.755296,0.301928
6,21,1,8,1,2,1,C,7,L,1,S,9,0.308412,0.791445,0.244091
6,22,9,2,8,1,1,C,7,L,7,L,9,0.769914,0.326975,0.251743
6,23,1,9,2,8,1,C,8,L,6,S,9,0.273929,0.844589,0.231358
6,24,8,2,2,1,1,C,6,S,1,S,11,0.754919,0.410717,0.310058
6,25,8,1,8,2,1,C,7,L,6,S,9,0.794271,0.305912,0.242977
6,26,9,2,1,2,1,I,7,L,1,S,14,0.755401,0.557785,0.421352
6,27,8,9,2,1,1,I,1,S,1,S,18,0.443183,0.794461,0.352092
6,28,1,2,9,2,1,I,1,S,7,L,20,0.642837,0.752891,0.483986
6,29,9,2,2,9,1,I,7,L,7,L,17,0.774807,0.617206,0.478215
6,30,8,2,8,2,1,C,6,S,6,S,10,0.814962,0.325937,0.265626
6,31,9,8,2,8,0,I,1,S,6,S,10,0.36193,0.775521,0.280684
6,32,9,2,9,8,1,C,7,L,1,S,13,0.773511,0.489217,0.378415
6,33,2,9,8,2,1,I,7,L,6,S,15,0.571306,0.760358,0.434397
6,34,2,1,1,9,1,I,1,S,8,L,18,0.765817,0.634924,0.486236
6,35,9,2,9,1,1,C,7,L,8,L,9,0.779327,0.319871,0.249284
6,36,8,1,9,1,1,C,7,L,8,L,9,0.837589,0.273863,0.229385
6,37,8,9,8,2,0,I,1,S,6,S,13,0.780607,0.436066,0.340396
6,38,2,1,2,8,1,I,1,S,6,S,17,0.756111,0.629241,0.475776
6,39,1,8,2,8,1,C,7,L,6,S,8,0.296054,0.750336,0.22214
6,40,1,9,1,8,1,C,8,L,7,L,8,0.295836,0.756175,0.223703
6,41,8,9,9,2,0,I,1,S,7,L,12,0.758151,0.435556,0.330217
6,42,8,1,2,1,1,C,7,L,1,S,10,0.776392,0.365995,0.284155
6,43,2,8,2,9,1,C,6,S,7,L,9,0.290654,0.814487,0.236734
6,44,8,9,1,2,1,C,1,S,1,S,12,0.408322,0.783582,0.319954
6,45,2,9,1,9,1,C,7,L,8,L,9,0.296025,0.81387,0.240926
6,46,9,1,9,8,1,C,8,L,1,S,11,0.778488,0.423364,0.329584
6,47,1,8,2,1,1,I,7,L,1,S,10,0.360095,0.780329,0.280992
6,48,1,8,9,1,1,I,7,L,8,L,13,0.552714,0.753749,0.416608
6,49,9,1,2,1,1,C,8,L,1,S,10,0.785421,0.36005,0.282791
6,50,2,1,8,2,1,C,1,S,6,S,10,0.810527,0.326878,0.264943
6,51,1,9,9,8,1,I,8,L,1,S,10,0.318592,0.827611,0.26367
6,52,9,2,1,8,1,I,7,L,7,L,17,0.764784,0.629623,0.481525
6,53,8,9,9,8,1,I,1,S,1,S,13,0.433284,0.767695,0.33263
6,54,8,1,2,9,1,I,7,L,7,L,14,0.765473,0.580177,0.44411
6,55,8,9,9,1,0,I,1,S,8,L,11,0.753302,0.418229,0.315053
6,56,1,2,1,2,1,C,1,S,1,S,11,0.357959,0.812633,0.290889
6,57,1,9,2,9,1,C,8,L,7,L,9,0.270856,0.848383,0.22979
6,58,2,1,1,8,1,I,1,S,7,L,18,0.767638,0.633042,0.485947
6,59,8,2,2,9,1,I,6,S,7,L,17,0.760028,0.628714,0.47784
6,60,9,8,2,1,0,C,1,S,1,S,15,0.437286,0.778102,0.340253
6,61,8,2,8,9,1,I,6,S,1,S,14,0.757249,0.544339,0.4122
6,62,1,9,8,1,1,I,8,L,7,L,14,0.558619,0.775294,0.433094
6,63,2,9,9,2,1,I,7,L,7,L,16,0.58355,0.773982,0.451657
6,64,2,1,9,8,1,C,1,S,1,S,13,0.750417,0.50376,0.37803
6,65,1,8,8,1,1,I,7,L,7,L,13,0.54169,0.762366,0.412966
6,66,8,9,8,9,1,C,1,S,1,S,12,0.425869,0.758512,0.323027
6,67,2,8,1,8,1,C,6,S,7,L,9,0.279484,0.830413,0.232087
6,68,2,9,8,9,1,C,7,L,1,S,10,0.342785,0.791694,0.271381
6,69,2,1,2,1,1,C,1,S,1,S,12,0.807618,0.390523,0.315393
6,70,9,8,1,2,0,I,1,S,1,S,11,0.395245,0.761585,0.301012
6,71,2,9,9,8,1,I,7,L,1,S,10,0.364661,0.76332,0.278353
6,72,9,2,1,9,1,I,7,L,8,L,17,0.762822,0.631684,0.481862
6,73,2,9,2,1,1,I,7,L,1,S,11,0.400409,0.762602,0.305353
6,74,1,8,9,8,1,I,7,L,1,S,9,0.337811,0.752612,0.25424
6,75,2,9,8,1,1,I,7,L,7,L,16,0.608804,0.754178,0.459147
6,76,1,8,1,8,1,C,7,L,7,L,8,0.283174,0.768207,0.217536
6,77,1,9,8,2,1,I,8,L,6,S,13,0.51237,0.779184,0.39923
6,78,1,2,1,8,1,C,1,S,7,L,9,0.346205,0.754667,0.261269
6,79,9,1,9,1,1,C,8,L,8,L,9,0.845737,0.26857,0.227139
6,80,9,1,2,9,1,I,8,L,7,L,14,0.774656,0.573553,0.444306
6,81,8,2,9,8,1,C,6,S,1,S,13,0.756576,0.501364,0.37932
6,82,9,8,1,9,0,I,1,S,8,L,10,0.344228,0.799282,0.275135
6,83,8,2,2,8,1,I,6,S,6,S,17,0.76256,0.625997,0.47736
6,84,9,8,8,2,1,C,1,S,6,S,15,0.756477,0.51256,0.38774
6,85,2,1,1,2,1,I,1,S,1,S,15,0.760411,0.572067,0.435006
6,86,9,1,8,1,1,C,8,L,7,L,9,0.836324,0.275674,0.230553
6,87,2,1,8,9,1,I,1,S,1,S,14,0.750846,0.547069,0.410764
6,88,2,8,8,9,1,C,6,S,1,S,10,0.320644,0.816007,0.261648
6,89,1,9,8,9,1,C,8,L,1,S,9,0.334656,0.75987,0.254295
6,90,8,2,8,1,1,C,6,S,7,L,9,0.759044,0.334695,0.254048
6,91,1,2,2,9,1,C,1,S,7,L,10,0.331508,0.817443,0.270989
6,92,9,2,8,2,1,C,7,L,6,S,10,0.82825,0.316614,0.262235
6,93,1,8,9,2,1,I,7,L,7,L,13,0.512959,0.783531,0.40192
6,94,2,8,8,2,1,I,6,S,6,S,14,0.545486,0.761996,0.415658
6,95,1,2,2,8,1,C,1,S,6,S,10,0.334741,0.813465,0.2723
6,96,2,9,2,8,1,C,7,L,6,S,9,0.312794,0.791069,0.247442
6,97,2,8,1,2,1,C,6,S,1,S,10,0.306497,0.836379,0.256347
6,98,8,1,1,8,1,I,7,L,7,L,14,0.753837,0.595162,0.448655
6,99,2,1,9,1,1,C,1,S,8,L,9,0.764812,0.327997,0.250856
6,100,1,2,8,2,1,I,1,S,6,S,20,0.631866,0.762472,0.48178
6,101,1,9,1,2,1,C,8,L,1,S,9,0.322917,0.776592,0.250775
6,102,2,8,8,1,1,I,6,S,7,L,15,0.588234,0.755939,0.444669
6,103,9,8,9,2,1,C,1,S,7,L,14,0.761148,0.487546,0.371094
6,104,2,8,9,8,1,I,6,S,1,S,10,0.34252,0.787634,0.26978
6,105,8,9,1,9,1,C,1,S,8,L,10,0.368381,0.77822,0.286681
6,106,1,2,1,9,1,C,1,S,8,L,9,0.343678,0.757748,0.260422
6,107,1,9,2,1,1,I,8,L,1,S,10,0.375897,0.763499,0.286997
6,108,8,2,9,1,1,C,6,S,8,L,9,0.768457,0.327591,0.251739
6,109,9,2,2,8,1,I,7,L,6,S,16,0.752583,0.623373,0.46914
6,110,1,2,9,1,1,I,1,S,8,L,21,0.652599,0.756462,0.493667
6,111,2,8,9,2,1,I,6,S,7,L,15,0.561472,0.776519,0.435994
6,112,8,9,2,9,1,C,1,S,7,L,10,0.38285,0.758438,0.290368
6,113,8,2,1,9,1,I,6,S,8,L,18,0.772156,0.631636,0.487722
6,114,8,1,9,2,1,C,7,L,7,L,9,0.806049,0.296704,0.239158
6,115,2,8,9,1,1,I,6,S,8,L,16,0.593294,0.773554,0.458945
6,116,8,2,1,8,1,I,6,S,7,L,17,0.750005,0.64113,0.480851
6,117,2,1,2,9,1,I,1,S,7,L,17,0.753579,0.631957,0.47623
6,118,9,8,9,8,0,C,1,S,1,S,12,0.411706,0.762239,0.313818
6,119,1,9,9,2,1,I,8,L,7,L,13,0.52943,0.766095,0.405593
6,120,8,1,1,9,1,I,7,L,8,L,14,0.751458,0.597811,0.44923
6,121,8,1,8,1,1,C,7,L,7,L,9,0.828176,0.280967,0.23269
6,122,8,1,1,2,1,I,7,L,1,S,12,0.766078,0.492906,0.377605
6,123,1,2,2,1,1,I,1,S,1,S,13,0.429475,0.771327,0.331266
6,124,2,8,1,9,1,C,6,S,8,L,9,0.276958,0.833494,0.230843
6,125,2,8,2,8,1,C,6,S,6,S,9,0.293727,0.810693,0.238122
6,126,1,9,1,9,1,C,8,L,8,L,8,0.293482,0.759028,0.222761
6,127,9,1,2,8,1,I,8,L,6,S,14,0.777707,0.570077,0.443353
6,128,1,9,9,1,1,I,8,L,8,L,14,0.569197,0.766848,0.436487
6,129,1,2,8,9,1,C,1,S,1,S,11,0.374081,0.789393,0.295297
6,130,1,8,1,9,1,C,7,L,8,L,8,0.280821,0.77106,0.21653
6,131,8,2,9,2,1,C,6,S,7,L,10,0.829094,0.315179,0.261313
6,132,2,1,9,2,1,C,1,S,7,L,10,0.824659,0.316119,0.260691
6,133,8,9,1,8,1,C,1,S,7,L,10,0.370993,0.775062,0.287543
6,134,9,1,1,2,1,I,8,L,1,S,12,0.775706,0.486282,0.377212
6,135,9,8,9,1,1,C,1,S,8,L,12,0.755278,0.448427,0.338687
6,136,9,1,1,9,1,I,8,L,8,L,14,0.760641,0.591187,0.449681
6,137,1,8,8,2,1,I,7,L,6,S,12,0.492325,0.762421,0.375359
6,138,8,1,8,9,1,I,7,L,1,S,12,0.783625,0.467837,0.366608
6,139,9,1,9,2,1,C,8,L,7,L,9,0.814197,0.291411,0.237266
6,140,2,9,1,2,1,C,7,L,1,S,10,0.328638,0.812065,0.266876
6,141,8,2,1,2,1,I,6,S,1,S,15,0.766921,0.569089,0.436446
6,142,1,8,2,9,1,C,7,L,7,L,8,0.293254,0.753741,0.221037
6,143,9,8,8,9,0,I,1,S,1,S,12,0.383018,0.800749,0.306701
6,144,9,2,9,2,1,C,7,L,7,L,10,0.842382,0.305855,0.257647
7,1,8,2,9,1,1,C,6,S,8,L,9,0.843474,0.271719,0.229188
7,2,1,9,1,8,1,C,8,L,7,L,8,0.268743,0.785157,0.211005
7,3,9,1,9,1,1,C,8,L,8,L,8,0.750353,0.298667,0.224105
7,4,2,9,8,9,1,C,7,L,1,S,10,0.346772,0.793761,0.275254
7,5,2,8,1,2,1,C,6,S,1,S,9,0.333912,0.756829,0.252714
7,6,8,9,8,2,1,I,1,S,6,S,23,0.640529,0.759276,0.486338
7,7,9,2,9,2,1,C,7,L,7,L,9,0.830479,0.282667,0.234749
7,8,2,8,1,8,1,C,6,S,7,L,9,0.279433,0.831673,0.232397
7,9,9,1,1,8,1,I,8,L,7,L,13,0.758481,0.567911,0.430749
7,10,2,9,8,2,1,I,7,L,6,S,12,0.456698,0.78879,0.360239
7,11,8,1,1,2,1,I,7,L,1,S,12,0.774132,0.489311,0.378792
7,12,8,1,2,9,1,I,7,L,7,L,12,0.772555,0.491346,0.379592
7,13,1,8,1,2,1,C,7,L,1,S,9,0.306046,0.794665,0.243204
7,14,8,2,1,8,1,I,6,S,7,L,14,0.768964,0.579707,0.445773
7,15,9,1,2,1,1,C,8,L,1,S,10,0.8291,0.322867,0.267689
7,16,1,2,1,2,1,C,1,S,1,S,12,0.413624,0.775896,0.320929
7,17,2,1,1,2,1,I,1,S,1,S,20,0.764287,0.629746,0.481307
7,18,9,8,2,9,1,I,1,S,7,L,20,0.757986,0.635806,0.481933
7,19,1,2,2,1,0,I,1,S,1,S,19,0.768515,0.491691,0.377872
7,20,8,1,8,2,1,C,7,L,6,S,9,0.781368,0.31877,0.249077
7,21,1,9,1,9,1,C,8,L,8,L,8,0.284885,0.763321,0.217459
7,22,1,8,2,8,1,C,7,L,6,S,9,0.278586,0.831012,0.231509
7,23,8,9,1,9,1,C,1,S,8,L,10,0.368615,0.763739,0.281526
7,24,8,9,2,8,1,C,1,S,6,S,11,0.352815,0.816119,0.287939
7,25,1,8,9,2,1,I,7,L,7,L,13,0.516401,0.782967,0.404325
7,26,8,1,9,1,1,C,7,L,8,L,9,0.845438,0.270828,0.228968
7,27,8,2,1,2,1,I,6,S,1,S,12,0.77175,0.490602,0.378622
7,28,1,8,9,8,1,I,7,L,1,S,10,0.333663,0.808896,0.269898
7,29,9,2,2,9,1,I,7,L,7,L,12,0.787446,0.481024,0.37878
7,30,1,2,2,8,1,C,1,S,6,S,11,0.397274,0.770813,0.306224
7,31,8,2,8,9,1,I,6,S,1,S,10,0.771686,0.374915,0.289317
7,32,8,9,8,9,1,C,1,S,1,S,14,0.415623,0.791288,0.328878
7,33,9,8,9,8,1,C,1,S,1,S,16,0.769557,0.524625,0.403729
7,34,8,1,2,1,1,C,7,L,1,S,10,0.812862,0.333244,0.270881
7,35,1,8,8,9,1,C,7,L,1,S,10,0.347212,0.795122,0.276076
7,36,1,9,9,8,1,I,8,L,1,S,9,0.337936,0.757522,0.255994
7,37,9,1,9,2,1,C,8,L,7,L,9,0.832354,0.281832,0.234584
7,38,8,9,1,8,1,C,1,S,7,L,10,0.34926,0.789861,0.275867
7,39,2,8,8,9,1,C,6,S,1,S,10,0.379013,0.751472,0.284817
7,40,2,1,2,1,1,C,1,S,1,S,12,0.750884,0.422733,0.317423
7,41,9,1,2,8,1,I,8,L,6,S,12,0.756449,0.523747,0.396188
7,42,9,1,1,9,1,I,8,L,8,L,13,0.778289,0.542717,0.422391
7,43,1,2,1,9,1,C,1,S,8,L,11,0.386661,0.786676,0.304177
7,44,2,9,2,8,1,C,7,L,6,S,9,0.277987,0.82984,0.230685
7,45,9,8,2,1,1,C,1,S,1,S,13,0.809203,0.392939,0.317967
7,46,9,1,2,9,1,I,8,L,7,L,11,0.750644,0.474482,0.356167
7,47,1,8,2,9,1,C,7,L,7,L,9,0.304867,0.796135,0.242715
7,48,8,1,1,8,1,I,7,L,7,L,14,0.771316,0.578333,0.446078
7,49,2,1,8,1,1,C,1,S,7,L,11,0.827404,0.34448,0.285024
7,50,1,2,9,8,1,I,1,S,1,S,15,0.458922,0.760696,0.3491
7,51,1,2,8,2,0,I,1,S,6,S,13,0.755101,0.45011,0.339879
7,52,9,8,8,1,1,C,1,S,7,L,11,0.823684,0.348151,0.286766
7,53,1,8,2,1,1,I,7,L,1,S,10,0.386203,0.754515,0.291396
7,54,8,9,9,1,0,I,1,S,8,L,13,0.769946,0.465409,0.35834
7,55,2,9,9,8,1,I,7,L,1,S,10,0.333223,0.807535,0.26909
7,56,2,1,9,8,1,C,1,S,1,S,16,0.776126,0.519014,0.40282
7,57,1,2,1,8,1,C,1,S,7,L,10,0.381959,0.757689,0.289406
7,58,2,8,2,1,1,I,6,S,1,S,11,0.403789,0.769209,0.310598
7,59,8,2,1,9,1,I,6,S,8,L,13,0.759087,0.555672,0.421804
7,60,9,8,9,1,1,C,1,S,8,L,10,0.781066,0.356162,0.278186
7,61,2,9,2,1,1,I,7,L,1,S,10,0.385764,0.753154,0.29054
7,62,1,9,2,9,1,C,8,L,7,L,9,0.281546,0.826686,0.23275
7,63,1,2,9,1,0,I,1,S,8,L,11,0.757749,0.412018,0.312207
7,64,8,1,8,1,1,C,7,L,7,L,9,0.815322,0.292736,0.238674
7,65,9,2,2,1,1,C,7,L,1,S,10,0.827043,0.323854,0.267841
7,66,2,8,9,1,1,I,6,S,8,L,15,0.586266,0.766339,0.449279
7,67,1,2,2,9,1,C,1,S,7,L,12,0.412047,0.777931,0.320544
7,68,8,1,1,9,1,I,7,L,8,L,13,0.761473,0.554325,0.422104
7,69,2,1,8,9,1,I,1,S,1,S,14,0.750269,0.481955,0.361596
7,70,8,1,9,2,1,C,7,L,7,L,9,0.817538,0.291107,0.237991
7,71,8,9,9,8,1,I,1,S,1,S,13,0.420764,0.768327,0.323284
7,72,9,2,8,2,1,C,7,L,6,S,9,0.794309,0.31033,0.246498
7,73,9,2,1,9,1,I,7,L,8,L,13,0.776088,0.543946,0.42215
7,74,9,1,8,9,1,I,8,L,1,S,10,0.790109,0.363474,0.287184
7,75,1,8,9,1,1,I,7,L,8,L,13,0.551345,0.756663,0.417182
7,76,9,8,8,9,1,I,1,S,1,S,15,0.779319,0.478206,0.372675
7,77,9,2,1,8,1,I,7,L,7,L,13,0.756279,0.569139,0.430428
7,78,2,8,9,2,1,I,6,S,7,L,14,0.554829,0.764565,0.424203
7,79,2,8,2,9,1,C,6,S,7,L,9,0.332732,0.758298,0.25231
7,80,2,1,1,8,0,I,1,S,7,L,13,0.51271,0.751554,0.385329
7,81,1,9,8,2,1,I,8,L,6,S,11,0.427701,0.784027,0.335329
7,82,8,9,2,1,1,I,1,S,1,S,18,0.540909,0.756133,0.408999
7,83,8,1,9,8,1,C,7,L,1,S,10,0.760321,0.387625,0.29472
7,84,1,2,8,1,0,I,1,S,7,L,12,0.766842,0.425509,0.326298
7,85,1,8,1,9,1,C,7,L,8,L,9,0.269653,0.844894,0.227828
7,86,2,9,1,2,1,C,7,L,1,S,9,0.305447,0.793494,0.24237
7,87,1,9,8,9,1,C,8,L,1,S,10,0.321664,0.828757,0.266581
7,88,2,8,9,8,1,I,6,S,1,S,10,0.365464,0.765246,0.27967
7,89,1,9,1,2,1,C,8,L,1,S,9,0.282725,0.825216,0.23331
7,90,9,2,8,1,1,C,7,L,7,L,9,0.828263,0.284296,0.235472
7,91,9,8,1,9,1,I,1,S,8,L,21,0.751178,0.657599,0.493974
7,92,9,1,8,1,1,C,8,L,7,L,9,0.830138,0.283461,0.235311
7,93,2,9,1,8,1,C,7,L,7,L,8,0.288239,0.758317,0.218576
7,94,2,8,1,9,1,C,6,S,8,L,9,0.297518,0.807058,0.240115
7,95,2,9,9,1,1,I,7,L,8,L,13,0.551423,0.754837,0.416235
7,96,8,9,8,1,0,I,1,S,7,L,15,0.758148,0.51952,0.393873
7,97,1,2,9,2,0,I,1,S,7,L,12,0.769866,0.423292,0.325878
7,98,8,2,9,8,1,C,6,S,1,S,10,0.758137,0.388689,0.294679
7,99,8,2,8,2,1,C,6,S,6,S,9,0.779405,0.319661,0.249145
7,100,8,2,9,2,1,C,6,S,7,L,9,0.815575,0.291998,0.238146
7,101,9,2,1,2,1,I,7,L,1,S,12,0.789023,0.478989,0.377933
7,102,9,8,9,2,1,C,1,S,7,L,11,0.826569,0.346059,0.286042
7,103,2,9,1,9,1,C,7,L,8,L,9,0.269053,0.843723,0.227006
7,104,1,2,8,9,1,C,1,S,1,S,17,0.446191,0.791158,0.353008
7,105,9,1,8,2,1,C,8,L,6,S,9,0.796184,0.309494,0.246414
7,106,8,2,8,1,1,C,6,S,7,L,9,0.813358,0.293627,0.238824
7,107,1,9,2,1,1,I,8,L,1,S,10,0.360655,0.78815,0.28425
7,108,8,2,2,1,1,C,6,S,1,S,10,0.810678,0.334308,0.271016
7,109,8,9,1,2,1,C,1,S,1,S,11,0.386252,0.771402,0.297956
7,110,2,1,8,2,1,C,1,S,6,S,11,0.77907,0.380184,0.29619
7,111,9,1,1,2,1,I,8,L,1,S,11,0.752139,0.472546,0.35542
7,112,2,1,2,9,1,I,1,S,7,L,20,0.763143,0.631019,0.481558
7,113,9,8,2,8,1,I,1,S,6,S,21,0.758813,0.647593,0.491403
7,114,2,1,9,1,1,C,1,S,8,L,10,0.783838,0.353171,0.276829
7,115,1,8,8,2,1,I,7,L,6,S,12,0.456786,0.790484,0.361082
7,116,2,8,8,2,1,I,6,S,6,S,13,0.495631,0.777167,0.385188
7,117,1,8,1,8,1,C,7,L,7,L,8,0.288965,0.759304,0.219412
7,118,8,9,2,9,1,C,1,S,7,L,11,0.384758,0.773338,0.297548
7,119,2,8,8,1,1,I,6,S,7,L,14,0.551844,0.766839,0.423175
7,120,9,8,1,2,1,I,1,S,1,S,20,0.759131,0.634532,0.481693
7,121,9,2,8,9,1,I,7,L,1,S,10,0.788051,0.364461,0.287214
7,122,1,9,8,1,1,I,8,L,7,L,12,0.481967,0.7868,0.379212
7,123,8,1,8,9,1,I,7,L,1,S,10,0.77387,0.373851,0.289312
7,124,1,9,9,2,1,I,8,L,7,L,12,0.484992,0.784583,0.380517
7,125,1,9,9,1,1,I,8,L,8,L,12,0.520183,0.758612,0.394617
7,126,8,1,2,8,1,I,7,L,6,S,13,0.772505,0.538634,0.416097
7,127,9,8,8,2,1,C,1,S,6,S,11,0.775349,0.383855,0.297622
7,128,2,9,9,2,1,I,7,L,7,L,13,0.516479,0.781141,0.403443
7,129,1,9,2,8,1,C,8,L,6,S,8,0.292473,0.751438,0.219776
7,130,9,2,2,8,1,I,7,L,6,S,12,0.754243,0.524929,0.395924
7,131,8,2,2,9,1,I,6,S,7,L,12,0.770173,0.492637,0.379416
7,132,2,9,8,1,1,I,7,L,7,L,13,0.51343,0.783415,0.402229
7,133,2,1,2,8,1,I,1,S,6,S,21,0.76346,0.643162,0.491029
7,134,9,1,9,8,1,C,8,L,1,S,10,0.77656,0.377248,0.292956
7,135,8,9,9,2,0,I,1,S,7,L,14,0.751848,0.501842,0.377309
7,136,2,9,2,9,1,C,7,L,7,L,9,0.304267,0.794963,0.241881
7,137,9,2,9,1,1,C,7,L,8,L,9,0.858379,0.262388,0.225228
7,138,1,8,8,1,1,I,7,L,7,L,12,0.509367,0.751616,0.382849
7,139,2,1,1,9,1,I,1,S,8,L,21,0.755825,0.653167,0.49368
7,140,2,8,2,8,1,C,6,S,6,S,9,0.306452,0.793175,0.24307
7,141,9,2,9,8,1,C,7,L,1,S,10,0.774502,0.378235,0.292944
7,142,9,8,1,8,0,I,1,S,7,L,13,0.507161,0.756436,0.383635
7,143,8,2,2,8,1,I,6,S,6,S,13,0.770118,0.539981,0.415849
7,144,2,1,9,2,1,C,1,S,7,L,10,0.75198,0.37618,0.28288
8,1,1,8,2,8,1,C,7,L,6,S,8,0.288297,0.76012,0.21914
8,2,8,1,9,8,1,C,7,L,1,S,9,0.803338,0.307421,0.246963
8,3,2,8,1,2,1,C,6,S,1,S,10,0.312946,0.83237,0.260487
8,4,8,2,8,1,1,C,6,S,7,L,9,0.809758,0.295648,0.239403
8,5,1,2,9,8,1,I,1,S,1,S,11,0.390549,0.791016,0.308931
8,6,8,2,8,2,1,C,6,S,6,S,9,0.769477,0.326371,0.251135
8,7,1,9,8,1,1,I,8,L,7,L,11,0.480589,0.767329,0.368769
8,8,2,1,1,8,1,I,1,S,7,L,15,0.77118,0.575337,0.443688
8,9,9,2,1,2,1,I,7,L,1,S,12,0.757585,0.477496,0.361744
8,10,9,1,2,8,1,I,8,L,6,S,11,0.790895,0.446303,0.352979
8,11,9,8,2,8,0,I,1,S,6,S,13,0.465414,0.75935,0.353412
8,12,8,1,1,9,1,I,7,L,8,L,12,0.767517,0.54244,0.416332
8,13,2,9,8,2,1,I,7,L,6,S,12,0.500288,0.755829,0.378132
8,14,2,8,8,9,1,C,6,S,1,S,9,0.318597,0.776191,0.247292
8,15,9,1,2,1,1,C,8,L,1,S,9,0.795374,0.310045,0.246602
8,16,9,8,1,9,0,I,1,S,8,L,11,0.400988,0.788519,0.316187
8,17,8,2,9,1,1,C,6,S,8,L,9,0.805141,0.297995,0.239928
8,18,1,9,1,9,1,C,8,L,8,L,8,0.232267,0.841069,0.195352
8,19,8,1,8,9,1,I,7,L,1,S,10,0.758054,0.4284,0.324751
8,20,9,1,9,8,1,C,8,L,1,S,9,0.798074,0.309715,0.247175
8,21,8,2,1,2,1,I,6,S,1,S,12,0.767904,0.47146,0.362036
8,22,1,8,1,8,1,C,7,L,7,L,8,0.281608,0.772543,0.217554
8,23,1,9,2,1,1,I,8,L,1,S,9,0.345764,0.760313,0.262889
8,24,2,8,1,8,1,C,6,S,7,L,9,0.303909,0.798588,0.242698
8,25,8,1,9,2,1,C,7,L,7,L,8,0.76001,0.290691,0.220928
8,26,9,1,1,8,1,I,8,L,7,L,11,0.77936,0.465629,0.362892
8,27,2,9,9,1,1,I,7,L,8,L,13,0.549068,0.753819,0.413898
8,28,9,2,9,2,1,C,7,L,7,L,9,0.756311,0.333429,0.252176
8,29,9,1,1,2,1,I,8,L,1,S,10,0.787047,0.387493,0.304975
8,30,1,8,2,1,1,I,7,L,1,S,10,0.340032,0.818328,0.278257
8,31,9,8,2,9,0,I,1,S,7,L,11,0.406954,0.77751,0.316411
8,32,1,8,1,2,1,C,7,L,1,S,9,0.286401,0.82735,0.236954
8,33,8,9,9,1,0,I,1,S,8,L,11,0.758299,0.410694,0.311429
8,34,8,1,1,2,1,I,7,L,1,S,10,0.792628,0.384871,0.305059
8,35,2,1,2,8,1,I,1,S,6,S,14,0.756952,0.55673,0.421418
8,36,2,9,1,2,1,C,7,L,1,S,9,0.33334,0.759719,0.253244
8,37,2,8,9,1,1,I,6,S,8,L,14,0.566875,0.76174,0.431812
8,38,8,1,2,8,1,I,7,L,6,S,10,0.751129,0.436727,0.328038
8,39,1,8,1,9,1,C,7,L,8,L,8,0.240059,0.83072,0.199422
8,40,2,9,2,9,1,C,7,L,7,L,8,0.285087,0.762807,0.217466
8,41,1,2,1,8,1,C,1,S,7,L,9,0.296958,0.807192,0.239702
8,42,8,2,1,8,1,I,6,S,7,L,14,0.768743,0.561688,0.431794
8,43,8,9,1,9,1,C,1,S,8,L,10,0.374657,0.774294,0.290095
8,44,2,9,8,1,1,I,7,L,7,L,13,0.554645,0.750468,0.416244
8,45,9,2,2,8,1,I,7,L,6,S,14,0.771431,0.54812,0.422837
8,46,9,2,1,8,1,I,7,L,7,L,14,0.758298,0.568221,0.43088
8,47,9,2,9,8,1,C,7,L,1,S,10,0.768564,0.362273,0.27843
8,48,2,1,9,1,1,C,1,S,8,L,9,0.787591,0.306529,0.241419
8,49,9,8,1,2,1,I,1,S,1,S,24,0.750801,0.65348,0.490634
8,50,9,8,9,2,1,C,1,S,7,L,12,0.810246,0.380332,0.308163
8,51,1,9,2,8,1,C,8,L,6,S,8,0.280505,0.770469,0.21612
8,52,9,8,8,9,0,I,1,S,1,S,14,0.477018,0.7713,0.367924
8,53,8,2,2,1,1,C,6,S,1,S,10,0.773957,0.358393,0.277381
8,54,1,2,8,9,1,C,1,S,1,S,9,0.311645,0.784795,0.244577
8,55,8,1,8,1,1,C,7,L,7,L,8,0.797098,0.26255,0.209278
8,56,1,8,8,1,1,I,7,L,7,L,11,0.489776,0.75546,0.370006
8,57,9,2,2,1,1,C,7,L,1,S,10,0.765096,0.363179,0.277867
8,58,8,1,9,1,1,C,7,L,8,L,8,0.793194,0.264421,0.209737
8,59,8,1,1,8,1,I,7,L,7,L,11,0.785091,0.462768,0.363315
8,60,9,2,8,1,1,C,7,L,7,L,9,0.80218,0.299548,0.240291
8,61,9,1,8,2,1,C,8,L,6,S,8,0.759631,0.290211,0.220453
8,62,1,2,2,8,1,C,1,S,6,S,9,0.305548,0.791854,0.24195
8,63,1,8,9,2,1,I,7,L,7,L,10,0.427476,0.750663,0.320891
8,64,1,2,2,9,1,C,1,S,7,L,8,0.291062,0.754754,0.21968
8,65,8,9,1,2,1,C,1,S,1,S,13,0.438023,0.768102,0.336446
8,66,9,8,8,2,1,C,1,S,6,S,11,0.756459,0.403194,0.305
8,67,1,8,2,9,1,C,7,L,7,L,8,0.244285,0.821424,0.200662
8,68,9,8,2,1,1,C,1,S,1,S,14,0.781179,0.423015,0.330451
8,69,1,9,9,2,1,I,8,L,7,L,10,0.41847,0.762513,0.319089
8,70,2,1,2,1,1,C,1,S,1,S,10,0.753307,0.369052,0.278009
8,71,9,1,8,9,1,I,8,L,1,S,10,0.752473,0.431022,0.324333
8,72,2,1,8,2,1,C,1,S,6,S,9,0.751926,0.334905,0.251824
8,73,1,9,9,1,1,I,8,L,8,L,11,0.475138,0.770369,0.366032
8,74,2,9,9,2,1,I,7,L,7,L,12,0.492158,0.76083,0.374449
8,75,1,9,1,8,1,C,8,L,7,L,8,0.273816,0.782891,0.214368
8,76,8,2,9,2,1,C,6,S,7,L,9,0.763889,0.329529,0.251724
8,77,2,1,8,1,1,C,1,S,7,L,9,0.792208,0.304182,0.240975
8,78,9,1,8,1,1,C,8,L,7,L,8,0.792354,0.264428,0.209521
8,79,9,2,8,9,1,I,7,L,1,S,14,0.779261,0.538857,0.41991
8,80,9,2,9,1,1,C,7,L,8,L,9,0.797563,0.301895,0.24078
8,81,1,9,2,9,1,C,8,L,7,L,8,0.236493,0.831773,0.196708
8,82,1,8,8,9,1,C,7,L,1,S,8,0.293378,0.754603,0.221384
8,83,8,9,8,9,1,C,1,S,1,S,12,0.414433,0.777971,0.322417
8,84,1,2,9,1,1,I,1,S,8,L,14,0.558413,0.771976,0.431081
8,85,9,2,8,2,1,C,7,L,6,S,9,0.761899,0.330271,0.251633
8,86,8,2,9,8,1,C,6,S,1,S,10,0.777425,0.357486,0.277919
8,87,2,1,1,9,1,I,1,S,8,L,17,0.771196,0.623215,0.480621
8,88,2,8,9,8,1,I,6,S,1,S,11,0.398865,0.780473,0.311303
8,89,2,9,2,1,1,I,7,L,1,S,11,0.377504,0.804454,0.303685
8,90,9,1,1,9,1,I,8,L,8,L,12,0.761758,0.545457,0.415506
8,91,9,2,2,9,1,I,7,L,7,L,16,0.766887,0.613645,0.470597
8,92,1,2,1,2,1,C,1,S,1,S,10,0.305172,0.842198,0.257015
8,93,9,1,9,2,1,C,8,L,7,L,8,0.755266,0.29257,0.220968
8,94,9,8,9,8,1,C,1,S,1,S,14,0.789941,0.418294,0.330428
8,95,9,8,8,1,1,C,1,S,7,L,11,0.805995,0.365878,0.294896
8,96,9,1,2,9,1,I,8,L,7,L,12,0.76796,0.534463,0.410446
8,97,1,2,8,2,1,I,1,S,6,S,13,0.513138,0.777765,0.399101
8,98,1,8,8,2,1,I,7,L,6,S,11,0.44024,0.792776,0.349012
8,99,8,2,8,9,1,I,6,S,1,S,13,0.759322,0.530934,0.40315
8,100,2,9,8,9,1,C,7,L,1,S,9,0.304542,0.794579,0.241983
8,101,8,9,8,2,0,I,1,S,6,S,12,0.75971,0.432235,0.328373
8,102,2,8,2,9,1,C,6,S,7,L,9,0.261465,0.855017,0.223557
8,103,8,9,9,8,0,I,1,S,1,S,17,0.765156,0.482932,0.369519
8,104,1,2,9,2,1,I,1,S,7,L,13,0.504756,0.783072,0.39526
8,105,9,8,1,8,0,I,1,S,7,L,12,0.452835,0.750796,0.339987
8,106,2,1,1,2,1,I,1,S,1,S,13,0.779378,0.487506,0.379952
8,107,2,8,8,1,1,I,6,S,7,L,14,0.57235,0.758352,0.434043
8,108,1,9,8,2,1,I,8,L,6,S,10,0.425176,0.758609,0.322543
8,109,8,9,9,2,0,I,1,S,7,L,12,0.75158,0.437235,0.328617
8,110,8,9,1,8,1,C,1,S,7,L,11,0.412673,0.756397,0.312145
8,111,8,1,2,1,1,C,7,L,1,S,9,0.800638,0.307751,0.246398
8,112,1,2,8,1,1,I,1,S,7,L,14,0.563888,0.768588,0.433398
8,113,1,8,9,1,1,I,7,L,8,L,11,0.484325,0.758501,0.367361
8,114,1,9,8,9,1,C,8,L,1,S,8,0.285586,0.764952,0.21846
8,115,8,2,1,9,1,I,6,S,8,L,16,0.770619,0.61711,0.475557
8,116,2,9,1,9,1,C,7,L,8,L,8,0.280861,0.772103,0.216854
8,117,8,2,2,8,1,I,6,S,6,S,13,0.751392,0.540489,0.406119
8,118,1,9,9,8,1,I,8,L,1,S,9,0.348464,0.759982,0.264826
8,119,2,9,1,8,1,C,7,L,7,L,9,0.289855,0.816976,0.236804
8,120,8,9,2,8,1,C,1,S,6,S,12,0.406599,0.787526,0.320207
8,121,9,8,9,1,1,C,1,S,8,L,11,0.800545,0.368918,0.295336
8,122,8,9,2,1,0,I,1,S,1,S,17,0.753001,0.490222,0.369138
8,123,2,1,9,8,1,C,1,S,1,S,10,0.756775,0.368145,0.278603
8,124,1,9,1,2,1,C,8,L,1,S,9,0.277847,0.838733,0.233039
8,125,8,9,2,9,1,C,1,S,7,L,10,0.380226,0.763505,0.290305
8,126,2,8,2,1,1,I,6,S,1,S,11,0.394392,0.782134,0.308468
8,127,2,9,2,8,1,C,7,L,6,S,9,0.298445,0.801639,0.239245
8,128,9,1,9,1,1,C,8,L,8,L,8,0.78845,0.2663,0.209964
8,129,2,9,9,8,1,I,7,L,1,S,11,0.381977,0.802793,0.306648
8,130,2,8,8,2,1,I,6,S,6,S,13,0.521758,0.767121,0.400252
8,131,2,1,8,9,1,I,1,S,1,S,14,0.764783,0.547467,0.418693
8,132,2,1,2,9,1,I,1,S,7,L,16,0.753061,0.622334,0.468656
8,133,2,8,1,9,1,C,6,S,8,L,8,0.292723,0.757082,0.221615
8,134,9,2,1,9,1,I,7,L,8,L,16,0.760784,0.623571,0.474403
8,135,1,2,1,9,1,C,1,S,8,L,8,0.286836,0.76405,0.219157
8,136,1,8,9,8,1,I,7,L,1,S,10,0.3435,0.817421,0.280784
8,137,8,2,2,9,1,I,6,S,7,L,15,0.750795,0.614317,0.461226
8,138,8,1,8,2,1,C,7,L,6,S,8,0.764375,0.288332,0.220394
8,139,2,8,2,8,1,C,6,S,6,S,9,0.3125,0.783251,0.244766
8,140,2,8,9,2,1,I,6,S,7,L,13,0.513376,0.772428,0.396546
8,141,2,1,9,2,1,C,1,S,7,L,10,0.840752,0.301387,0.253392
8,142,1,2,2,1,1,I,1,S,1,S,11,0.386077,0.792677,0.306034
8,143,8,9,8,1,0,I,1,S,7,L,11,0.763749,0.407654,0.311345
8,144,8,1,2,9,1,I,7,L,7,L,12,0.773719,0.531446,0.411189
9,1,9,1,2,1,1,C,8,L,1,S,9,0.789113,0.310416,0.244953
9,2,8,2,8,9,1,I,6,S,1,S,12,0.761837,0.473947,0.36107
9,3,8,9,2,8,1,C,1,S,6,S,11,0.401629,0.764905,0.307208
9,4,1,8,1,2,1,C,7,L,1,S,9,0.313561,0.781758,0.245129
9,5,9,2,1,9,1,I,7,L,8,L,16,0.75354,0.631303,0.475712
9,6,9,1,8,2,1,C,8,L,6,S,9,0.811161,0.294422,0.238824
9,7,2,8,9,8,1,I,6,S,1,S,11,0.373196,0.796423,0.297222
9,8,8,2,2,1,1,C,6,S,1,S,9,0.761252,0.331559,0.2524
9,9,2,1,2,9,0,I,1,S,7,L,14,0.51812,0.757378,0.392413
9,10,8,2,2,8,1,I,6,S,6,S,14,0.762729,0.56418,0.430317
9,11,2,1,2,8,1,I,1,S,6,S,22,0.756125,0.648867,0.490625
9,12,1,2,9,1,0,I,1,S,8,L,13,0.752992,0.507231,0.38194
9,13,9,1,1,8,1,I,8,L,7,L,14,0.751629,0.596608,0.448428
9,14,2,9,1,8,1,C,7,L,7,L,9,0.265358,0.849033,0.225297
9,15,9,8,1,9,0,I,1,S,8,L,10,0.374593,0.774266,0.290034
9,16,9,1,2,8,1,I,8,L,6,S,13,0.767082,0.536464,0.411512
9,17,2,8,8,2,1,I,6,S,6,S,14,0.562279,0.757043,0.425669
9,18,8,1,2,8,1,I,7,L,6,S,13,0.774363,0.531663,0.4117
9,19,8,2,9,2,1,C,6,S,7,L,9,0.796688,0.305799,0.243626
9,20,9,8,2,8,0,I,1,S,6,S,12,0.40197,0.796257,0.320071
9,21,8,1,1,9,1,I,7,L,8,L,15,0.774517,0.602407,0.466574
9,22,1,8,9,2,1,I,7,L,7,L,13,0.547434,0.754547,0.413064
9,23,9,1,9,8,1,C,8,L,1,S,10,0.775822,0.364405,0.282713
9,24,1,2,2,1,1,I,1,S,1,S,20,0.627936,0.760935,0.477819
9,25,2,8,8,9,1,C,6,S,1,S,10,0.324622,0.812261,0.263678
9,26,8,9,1,8,1,C,1,S,7,L,10,0.374944,0.769352,0.288464
9,27,1,9,8,9,1,C,8,L,1,S,9,0.327302,0.765174,0.250443
9,28,1,8,9,8,1,I,7,L,1,S,10,0.368828,0.76745,0.283057
9,29,9,2,2,8,1,I,7,L,6,S,14,0.753469,0.57055,0.429892
9,30,1,8,2,8,1,C,7,L,6,S,9,0.290347,0.812892,0.236021
9,31,8,9,9,8,1,I,1,S,1,S,20,0.487968,0.771552,0.376493
9,32,1,8,8,2,1,I,7,L,6,S,13,0.531163,0.766865,0.40733
9,33,1,8,8,9,1,C,7,L,1,S,9,0.334515,0.755476,0.252718
9,34,9,2,8,2,1,C,7,L,6,S,9,0.776564,0.319726,0.248287
9,35,9,8,9,2,1,C,1,S,7,L,11,0.759983,0.40802,0.310089
9,36,1,8,2,1,1,I,7,L,1,S,12,0.497433,0.754949,0.375537
9,37,2,8,9,1,1,I,6,S,8,L,16,0.611426,0.76527,0.467906
9,38,8,2,9,8,1,C,6,S,1,S,11,0.812008,0.363961,0.295539
9,39,8,1,8,9,1,I,7,L,1,S,11,0.76164,0.442011,0.336653
9,40,2,8,9,2,1,I,6,S,7,L,15,0.575793,0.772478,0.444788
9,41,1,2,2,8,1,C,1,S,6,S,10,0.362117,0.765863,0.277332
9,42,8,9,8,1,0,I,1,S,7,L,11,0.782429,0.397465,0.310988
9,43,9,1,2,9,1,I,8,L,7,L,14,0.775461,0.565539,0.438553
9,44,9,8,8,1,1,C,1,S,7,L,11,0.798545,0.380272,0.303664
9,45,9,1,9,1,1,C,8,L,8,L,8,0.758102,0.291251,0.220798
9,46,9,8,8,9,0,I,1,S,1,S,13,0.450118,0.752496,0.338712
9,47,1,9,2,8,1,C,8,L,6,S,9,0.283134,0.822591,0.232903
9,48,2,8,2,1,1,I,6,S,1,S,14,0.53286,0.779238,0.415225
9,49,2,9,1,9,1,C,7,L,8,L,8,0.290225,0.757967,0.219981
9,50,9,2,1,2,1,I,7,L,1,S,13,0.754604,0.527356,0.397945
9,51,9,2,8,1,1,C,7,L,7,L,9,0.824244,0.285859,0.235618
9,52,1,9,8,2,1,I,8,L,6,S,13,0.522351,0.778276,0.406533
9,53,8,9,1,2,1,C,1,S,1,S,12,0.410858,0.777732,0.319537
9,54,2,8,1,9,1,C,6,S,8,L,9,0.262784,0.854419,0.224528
9,55,2,1,8,9,1,I,1,S,1,S,20,0.757373,0.620141,0.469678
9,56,8,9,2,1,0,I,1,S,1,S,13,0.777622,0.439291,0.341602
9,57,2,1,9,2,1,C,1,S,7,L,10,0.760819,0.367106,0.279301
9,58,8,1,1,2,1,I,7,L,1,S,12,0.771891,0.485972,0.375118
9,59,1,9,1,9,1,C,8,L,8,L,8,0.272425,0.782424,0.213152
9,60,9,8,2,9,0,I,1,S,7,L,11,0.397026,0.777054,0.30851
9,61,9,2,9,2,1,C,7,L,7,L,9,0.789952,0.309959,0.244853
9,62,2,9,9,1,1,I,7,L,8,L,15,0.607191,0.753043,0.457241
9,63,8,1,2,1,1,C,7,L,1,S,9,0.795062,0.306914,0.244015
9,64,8,9,9,1,0,I,1,S,8,L,11,0.792339,0.390208,0.309177
9,65,2,9,2,1,1,I,7,L,1,S,13,0.519675,0.763703,0.396877
9,66,9,8,9,8,1,C,1,S,1,S,23,0.758826,0.485082,0.368093
9,67,1,2,1,8,1,C,1,S,7,L,10,0.319293,0.826978,0.264048
9,68,1,9,1,2,1,C,8,L,1,S,9,0.306349,0.791457,0.242462
9,69,8,2,8,2,1,C,6,S,6,S,9,0.7833,0.315566,0.247183
9,70,8,9,8,2,0,I,1,S,6,S,12,0.770388,0.427429,0.329286
9,71,1,9,8,1,1,I,8,L,7,L,14,0.57554,0.767432,0.441688
9,72,2,9,2,8,1,C,7,L,6,S,9,0.304432,0.792761,0.241342
9,73,8,2,1,8,1,I,6,S,7,L,16,0.772813,0.611166,0.472317
9,74,1,8,2,9,1,C,7,L,7,L,9,0.272982,0.837944,0.228743
9,75,2,8,2,9,1,C,6,S,7,L,9,0.295586,0.806593,0.238417
9,76,8,9,2,9,1,C,1,S,7,L,11,0.38091,0.794247,0.302536
9,77,2,1,1,8,0,I,1,S,7,L,12,0.458312,0.764967,0.350593
9,78,2,1,8,2,1,C,1,S,6,S,11,0.818916,0.348015,0.284995
9,79,8,1,2,9,1,I,7,L,7,L,13,0.752825,0.560904,0.422263
9,80,1,9,2,9,1,C,8,L,7,L,9,0.265769,0.847642,0.225277
9,81,8,1,8,2,1,C,7,L,6,S,9,0.81711,0.29092,0.237714
9,82,1,8,9,1,1,I,7,L,8,L,15,0.589217,0.776567,0.457567
9,83,1,9,9,1,1,I,8,L,8,L,14,0.584476,0.760453,0.444467
9,84,9,1,9,2,1,C,8,L,7,L,9,0.824549,0.284655,0.234712
9,85,8,1,9,1,1,C,7,L,8,L,8,0.763049,0.288414,0.220074
9,86,2,9,2,9,1,C,7,L,7,L,9,0.287067,0.817812,0.234767
9,87,2,8,1,8,1,C,6,S,7,L,9,0.273876,0.837813,0.229457
9,88,8,1,9,8,1,C,7,L,1,S,10,0.782512,0.36036,0.281986
9,89,1,2,8,2,1,I,1,S,6,S,21,0.633793,0.767725,0.486579
9,90,8,2,8,1,1,C,6,S,7,L,9,0.83098,0.281699,0.234087
9,91,2,1,9,1,1,C,1,S,8,L,10,0.807868,0.333701,0.269587
9,92,1,2,1,2,1,C,1,S,1,S,11,0.357533,0.804284,0.287558
9,93,9,8,8,2,1,C,1,S,6,S,12,0.792746,0.4037,0.320032
9,94,2,8,2,8,1,C,6,S,6,S,9,0.312951,0.781542,0.244584
9,95,9,8,1,8,0,I,1,S,7,L,10,0.386376,0.757018,0.292493
9,96,8,9,8,9,1,C,1,S,1,S,13,0.419506,0.784983,0.329305
9,97,8,2,1,9,1,I,6,S,8,L,16,0.76211,0.625143,0.476428
9,98,1,8,8,1,1,I,7,L,7,L,14,0.584193,0.756466,0.441922
9,99,9,2,8,9,1,I,7,L,1,S,12,0.752599,0.479988,0.361238
9,100,9,1,1,2,1,I,8,L,1,S,12,0.76458,0.490659,0.375148
9,101,9,2,1,8,1,I,7,L,7,L,16,0.764243,0.617326,0.471787
9,102,8,2,2,9,1,I,6,S,7,L,15,0.76957,0.588995,0.453273
9,103,1,8,1,9,1,C,7,L,8,L,8,0.278571,0.77436,0.215714
9,104,8,1,1,8,1,I,7,L,7,L,14,0.758735,0.591801,0.44902
9,105,2,8,1,2,1,C,6,S,1,S,9,0.336165,0.750408,0.252261
9,106,8,1,8,1,1,C,7,L,7,L,8,0.754715,0.294307,0.222118
9,107,1,2,9,8,1,I,1,S,1,S,14,0.420991,0.796966,0.335515
9,108,9,8,2,1,1,C,1,S,1,S,12,0.762933,0.425334,0.324502
9,109,9,8,9,1,1,C,1,S,8,L,10,0.754214,0.386964,0.291854
9,110,1,9,1,8,1,C,8,L,7,L,8,0.28243,0.767209,0.216683
9,111,9,1,8,1,1,C,8,L,7,L,9,0.858841,0.260556,0.223776
9,112,1,9,2,1,1,I,8,L,1,S,12,0.488643,0.766565,0.374576
9,113,2,1,1,9,0,I,1,S,8,L,11,0.435573,0.756523,0.329521
9,114,9,1,1,9,1,I,8,L,8,L,15,0.767679,0.607135,0.466084
9,115,8,1,9,2,1,C,7,L,7,L,9,0.830498,0.281153,0.233497
9,116,1,2,8,9,1,C,1,S,1,S,11,0.387115,0.765047,0.296161
9,117,2,9,8,9,1,C,7,L,1,S,10,0.314858,0.825355,0.25987
9,118,2,8,8,1,1,I,6,S,7,L,16,0.603535,0.77163,0.465706
9,119,2,9,9,2,1,I,7,L,7,L,14,0.566637,0.759447,0.430331
9,120,2,1,2,1,1,C,1,S,1,S,11,0.790438,0.368443,0.291232
9,121,2,9,8,1,1,I,7,L,7,L,15,0.598769,0.759736,0.454906
9,122,8,2,1,2,1,I,6,S,1,S,13,0.76398,0.521067,0.398085
9,123,8,2,9,1,1,C,6,S,8,L,9,0.840276,0.275116,0.231173
9,124,1,2,8,1,1,I,1,S,7,L,22,0.649482,0.764309,0.496405
9,125,2,1,9,8,1,C,1,S,1,S,14,0.780271,0.428755,0.334545
9,126,2,1,8,1,1,C,1,S,7,L,10,0.798073,0.340733,0.271929
9,127,2,9,8,2,1,I,7,L,6,S,14,0.550928,0.7716,0.425096
9,128,9,1,8,9,1,I,8,L,1,S,11,0.754505,0.44645,0.336849
9,129,8,9,1,9,1,C,1,S,8,L,10,0.363161,0.786599,0.285663
9,130,8,9,9,2,0,I,1,S,7,L,12,0.786852,0.415213,0.326712
9,131,9,2,2,9,1,I,7,L,7,L,15,0.760601,0.595311,0.452795
9,132,2,9,9,8,1,I,7,L,1,S,11,0.362531,0.810756,0.293924
9,133,1,9,9,2,1,I,8,L,7,L,13,0.538621,0.765959,0.412561
9,134,1,9,9,8,1,I,8,L,1,S,10,0.360809,0.778298,0.280817
9,135,1,2,1,9,1,C,1,S,8,L,9,0.3354,0.763398,0.256044
9,136,1,2,2,9,1,C,1,S,7,L,10,0.342732,0.793711,0.27203
9,137,1,8,1,8,1,C,7,L,7,L,8,0.288576,0.759145,0.219071
9,138,9,2,2,1,1,C,7,L,1,S,9,0.754516,0.335719,0.253305
9,139,1,2,9,2,1,I,1,S,7,L,21,0.64323,0.759676,0.488647
9,140,2,9,1,2,1,C,7,L,1,S,9,0.327647,0.761627,0.249544
9,141,9,2,9,8,1,C,7,L,1,S,11,0.803237,0.369564,0.296848
9,142,2,1,1,2,1,I,1,S,1,S,21,0.753754,0.639357,0.481918
9,143,9,8,1,2,0,I,1,S,1,S,12,0.433216,0.754003,0.326646
9,144,9,2,9,1,1,C,7,L,8,L,9,0.83354,0.279276,0.232788
10,1,9,2,2,1,1,C,7,L,1,S,10,0.79446,0.347387,0.275985
10,2,2,8,8,9,1,C,6,S,1,S,10,0.345166,0.797669,0.275328
10,3,9,2,9,8,1,C,7,L,1,S,11,0.809125,0.374989,0.303413
10,4,9,1,2,1,1,C,8,L,1,S,10,0.826849,0.322834,0.266935
10,5,1,9,9,8,1,I,8,L,1,S,9,0.319054,0.788069,0.251437
10,6,9,2,8,9,1,I,7,L,1,S,10,0.753435,0.387442,0.291912
10,7,8,9,2,9,1,C,1,S,7,L,10,0.364414,0.768423,0.280024
10,8,8,1,2,1,1,C,7,L,1,S,9,0.781283,0.323011,0.252363
10,9,9,2,2,9,1,I,7,L,7,L,14,0.771764,0.566273,0.43703
10,10,1,2,9,1,0,I,1,S,8,L,12,0.756001,0.463857,0.350676
10,11,8,2,1,9,1,I,6,S,8,L,13,0.777798,0.543623,0.422829
10,12,9,2,1,8,1,I,7,L,7,L,15,0.77436,0.594466,0.460331
10,13,2,1,9,2,1,C,1,S,7,L,10,0.802226,0.334322,0.268202
10,14,1,8,9,8,1,I,7,L,1,S,9,0.343986,0.752133,0.258724
10,15,9,8,9,8,0,C,1,S,1,S,13,0.420784,0.772163,0.324914
10,16,1,9,2,9,1,C,8,L,7,L,8,0.265283,0.792929,0.21035
10,17,8,2,2,1,1,C,6,S,1,S,9,0.758456,0.340226,0.258046
10,18,9,8,9,1,1,C,1,S,8,L,12,0.754996,0.466789,0.352424
10,19,2,1,8,2,1,C,1,S,6,S,10,0.785993,0.348165,0.273655
10,20,2,9,1,8,1,C,7,L,7,L,8,0.259308,0.80065,0.207615
10,21,9,8,2,1,0,C,1,S,1,S,17,0.530396,0.771556,0.40923
10,22,2,9,8,2,1,I,7,L,6,S,12,0.50161,0.782487,0.392504
10,23,9,1,1,2,1,I,8,L,1,S,11,0.80116,0.399523,0.320082
10,24,8,9,8,2,0,I,1,S,6,S,14,0.753195,0.518072,0.390209
10,25,1,2,2,8,1,C,1,S,6,S,10,0.348482,0.792313,0.276106
10,26,1,8,8,1,1,I,7,L,7,L,12,0.535325,0.751656,0.40238
10,27,1,2,8,9,1,C,1,S,1,S,13,0.435189,0.755886,0.328953
10,28,8,1,9,8,1,C,7,L,1,S,10,0.818922,0.337928,0.276737
10,29,2,8,1,2,1,C,6,S,1,S,9,0.339921,0.75064,0.255158
10,30,2,9,1,2,1,C,7,L,1,S,9,0.311004,0.791908,0.246287
10,31,2,8,8,1,1,I,6,S,7,L,13,0.562214,0.752124,0.422855
10,32,1,8,2,9,1,C,7,L,7,L,8,0.287368,0.761008,0.218689
10,33,8,2,2,8,1,I,6,S,6,S,13,0.7745,0.549827,0.425841
10,34,9,1,9,2,1,C,8,L,7,L,8,0.75249,0.293879,0.221141
10,35,8,1,8,1,1,C,7,L,7,L,8,0.788995,0.269037,0.212269
10,36,1,8,1,9,1,C,7,L,8,L,8,0.277744,0.773535,0.214845
10,37,2,1,2,1,1,C,1,S,1,S,12,0.774466,0.401262,0.310764
10,38,1,9,1,2,1,C,8,L,1,S,9,0.295435,0.814936,0.240761
10,39,2,8,1,9,1,C,6,S,8,L,9,0.257704,0.858828,0.221323
10,40,1,9,2,1,1,I,8,L,1,S,9,0.352533,0.75684,0.266811
10,41,9,8,8,1,1,C,1,S,7,L,13,0.759751,0.492575,0.374234
10,42,9,1,9,8,1,C,8,L,1,S,10,0.779716,0.367355,0.286433
10,43,8,1,1,9,1,I,7,L,8,L,12,0.769446,0.521668,0.401395
10,44,2,8,9,2,1,I,6,S,7,L,13,0.555721,0.754773,0.419443
10,45,8,9,9,1,0,I,1,S,8,L,12,0.75877,0.459707,0.348812
10,46,2,9,1,9,1,C,7,L,8,L,8,0.269471,0.784858,0.211496
10,47,8,9,1,9,1,C,1,S,8,L,10,0.3526,0.78405,0.276456
10,48,1,2,8,2,0,I,1,S,6,S,15,0.75199,0.547357,0.411607
10,49,2,1,9,8,1,C,1,S,1,S,14,0.764009,0.465173,0.355396
10,50,1,8,9,2,1,I,7,L,7,L,12,0.528945,0.754041,0.398847
10,51,1,9,1,9,1,C,8,L,8,L,8,0.255659,0.805455,0.205922
10,52,8,9,8,1,0,I,1,S,7,L,13,0.76471,0.483797,0.369965
10,53,8,2,9,8,1,C,6,S,1,S,10,0.794644,0.356336,0.28316
10,54,9,8,8,9,0,I,1,S,1,S,13,0.433707,0.759491,0.329397
10,55,9,1,2,8,1,I,8,L,6,S,13,0.759608,0.561436,0.426471
10,56,1,9,2,8,1,C,8,L,6,S,8,0.253924,0.810179,0.205724
10,57,8,9,2,1,1,I,1,S,1,S,17,0.53878,0.758346,0.408581
10,58,2,8,9,1,1,I,6,S,8,L,14,0.573997,0.770456,0.442239
10,59,8,9,1,2,1,C,1,S,1,S,12,0.40141,0.774134,0.310745
10,60,8,2,8,1,1,C,6,S,7,L,8,0.768827,0.284413,0.218665
10,61,1,2,2,1,1,I,1,S,1,S,17,0.533412,0.766059,0.408625
10,62,2,1,8,9,1,I,1,S,1,S,14,0.77993,0.448452,0.349761
10,63,9,1,9,1,1,C,8,L,8,L,8,0.767834,0.283391,0.217597
10,64,1,2,2,9,1,C,1,S,7,L,10,0.362928,0.770829,0.279755
10,65,2,8,1,8,1,C,6,S,7,L,8,0.284369,0.765101,0.217571
10,66,1,8,2,8,1,C,7,L,6,S,8,0.276009,0.778258,0.214806
10,67,9,2,9,2,1,C,7,L,7,L,9,0.833731,0.278731,0.232387
10,68,1,8,1,8,1,C,7,L,7,L,8,0.267581,0.789327,0.211209
10,69,1,9,1,8,1,C,8,L,7,L,8,0.245496,0.821247,0.201613
10,70,9,2,8,1,1,C,7,L,7,L,9,0.838925,0.277598,0.232883
10,71,8,1,1,2,1,I,7,L,1,S,10,0.786826,0.375403,0.295377
10,72,8,1,2,8,1,I,7,L,6,S,12,0.766284,0.527884,0.404509
10,73,2,9,8,1,1,I,7,L,7,L,12,0.524713,0.765641,0.401742
10,74,2,9,2,8,1,C,7,L,6,S,8,0.267736,0.789582,0.211399
10,75,9,8,1,9,0,I,1,S,8,L,10,0.350901,0.788289,0.276611
10,76,9,2,8,2,1,C,7,L,6,S,9,0.818931,0.291567,0.238773
10,77,8,2,8,2,1,C,6,S,6,S,8,0.751851,0.296359,0.222818
10,78,8,9,9,8,1,I,1,S,1,S,13,0.425743,0.763385,0.325006
10,79,8,1,8,2,1,C,7,L,6,S,8,0.772019,0.280984,0.216925
10,80,8,1,8,9,1,I,7,L,1,S,9,0.752443,0.35134,0.264363
10,81,1,9,8,9,1,C,8,L,1,S,9,0.323693,0.785169,0.254154
10,82,1,2,9,2,0,I,1,S,7,L,13,0.75474,0.491618,0.371044
10,83,2,9,9,8,1,I,7,L,1,S,9,0.334623,0.765041,0.256
10,84,1,8,1,2,1,C,7,L,1,S,9,0.320368,0.779,0.249566
10,85,8,9,1,8,1,C,1,S,7,L,10,0.340044,0.802931,0.273032
10,86,8,1,9,2,1,C,7,L,7,L,8,0.784533,0.269646,0.211546
10,87,1,2,1,2,1,C,1,S,1,S,12,0.39864,0.778284,0.310255
10,88,2,9,2,1,1,I,7,L,1,S,10,0.354501,0.802493,0.284485
10,89,9,8,2,9,0,I,1,S,7,L,10,0.362715,0.772662,0.280256
10,90,1,8,9,1,1,I,7,L,8,L,13,0.55107,0.772639,0.425779
10,91,9,8,9,2,1,C,1,S,7,L,13,0.753258,0.495223,0.373031
10,92,8,1,9,1,1,C,7,L,8,L,8,0.799878,0.259157,0.207294
10,93,2,8,8,2,1,I,6,S,6,S,13,0.539597,0.768988,0.414944
10,94,9,1,8,9,1,I,8,L,1,S,10,0.785824,0.362889,0.285167
10,95,9,8,2,8,0,I,1,S,6,S,10,0.348269,0.794146,0.276576
10,96,2,1,2,8,1,I,1,S,6,S,21,0.757935,0.65174,0.493976
10,97,1,9,9,2,1,I,8,L,7,L,11,0.494399,0.755512,0.373525
10,98,8,2,1,2,1,I,6,S,1,S,10,0.762548,0.393811,0.3003
10,99,1,9,9,1,1,I,8,L,8,L,12,0.520121,0.77841,0.404867
10,100,9,2,2,8,1,I,7,L,6,S,14,0.756452,0.58707,0.44409
10,101,8,2,1,8,1,I,6,S,7,L,13,0.764519,0.562185,0.429801
10,102,8,9,8,9,1,C,1,S,1,S,13,0.438666,0.750714,0.329313
10,103,1,8,8,9,1,C,7,L,1,S,10,0.323576,0.828731,0.268158
10,104,2,1,1,2,1,I,1,S,1,S,17,0.771266,0.5601,0.431986
10,105,8,2,2,9,1,I,6,S,7,L,12,0.757585,0.524797,0.397579
10,106,2,9,9,1,1,I,7,L,8,L,12,0.537698,0.75403,0.40544
10,107,1,8,2,1,1,I,7,L,1,S,10,0.364601,0.788676,0.287552
10,108,1,9,8,1,1,I,8,L,7,L,11,0.500545,0.75347,0.377146
10,109,9,2,9,1,1,C,7,L,8,L,9,0.851306,0.266709,0.227051
10,110,2,9,2,9,1,C,7,L,7,L,8,0.279094,0.772332,0.215553
10,111,2,8,2,1,1,I,6,S,1,S,10,0.386191,0.757613,0.292584
10,112,2,8,2,8,1,C,6,S,6,S,8,0.292796,0.754033,0.220778
10,113,2,1,2,9,1,I,1,S,7,L,21,0.768465,0.638226,0.490455
10,114,8,2,9,1,1,C,6,S,8,L,8,0.779709,0.274533,0.214056
10,115,9,2,1,2,1,I,7,L,1,S,11,0.767127,0.425505,0.326417
10,116,8,2,9,2,1,C,6,S,7,L,8,0.764365,0.285022,0.217861
10,117,1,9,8,2,1,I,8,L,6,S,11,0.477575,0.769877,0.367674
10,118,2,9,8,9,1,C,7,L,1,S,9,0.339262,0.762141,0.258566
10,119,9,8,1,2,0,I,1,S,1,S,12,0.397636,0.781216,0.31064
10,120,8,9,9,2,0,I,1,S,7,L,13,0.758217,0.486446,0.368831
10,121,9,1,2,9,1,I,8,L,7,L,13,0.775208,0.539789,0.418449
10,122,8,1,1,8,1,I,7,L,7,L,12,0.7561,0.540765,0.408873
10,123,1,8,8,2,1,I,7,L,6,S,12,0.512222,0.768503,0.393644
10,124,9,8,1,8,0,I,1,S,7,L,10,0.338345,0.807171,0.273102
10,125,2,8,2,9,1,C,6,S,7,L,9,0.268628,0.844364,0.22682
10,126,8,9,2,8,1,C,1,S,6,S,10,0.349968,0.789906,0.276442
10,127,2,8,9,8,1,I,6,S,1,S,10,0.339058,0.802135,0.27197
10,128,9,1,1,9,1,I,8,L,8,L,13,0.762906,0.555232,0.42359
10,129,9,1,1,8,1,I,8,L,7,L,14,0.778936,0.572801,0.446175
10,130,2,1,1,9,1,I,1,S,8,L,21,0.760889,0.646695,0.492063
10,131,2,1,1,8,1,I,1,S,7,L,21,0.751838,0.658551,0.495124
10,132,1,2,1,9,1,C,1,S,8,L,10,0.351113,0.786456,0.276135
10,133,8,2,8,9,1,I,6,S,1,S,10,0.800752,0.35187,0.28176
10,134,2,1,9,1,1,C,1,S,8,L,10,0.821144,0.321218,0.263766
10,135,9,1,8,1,1,C,8,L,7,L,8,0.756952,0.293271,0.221992
10,136,1,2,9,8,1,I,1,S,1,S,13,0.422266,0.768557,0.324536
10,137,1,2,1,8,1,C,1,S,7,L,10,0.338558,0.805338,0.272653
10,138,8,1,2,9,1,I,7,L,7,L,12,0.78189,0.505711,0.395411
10,139,9,2,1,9,1,I,7,L,8,L,14,0.759817,0.580953,0.441418
10,140,2,9,9,2,1,I,7,L,7,L,12,0.518334,0.768026,0.398094
10,141,1,2,8,1,0,I,1,S,7,L,13,0.761233,0.48897,0.37222
10,142,9,8,8,2,0,C,1,S,6,S,23,0.644747,0.772303,0.49794
10,143,9,1,8,2,1,C,8,L,6,S,9,0.848075,0.26932,0.228403
10,144,2,1,8,1,1,C,1,S,7,L,10,0.807985,0.332701,0.268817
11,1,9,2,2,9,1,I,7,L,7,L,15,0.766333,0.595604,0.456431
11,2,9,2,1,8,1,I,7,L,7,L,15,0.77065,0.589497,0.454296
11,3,2,8,8,1,1,I,6,S,7,L,13,0.558763,0.759678,0.42448
11,4,1,8,9,8,1,I,7,L,1,S,10,0.398267,0.760134,0.302736
11,5,1,8,1,9,1,C,7,L,8,L,8,0.276948,0.778743,0.215671
11,6,8,9,8,1,0,I,1,S,7,L,11,0.790003,0.38491,0.30408
11,7,8,9,1,2,1,C,1,S,1,S,15,0.433176,0.790809,0.342559
11,8,1,9,1,8,1,C,8,L,7,L,9,0.26145,0.85758,0.224214
11,9,1,8,8,2,1,I,7,L,6,S,12,0.531921,0.753174,0.400629
11,10,9,8,2,9,0,I,1,S,7,L,10,0.345191,0.792883,0.273696
11,11,8,1,1,2,1,I,7,L,1,S,11,0.797622,0.39385,0.314144
11,12,8,9,2,1,1,I,1,S,1,S,18,0.45291,0.780492,0.353493
11,13,9,1,9,2,1,C,8,L,7,L,8,0.761154,0.284115,0.216255
11,14,8,2,8,2,1,C,6,S,6,S,9,0.812517,0.292875,0.237966
11,15,2,1,8,1,1,C,1,S,7,L,10,0.781705,0.352535,0.275579
11,16,8,9,9,1,0,I,1,S,8,L,11,0.798568,0.378244,0.302053
11,17,8,9,8,9,0,C,1,S,1,S,17,0.752494,0.487469,0.366818
11,18,1,2,1,8,1,C,1,S,7,L,10,0.335254,0.810058,0.271575
11,19,9,8,8,1,1,C,1,S,7,L,12,0.750735,0.466831,0.350466
11,20,9,2,1,2,1,I,7,L,1,S,11,0.757494,0.425458,0.322282
11,21,8,2,1,9,1,I,6,S,8,L,15,0.75455,0.605188,0.456645
11,22,2,9,9,1,1,I,7,L,8,L,15,0.589216,0.774586,0.456399
11,23,8,1,8,9,1,I,7,L,1,S,10,0.813793,0.330326,0.268817
11,24,2,1,2,9,0,I,1,S,7,L,12,0.445499,0.766151,0.34132
11,25,8,2,2,8,1,I,6,S,6,S,15,0.758314,0.599203,0.454384
11,26,2,9,9,8,1,I,7,L,1,S,11,0.427577,0.762582,0.326063
11,27,9,2,9,1,1,C,7,L,8,L,9,0.844838,0.269491,0.227676
11,28,8,1,2,9,1,I,7,L,7,L,14,0.776913,0.567516,0.440911
11,29,2,1,1,8,0,I,1,S,7,L,12,0.449973,0.75939,0.341705
11,30,9,1,1,2,1,I,8,L,1,S,10,0.751427,0.394892,0.296732
11,31,2,9,9,2,1,I,7,L,7,L,14,0.579589,0.757528,0.439055
11,32,1,2,8,9,1,C,1,S,1,S,15,0.48664,0.779922,0.379542
11,33,9,2,9,2,1,C,7,L,7,L,9,0.831449,0.278486,0.231547
11,34,8,1,9,2,1,C,7,L,7,L,8,0.754552,0.289064,0.218114
11,35,1,2,9,2,1,I,1,S,7,L,21,0.652065,0.759941,0.495531
11,36,9,2,8,9,1,I,7,L,1,S,10,0.775992,0.360087,0.279424
11,37,2,8,8,2,1,I,6,S,6,S,13,0.543371,0.770991,0.418934
11,38,8,9,1,8,1,C,1,S,7,L,11,0.383062,0.789704,0.302505
11,39,8,1,8,1,1,C,7,L,7,L,8,0.759243,0.286654,0.21764
11,40,1,9,8,2,1,I,8,L,6,S,13,0.560209,0.752768,0.421708
11,41,2,8,1,9,1,C,6,S,8,L,8,0.281511,0.767857,0.216161
11,42,8,2,9,2,1,C,6,S,7,L,9,0.821612,0.285965,0.234952
11,43,8,2,2,9,1,I,6,S,7,L,15,0.754284,0.605239,0.456522
11,44,9,8,2,1,0,C,1,S,1,S,13,0.429829,0.756501,0.325166
11,45,1,9,8,9,1,C,8,L,1,S,10,0.385937,0.760071,0.29334
11,46,2,8,9,2,1,I,6,S,7,L,13,0.552899,0.763337,0.422048
11,47,1,9,1,2,1,C,8,L,1,S,10,0.315031,0.830917,0.261764
11,48,9,8,8,9,0,I,1,S,1,S,17,0.519776,0.777193,0.403966
11,49,8,2,8,1,1,C,6,S,7,L,9,0.826944,0.283096,0.234105
11,50,1,9,1,9,1,C,8,L,8,L,8,0.295439,0.753353,0.22257
11,51,9,8,2,8,0,I,1,S,6,S,10,0.348857,0.786556,0.274396
11,52,1,2,2,9,1,C,1,S,7,L,10,0.331154,0.816621,0.270428
11,53,2,9,8,2,1,I,7,L,6,S,14,0.570552,0.764945,0.436441
11,54,8,2,1,8,1,I,6,S,7,L,15,0.7586,0.599132,0.454502
11,55,9,1,8,9,1,I,8,L,1,S,10,0.822334,0.324046,0.266474
11,56,9,2,8,2,1,C,7,L,6,S,9,0.822354,0.285396,0.234696
11,57,2,9,2,8,1,C,7,L,6,S,9,0.267714,0.843855,0.225911
11,58,2,9,8,9,1,C,7,L,1,S,11,0.379535,0.804096,0.305182
11,59,9,8,9,2,1,C,1,S,7,L,13,0.761892,0.485185,0.369658
11,60,9,1,8,2,1,C,8,L,6,S,8,0.753212,0.290244,0.218615
11,61,2,1,9,8,1,C,1,S,1,S,12,0.765296,0.405115,0.310033
11,62,9,8,9,8,0,C,1,S,1,S,20,0.601334,0.770914,0.463577
11,63,8,1,8,2,1,C,7,L,6,S,9,0.855898,0.258545,0.221288
11,64,8,1,2,1,1,C,7,L,1,S,10,0.773836,0.366389,0.283524
11,65,1,8,2,9,1,C,7,L,7,L,8,0.276539,0.778937,0.215407
11,66,8,9,1,9,1,C,1,S,8,L,11,0.379108,0.796272,0.301873
11,67,1,9,2,9,1,C,8,L,7,L,8,0.29503,0.753547,0.222319
11,68,9,8,1,2,0,I,1,S,1,S,12,0.403694,0.766895,0.309591
11,69,9,2,2,8,1,I,7,L,6,S,15,0.770364,0.589568,0.454182
11,70,1,8,1,2,1,C,7,L,1,S,9,0.324944,0.773951,0.251491
11,71,2,8,9,8,1,I,6,S,1,S,11,0.401296,0.798739,0.320531
11,72,9,1,1,9,1,I,8,L,8,L,13,0.756901,0.560733,0.424419
11,73,1,8,9,1,1,I,7,L,8,L,13,0.558468,0.767906,0.428851
11,74,8,9,9,8,0,I,1,S,1,S,14,0.754576,0.458891,0.346268
11,75,1,2,1,9,1,C,1,S,8,L,10,0.331568,0.816408,0.270695
11,76,1,8,8,1,1,I,7,L,7,L,13,0.550425,0.774433,0.426268
11,77,2,8,2,1,1,I,6,S,1,S,10,0.329278,0.814796,0.268295
11,78,2,8,8,9,1,C,6,S,1,S,10,0.369236,0.778734,0.287536
11,79,9,1,9,1,1,C,8,L,8,L,8,0.773054,0.276178,0.213501
11,80,2,8,1,8,1,C,6,S,7,L,8,0.284283,0.762701,0.216823
11,81,1,2,9,8,1,I,1,S,1,S,17,0.577475,0.759991,0.438875
11,82,1,8,1,8,1,C,7,L,7,L,8,0.279719,0.773587,0.216387
11,83,9,8,8,2,1,C,1,S,6,S,13,0.752364,0.492839,0.370794
11,84,8,2,9,1,1,C,6,S,8,L,9,0.835001,0.27697,0.23127
11,85,1,9,2,8,1,C,8,L,6,S,9,0.261013,0.857814,0.223901
11,86,2,1,2,1,1,C,1,S,1,S,17,0.779283,0.486887,0.379423
11,87,1,2,2,1,1,I,1,S,1,S,13,0.399403,0.80365,0.32098
11,88,9,2,1,9,1,I,7,L,8,L,15,0.7666,0.595553,0.456551
11,89,8,1,9,8,1,C,7,L,1,S,9,0.758902,0.332066,0.252006
11,90,1,9,9,2,1,I,8,L,7,L,14,0.569143,0.774887,0.441022
11,91,1,9,8,1,1,I,8,L,7,L,14,0.574846,0.77124,0.443345
11,92,8,1,2,8,1,I,7,L,6,S,13,0.751981,0.561142,0.421968
11,93,9,2,2,1,1,C,7,L,1,S,11,0.798557,0.377905,0.301778
11,94,1,2,8,2,1,I,1,S,6,S,21,0.64688,0.76462,0.494617
11,95,1,8,8,9,1,C,7,L,1,S,10,0.362467,0.792562,0.287278
11,96,2,8,2,8,1,C,6,S,6,S,8,0.28386,0.76291,0.21656
11,97,2,9,2,9,1,C,7,L,7,L,9,0.26444,0.849723,0.224701
11,98,2,1,9,2,1,C,1,S,7,L,10,0.775971,0.355756,0.276056
11,99,9,8,9,1,1,C,1,S,8,L,12,0.759122,0.460168,0.349324
11,100,2,1,1,2,1,I,1,S,1,S,21,0.769966,0.601233,0.462928
11,101,1,2,9,1,1,I,1,S,8,L,21,0.660713,0.753145,0.497613
11,102,9,8,1,9,0,I,1,S,8,L,10,0.345604,0.792669,0.27395
11,103,2,1,8,9,1,I,1,S,1,S,13,0.757743,0.428051,0.324352
11,104,8,9,2,8,1,C,1,S,6,S,11,0.382644,0.789925,0.30226
11,105,2,1,1,9,0,I,1,S,8,L,12,0.445868,0.765985,0.341528
11,106,1,8,2,8,1,C,7,L,6,S,8,0.279297,0.773795,0.216119
11,107,2,9,1,8,1,C,7,L,7,L,9,0.26815,0.843621,0.226217
11,108,8,1,1,8,1,I,7,L,7,L,13,0.752341,0.560987,0.422054
11,109,9,1,2,9,1,I,8,L,7,L,13,0.756563,0.560864,0.424329
11,110,9,2,9,8,1,C,7,L,1,S,10,0.811791,0.327658,0.26599
11,111,9,1,9,8,1,C,8,L,1,S,9,0.766676,0.326346,0.250201
11,112,9,1,1,8,1,I,8,L,7,L,13,0.761058,0.554245,0.421813
11,113,2,1,9,1,1,C,1,S,8,L,10,0.790191,0.346037,0.273435
11,114,2,9,1,2,1,C,7,L,1,S,10,0.32306,0.815161,0.263346
11,115,9,1,8,1,1,C,8,L,7,L,8,0.765846,0.281705,0.215743
11,116,2,1,2,8,0,I,1,S,6,S,12,0.449582,0.759582,0.341494
11,117,8,2,2,1,1,C,6,S,1,S,11,0.786047,0.38724,0.304389
11,118,8,9,8,2,0,I,1,S,6,S,11,0.774093,0.396076,0.306599
11,119,2,9,1,9,1,C,7,L,8,L,9,0.264859,0.849509,0.225
11,120,8,2,1,2,1,I,6,S,1,S,12,0.791543,0.429133,0.339677
11,121,8,1,9,1,1,C,7,L,8,L,8,0.766452,0.281127,0.21547
11,122,1,2,8,1,1,I,1,S,7,L,21,0.656316,0.757116,0.496907
11,123,1,8,2,1,1,I,7,L,1,S,10,0.322509,0.828625,0.267239
11,124,2,1,8,2,1,C,1,S,6,S,10,0.766211,0.363186,0.278278
11,125,9,1,2,8,1,I,8,L,6,S,13,0.760699,0.5544,0.421731
11,126,1,9,9,1,1,I,8,L,8,L,14,0.582445,0.764943,0.445537
11,127,9,8,1,8,0,I,1,S,7,L,10,0.349291,0.786319,0.274654
11,128,2,8,1,2,1,C,6,S,1,S,9,0.330715,0.761332,0.251784
11,129,1,2,2,8,1,C,1,S,6,S,10,0.334821,0.810294,0.271303
11,130,2,9,2,1,1,I,7,L,1,S,10,0.354009,0.780378,0.276261
11,131,1,2,1,2,1,C,1,S,1,S,12,0.378721,0.806082,0.30528
11,132,8,2,9,8,1,C,6,S,1,S,10,0.800336,0.336218,0.269088
11,133,9,2,8,1,1,C,7,L,7,L,9,0.836781,0.275617,0.230631
11,134,2,8,9,1,1,I,6,S,8,L,13,0.566806,0.753151,0.42689
11,135,2,8,2,9,1,C,6,S,7,L,8,0.281103,0.768051,0.215901
11,136,1,8,9,2,1,I,7,L,7,L,13,0.544561,0.778092,0.423719
11,137,8,2,8,9,1,I,6,S,1,S,10,0.764536,0.368647,0.281844
11,138,8,9,2,9,1,C,1,S,7,L,11,0.378712,0.796468,0.301632
11,139,9,1,2,1,1,C,8,L,1,S,10,0.782376,0.360109,0.281741
11,140,8,1,1,9,1,I,7,L,8,L,14,0.777216,0.567424,0.441011
11,141,1,9,9,8,1,I,8,L,1,S,11,0.418508,0.779496,0.326226
11,142,1,9,2,1,1,I,8,L,1,S,10,0.34598,0.796134,0.275446
11,143,2,9,8,1,1,I,7,L,7,L,14,0.585292,0.753881,0.44124
11,144,8,9,9,2,0,I,1,S,7,L,11,0.784078,0.388372,0.304514
12,1,9,8,9,8,1,C,1,S,1,S,16,0.783817,0.448714,0.351709
12,2,1,2,9,8,1,I,1,S,1,S,14,0.466306,0.781986,0.364645
12,3,2,1,2,8,1,I,1,S,6,S,18,0.756602,0.609953,0.461492
12,4,2,1,8,1,1,C,1,S,7,L,9,0.756579,0.334761,0.253273
12,5,8,1,9,8,1,C,7,L,1,S,10,0.787873,0.348882,0.274875
12,6,1,9,1,2,1,C,8,L,1,S,9,0.309495,0.790162,0.244551
12,7,2,9,1,2,1,C,7,L,1,S,10,0.323728,0.813198,0.263255
12,8,8,2,2,9,1,I,6,S,7,L,14,0.778527,0.542626,0.422449
12,9,9,1,9,2,1,C,8,L,7,L,9,0.835134,0.276585,0.230985
12,10,9,1,9,8,1,C,8,L,1,S,10,0.825475,0.321065,0.265032
12,11,1,8,9,8,1,I,7,L,1,S,10,0.361501,0.793066,0.286694
12,12,1,2,8,1,1,I,1,S,7,L,20,0.648046,0.761676,0.493601
12,13,9,1,8,9,1,I,8,L,1,S,9,0.79428,0.307181,0.243988
12,14,1,8,8,2,1,I,7,L,6,S,13,0.544139,0.782023,0.42553
12,15,2,1,9,8,1,C,1,S,1,S,12,0.790805,0.386459,0.305614
12,16,8,1,8,2,1,C,7,L,6,S,9,0.841671,0.27287,0.229667
12,17,2,8,8,1,1,I,6,S,7,L,15,0.608354,0.754595,0.459061
12,18,8,9,1,9,1,C,1,S,8,L,10,0.342048,0.796118,0.27231
12,19,9,2,8,2,1,C,7,L,6,S,9,0.859074,0.263199,0.226108
12,20,9,2,9,8,1,C,7,L,1,S,10,0.807616,0.337525,0.27259
12,21,8,1,1,9,1,I,7,L,8,L,14,0.759867,0.57501,0.436931
12,22,9,2,9,1,1,C,7,L,8,L,9,0.838558,0.275657,0.231155
12,23,9,8,9,2,1,C,1,S,7,L,11,0.752569,0.414882,0.312228
12,24,1,9,1,9,1,C,8,L,8,L,8,0.281722,0.766243,0.215867
12,25,2,8,9,1,1,I,6,S,8,L,14,0.578088,0.753053,0.435331
12,26,2,9,2,9,1,C,7,L,7,L,9,0.324329,0.767984,0.249079
12,27,8,1,2,9,1,I,7,L,7,L,13,0.774121,0.517853,0.400881
12,28,2,8,8,2,1,I,6,S,6,S,15,0.596674,0.765412,0.456702
12,29,9,2,8,1,1,C,7,L,7,L,8,0.762113,0.289376,0.220538
12,30,1,2,1,8,1,C,1,S,7,L,10,0.327612,0.811671,0.265913
12,31,1,8,2,1,1,I,7,L,1,S,10,0.40842,0.752719,0.307425
12,32,9,2,9,2,1,C,7,L,7,L,9,0.818865,0.291962,0.239077
12,33,2,9,1,8,1,C,7,L,7,L,9,0.295329,0.804001,0.237445
12,34,8,2,8,1,1,C,6,S,7,L,9,0.834879,0.280459,0.234149
12,35,8,2,2,8,1,I,6,S,6,S,13,0.762348,0.52027,0.396627
12,36,1,9,2,1,1,I,8,L,1,S,11,0.408191,0.799623,0.326399
12,37,2,1,1,2,1,I,1,S,1,S,17,0.771462,0.567265,0.437624
12,38,1,9,2,8,1,C,8,L,6,S,9,0.287262,0.818643,0.235165
12,39,1,8,9,2,1,I,7,L,7,L,12,0.494493,0.784346,0.387854
12,40,9,2,1,8,1,I,7,L,7,L,13,0.75971,0.54905,0.417119
12,41,9,1,2,9,1,I,8,L,7,L,12,0.78043,0.483327,0.377203
12,42,8,1,2,8,1,I,7,L,6,S,12,0.754031,0.493437,0.372067
12,43,8,1,1,8,1,I,7,L,7,L,14,0.767876,0.563326,0.432565
12,44,1,9,9,2,1,I,8,L,7,L,12,0.495559,0.780245,0.386658
12,45,1,9,9,1,1,I,8,L,8,L,12,0.518831,0.761078,0.394871
12,46,1,8,9,1,1,I,7,L,8,L,12,0.517765,0.765179,0.396182
12,47,2,8,1,9,1,C,6,S,8,L,9,0.289166,0.81758,0.236416
12,48,9,2,2,8,1,I,7,L,6,S,12,0.775944,0.479957,0.372419
12,49,1,2,2,9,1,C,1,S,7,L,10,0.360151,0.770396,0.277459
12,50,9,1,2,8,1,I,8,L,6,S,11,0.754287,0.458677,0.345974
12,51,8,9,1,2,1,C,1,S,1,S,11,0.393754,0.757943,0.298443
12,52,8,9,1,8,1,C,1,S,7,L,10,0.349094,0.78467,0.273924
12,53,9,2,1,2,1,I,7,L,1,S,11,0.768382,0.431762,0.331758
12,54,9,8,8,9,1,I,1,S,1,S,13,0.792698,0.419087,0.332209
12,55,1,9,8,1,1,I,8,L,7,L,13,0.558956,0.765829,0.428064
12,56,1,8,1,2,1,C,7,L,1,S,9,0.309324,0.79344,0.24543
12,57,1,8,2,8,1,C,7,L,6,S,9,0.287092,0.821921,0.235967
12,58,9,1,1,8,1,I,8,L,7,L,13,0.777218,0.532475,0.413849
12,59,9,2,1,9,1,I,7,L,8,L,13,0.751657,0.561084,0.421743
12,60,8,1,8,9,1,I,7,L,1,S,9,0.760609,0.332229,0.252696
12,61,2,8,9,2,1,I,6,S,7,L,14,0.55649,0.771564,0.429367
12,62,9,8,1,8,0,I,1,S,7,L,11,0.409815,0.759696,0.311335
12,63,8,2,9,2,1,C,6,S,7,L,9,0.780766,0.320885,0.250536
12,64,1,8,2,9,1,C,7,L,7,L,9,0.277979,0.835637,0.232289
12,65,1,2,1,2,1,C,1,S,1,S,11,0.366943,0.79267,0.290865
12,66,8,2,2,1,1,C,6,S,1,S,10,0.810791,0.329949,0.26752
12,67,2,8,2,1,1,I,6,S,1,S,12,0.463556,0.770186,0.357025
12,68,9,8,2,9,0,I,1,S,7,L,12,0.431685,0.761043,0.328531
12,69,8,2,9,1,1,C,6,S,8,L,9,0.800459,0.30458,0.243804
12,70,8,9,9,1,1,I,1,S,8,L,21,0.64587,0.760856,0.491414
12,71,2,1,8,2,1,C,1,S,6,S,10,0.827044,0.316226,0.261533
12,72,9,1,1,2,1,I,8,L,1,S,11,0.786854,0.414798,0.326385
12,73,2,9,8,9,1,C,7,L,1,S,13,0.49757,0.781039,0.388621
12,74,2,8,8,9,1,C,6,S,1,S,12,0.492966,0.75086,0.370149
12,75,9,2,2,9,1,I,7,L,7,L,12,0.762151,0.500296,0.381301
12,76,8,2,1,2,1,I,6,S,1,S,12,0.763885,0.467259,0.356932
12,77,8,9,8,2,1,I,1,S,6,S,22,0.645585,0.772171,0.498502
12,78,2,9,9,1,1,I,7,L,8,L,15,0.577344,0.775342,0.447639
12,79,2,1,2,9,1,I,1,S,7,L,19,0.766697,0.61771,0.473597
12,80,2,9,1,9,1,C,7,L,8,L,9,0.289092,0.814386,0.235433
12,81,9,2,2,1,1,C,7,L,1,S,9,0.761098,0.333363,0.253722
12,82,9,1,8,2,1,C,8,L,6,S,8,0.763359,0.286325,0.218569
12,83,8,2,1,8,1,I,6,S,7,L,15,0.771038,0.583044,0.449549
12,84,1,2,8,2,1,I,1,S,6,S,20,0.640877,0.76903,0.492854
12,85,1,8,1,8,1,C,7,L,7,L,8,0.287084,0.760238,0.218252
12,86,1,2,1,9,1,C,1,S,8,L,10,0.320566,0.823118,0.263864
12,87,2,9,9,2,1,I,7,L,7,L,14,0.558158,0.766613,0.427891
12,88,2,9,9,8,1,I,7,L,1,S,11,0.401574,0.774671,0.311088
12,89,1,8,1,9,1,C,7,L,8,L,8,0.281884,0.769076,0.21679
12,90,9,8,2,1,1,C,1,S,1,S,13,0.76104,0.440215,0.335021
12,91,1,8,8,9,1,C,7,L,1,S,11,0.433335,0.786651,0.340883
12,92,2,1,8,9,1,I,1,S,1,S,11,0.812412,0.34999,0.284336
12,93,9,8,1,9,0,I,1,S,8,L,11,0.402208,0.771716,0.31039
12,94,1,9,8,9,1,C,8,L,1,S,11,0.434138,0.78274,0.339817
12,95,9,8,1,2,0,I,1,S,1,S,14,0.454534,0.766744,0.348511
12,96,9,2,8,9,1,I,7,L,1,S,9,0.778012,0.322558,0.250954
12,97,2,9,8,2,1,I,7,L,6,S,15,0.59855,0.760372,0.455121
12,98,8,1,8,1,1,C,7,L,7,L,9,0.855575,0.261207,0.223482
12,99,2,8,9,8,1,I,6,S,1,S,11,0.400849,0.778867,0.312208
12,100,8,1,2,1,1,C,7,L,1,S,10,0.834791,0.308534,0.257562
12,101,1,2,2,1,1,I,1,S,1,S,16,0.567043,0.760001,0.430953
12,102,9,1,8,1,1,C,8,L,7,L,8,0.775806,0.275674,0.21387
12,103,2,1,9,1,1,C,1,S,8,L,10,0.804729,0.330128,0.265663
12,104,8,9,8,1,0,I,1,S,7,L,13,0.750487,0.513219,0.385164
12,105,8,9,9,8,1,I,1,S,1,S,15,0.500617,0.762023,0.381482
12,106,9,1,9,1,1,C,8,L,8,L,9,0.854826,0.26028,0.222494
12,107,8,2,9,8,1,C,6,S,1,S,10,0.763873,0.370297,0.28286
12,108,2,8,1,8,1,C,6,S,7,L,9,0.295402,0.807195,0.238447
12,109,8,9,8,9,1,C,1,S,1,S,19,0.619076,0.759975,0.470482
12,110,2,1,1,9,1,I,1,S,8,L,20,0.757118,0.642705,0.486604
12,111,9,1,2,1,1,C,8,L,1,S,9,0.777366,0.317986,0.247191
12,112,1,2,2,8,1,C,1,S,6,S,10,0.371199,0.753764,0.279797
12,113,8,2,8,9,1,I,6,S,1,S,10,0.832377,0.315999,0.26303
12,114,2,1,9,2,1,C,1,S,7,L,10,0.782755,0.348008,0.272405
12,115,1,2,9,1,1,I,1,S,8,L,19,0.637539,0.758219,0.483394
12,116,9,8,2,8,0,I,1,S,6,S,13,0.430387,0.782646,0.336841
12,117,2,1,1,8,1,I,1,S,7,L,20,0.763319,0.634181,0.484083
12,118,1,2,9,2,1,I,1,S,7,L,19,0.623489,0.771612,0.481092
12,119,2,8,2,8,1,C,6,S,6,S,9,0.333516,0.757462,0.252625
12,120,8,1,9,2,1,C,7,L,7,L,9,0.801462,0.301633,0.241747
12,121,8,9,2,9,1,C,1,S,7,L,11,0.348548,0.820726,0.286063
12,122,8,9,2,8,1,C,1,S,6,S,11,0.361188,0.801822,0.289608
12,123,8,9,2,1,1,I,1,S,1,S,18,0.599124,0.757181,0.453645
12,124,8,2,8,2,1,C,6,S,6,S,9,0.820975,0.292122,0.239825
12,125,2,9,8,1,1,I,7,L,7,L,16,0.60383,0.774948,0.467936
12,126,2,8,1,2,1,C,6,S,1,S,10,0.323401,0.816934,0.264197
12,127,9,8,9,1,1,C,1,S,8,L,11,0.775685,0.396065,0.307222
12,128,9,1,1,9,1,I,8,L,8,L,13,0.769166,0.544509,0.418817
12,129,1,8,8,1,1,I,7,L,7,L,13,0.557668,0.770056,0.429436
12,130,8,2,1,9,1,I,6,S,8,L,15,0.763198,0.594253,0.453532
12,131,2,1,2,1,1,C,1,S,1,S,11,0.786465,0.366873,0.288532
12,132,8,1,9,1,1,C,7,L,8,L,9,0.821155,0.285328,0.234299
12,133,1,9,2,9,1,C,8,L,7,L,9,0.278149,0.832358,0.23152
12,134,2,8,2,9,1,C,6,S,7,L,9,0.324403,0.771178,0.250172
12,135,1,9,9,8,1,I,8,L,1,S,10,0.362001,0.789426,0.285773
12,136,1,9,1,8,1,C,8,L,7,L,8,0.286922,0.757405,0.217316
12,137,1,9,8,2,1,I,8,L,6,S,13,0.545427,0.777795,0.42423
12,138,2,9,2,1,1,I,7,L,1,S,12,0.464647,0.765638,0.355751
12,139,8,1,1,2,1,I,7,L,1,S,12,0.790536,0.443841,0.350872
12,140,9,8,8,1,1,C,1,S,7,L,10,0.757851,0.384127,0.291111
12,141,9,8,8,2,1,C,1,S,6,S,11,0.798871,0.381205,0.304534
12,142,8,9,9,2,1,I,1,S,7,L,21,0.634494,0.772091,0.489887
12,143,1,2,8,9,1,C,1,S,1,S,17,0.59435,0.762762,0.453347
12,144,2,9,2,8,1,C,7,L,6,S,9,0.333442,0.754268,0.251505
13,1,9,8,2,9,0,I,1,S,7,L,13,0.462614,0.772943,0.357574
13,2,8,1,8,1,1,C,7,L,7,L,9,0.85961,0.258362,0.222091
13,3,1,2,2,8,1,C,1,S,6,S,11,0.366943,0.795109,0.29176
13,4,8,9,9,2,0,I,1,S,7,L,10,0.798776,0.341303,0.272624
13,5,8,1,8,9,1,I,7,L,1,S,11,0.771343,0.428155,0.330255
13,6,9,8,2,8,0,I,1,S,6,S,15,0.517901,0.755074,0.391054
13,7,8,9,1,8,1,C,1,S,7,L,13,0.494353,0.751685,0.371598
13,8,1,9,1,9,1,C,8,L,8,L,9,0.280441,0.831829,0.233279
13,9,2,9,8,1,1,I,7,L,7,L,17,0.619308,0.766721,0.474836
13,10,1,2,9,2,0,I,1,S,7,L,13,0.764218,0.491856,0.375885
13,11,8,9,2,8,0,C,1,S,6,S,22,0.772583,0.628965,0.485928
13,12,8,2,2,1,1,C,6,S,1,S,9,0.758562,0.332604,0.252301
13,13,2,1,8,2,1,C,1,S,6,S,10,0.763133,0.363421,0.277339
13,14,1,9,9,2,1,I,8,L,7,L,16,0.6059,0.771206,0.467274
13,15,9,2,2,8,1,I,7,L,6,S,13,0.761591,0.524981,0.399821
13,16,1,8,2,9,1,C,7,L,7,L,9,0.298399,0.803747,0.239837
13,17,1,9,2,8,1,C,8,L,6,S,9,0.334761,0.753235,0.252154
13,18,9,1,8,2,1,C,8,L,6,S,9,0.819587,0.288211,0.236214
13,19,8,1,9,2,1,C,7,L,7,L,8,0.758362,0.28817,0.218537
13,20,2,1,2,1,1,C,1,S,1,S,10,0.756144,0.370469,0.280128
13,21,9,1,2,8,1,I,8,L,6,S,12,0.781446,0.479962,0.375065
13,22,9,1,1,8,1,I,8,L,7,L,13,0.765613,0.550151,0.421203
13,23,9,1,8,9,1,I,8,L,1,S,11,0.782765,0.422808,0.330959
13,24,8,1,9,1,1,C,7,L,8,L,8,0.789059,0.268696,0.212017
13,25,9,8,1,8,0,I,1,S,7,L,12,0.441482,0.768559,0.339305
13,26,1,2,8,2,1,I,1,S,6,S,21,0.643273,0.75533,0.485884
13,27,1,2,1,2,1,C,1,S,1,S,12,0.371349,0.812845,0.301849
13,28,2,8,9,8,1,I,6,S,1,S,14,0.538482,0.769933,0.414595
13,29,2,1,1,9,1,I,1,S,8,L,21,0.761773,0.652429,0.497003
13,30,1,8,2,1,1,I,7,L,1,S,13,0.525786,0.763442,0.401407
13,31,1,2,8,9,1,C,1,S,1,S,12,0.373446,0.813095,0.303647
13,32,9,2,1,8,1,I,7,L,7,L,15,0.77119,0.587559,0.45312
13,33,2,8,8,2,1,I,6,S,6,S,14,0.560919,0.752409,0.422041
13,34,8,2,2,9,1,I,6,S,7,L,15,0.772088,0.578196,0.446418
13,35,8,9,9,8,0,I,1,S,1,S,11,0.783711,0.37454,0.293531
13,36,8,1,9,8,1,C,7,L,1,S,9,0.793889,0.304511,0.241748
13,37,8,9,8,2,0,I,1,S,6,S,11,0.805108,0.35845,0.288591
13,38,2,9,9,2,1,I,7,L,7,L,17,0.626114,0.760231,0.475992
13,39,8,2,9,2,1,C,6,S,7,L,9,0.823557,0.28478,0.234532
13,40,2,9,1,8,1,C,7,L,7,L,9,0.317543,0.779146,0.247412
13,41,1,9,2,9,1,C,8,L,7,L,9,0.311356,0.78802,0.245354
13,42,8,2,8,1,1,C,6,S,7,L,9,0.814093,0.292626,0.238225
13,43,1,8,8,1,1,I,7,L,7,L,15,0.588517,0.771361,0.45396
13,44,1,9,1,8,1,C,8,L,7,L,9,0.296276,0.806631,0.238986
13,45,9,2,8,2,1,C,7,L,6,S,9,0.775129,0.321699,0.249358
13,46,2,9,2,1,1,I,7,L,1,S,15,0.574003,0.76155,0.437132
13,47,2,8,1,8,1,C,6,S,7,L,9,0.30254,0.796996,0.241123
13,48,2,8,9,1,1,I,6,S,8,L,17,0.634229,0.76206,0.483321
13,49,8,1,1,8,1,I,7,L,7,L,13,0.753723,0.556378,0.419354
13,50,1,9,8,2,1,I,8,L,6,S,14,0.551291,0.766088,0.422337
13,51,2,9,2,8,1,C,7,L,6,S,10,0.322254,0.815723,0.26287
13,52,9,2,9,8,1,C,7,L,1,S,9,0.758996,0.334253,0.253696
13,53,8,1,2,1,1,C,7,L,1,S,9,0.804079,0.29834,0.239889
13,54,9,2,9,1,1,C,7,L,8,L,8,0.760692,0.294161,0.223766
13,55,2,8,1,2,1,C,6,S,1,S,10,0.33822,0.792965,0.268197
13,56,9,2,8,9,1,I,7,L,1,S,12,0.771967,0.463125,0.357517
13,57,9,8,8,9,1,I,1,S,1,S,23,0.763937,0.634947,0.485059
13,58,2,8,8,1,1,I,6,S,7,L,16,0.607734,0.765524,0.465235
13,59,1,9,8,9,1,C,8,L,1,S,10,0.332922,0.804641,0.267882
13,60,2,8,9,2,1,I,6,S,7,L,16,0.615205,0.758551,0.466664
13,61,9,2,1,9,1,I,7,L,8,L,15,0.753237,0.6124,0.461282
13,62,2,9,9,1,1,I,7,L,8,L,18,0.641614,0.764066,0.490235
13,63,8,1,2,9,1,I,7,L,7,L,13,0.770893,0.535767,0.413019
13,64,8,1,1,9,1,I,7,L,8,L,14,0.764713,0.582435,0.445396
13,65,9,8,8,2,1,C,1,S,6,S,11,0.776718,0.3854,0.299347
13,66,8,9,2,1,0,I,1,S,1,S,11,0.797486,0.365908,0.291806
13,67,2,1,2,8,1,I,1,S,6,S,19,0.765902,0.616889,0.472477
13,68,9,2,8,1,1,C,7,L,7,L,9,0.824716,0.288104,0.237604
13,69,8,2,1,2,1,I,6,S,1,S,12,0.755054,0.470683,0.355391
13,70,9,1,2,9,1,I,8,L,7,L,13,0.782783,0.52954,0.414515
13,71,1,8,8,2,1,I,7,L,6,S,13,0.533491,0.755881,0.403256
13,72,1,8,9,1,1,I,7,L,8,L,16,0.619741,0.767162,0.475442
13,73,1,2,2,1,1,I,1,S,1,S,21,0.640446,0.759295,0.486287
13,74,1,2,8,1,0,I,1,S,7,L,13,0.754825,0.500046,0.377447
13,75,8,9,1,9,1,C,1,S,8,L,12,0.460777,0.762045,0.351133
13,76,9,8,8,1,1,C,1,S,7,L,10,0.768373,0.370164,0.284424
13,77,1,8,9,2,1,I,7,L,7,L,15,0.596663,0.763925,0.455806
13,78,1,8,1,2,1,C,7,L,1,S,10,0.316065,0.822745,0.260041
13,79,1,8,8,9,1,C,7,L,1,S,10,0.318246,0.822965,0.261906
13,80,8,9,9,1,0,I,1,S,8,L,9,0.757603,0.342435,0.25943
13,81,8,2,1,9,1,I,6,S,8,L,16,0.764608,0.614344,0.469732
13,82,1,9,9,1,1,I,8,L,8,L,17,0.625282,0.774017,0.483978
13,83,9,1,9,8,1,C,8,L,1,S,9,0.803454,0.300765,0.241651
13,84,2,9,8,9,1,C,7,L,1,S,10,0.357975,0.771419,0.276149
13,85,2,1,9,1,1,C,1,S,8,L,9,0.77919,0.324731,0.253027
13,86,8,2,9,1,1,C,6,S,8,L,8,0.752192,0.2973,0.223627
13,87,9,8,2,1,1,C,1,S,1,S,11,0.769096,0.392858,0.302145
13,88,1,2,9,8,1,I,1,S,1,S,21,0.629943,0.76711,0.483236
13,89,8,1,2,8,1,I,7,L,6,S,12,0.769651,0.485838,0.373925
13,90,9,8,9,8,1,C,1,S,1,S,11,0.755322,0.40149,0.303254
13,91,8,9,8,1,0,I,1,S,7,L,10,0.788775,0.349584,0.275743
13,92,9,2,2,1,1,C,7,L,1,S,9,0.769185,0.328081,0.252355
