ANN,trial,N1,N2,P1,P2,Succ.,Cong,Ndist,Ndist,Pdist,Pdist,rt,a1,a2,x_acc
1,1,1,2,8,1,0,I,1,S,7,L,12,0.776398,0.438233,0.340243
1,2,1,9,9,8,1,I,8,L,1,S,10,0.363164,0.783683,0.284606
1,3,2,9,1,9,1,C,7,L,8,L,9,0.303929,0.798408,0.24266
1,4,8,9,8,1,0,I,1,S,7,L,11,0.772103,0.402156,0.310506
1,5,8,2,2,8,1,I,6,S,6,S,14,0.773465,0.572824,0.443059
1,6,1,2,2,8,1,C,1,S,6,S,10,0.374539,0.767424,0.28743
1,7,8,2,9,2,1,C,6,S,7,L,9,0.845389,0.269445,0.227786
1,8,8,2,1,9,1,I,6,S,8,L,13,0.752542,0.558908,0.420601
1,9,1,2,9,8,1,I,1,S,1,S,18,0.509218,0.776851,0.395586
1,10,1,8,8,2,1,I,7,L,6,S,11,0.487346,0.751014,0.366004
1,11,8,2,2,1,1,C,6,S,1,S,10,0.815833,0.330966,0.270013
1,12,2,8,8,1,1,I,6,S,7,L,14,0.567896,0.773325,0.439169
1,13,9,1,9,2,1,C,8,L,7,L,8,0.816112,0.249679,0.203766
1,14,8,1,8,9,1,I,7,L,1,S,9,0.764861,0.33798,0.258508
1,15,2,1,2,1,1,C,1,S,1,S,10,0.768682,0.364532,0.280209
1,16,8,1,1,2,1,I,7,L,1,S,10,0.775388,0.384352,0.298022
1,17,9,2,9,1,1,C,7,L,8,L,8,0.803663,0.259509,0.208557
1,18,9,8,2,8,0,I,1,S,6,S,12,0.448681,0.767838,0.344514
1,19,8,2,8,2,1,C,6,S,6,S,9,0.823744,0.286353,0.235882
1,20,1,9,8,9,1,C,8,L,1,S,10,0.368692,0.780557,0.287785
1,21,2,8,2,1,1,I,6,S,1,S,11,0.391043,0.799655,0.312699
1,22,8,1,9,1,1,C,7,L,8,L,8,0.796218,0.262446,0.208964
1,23,1,2,2,1,1,I,1,S,1,S,21,0.610847,0.760059,0.46428
1,24,1,8,2,9,1,C,7,L,7,L,8,0.287783,0.765076,0.220176
1,25,2,9,9,2,1,I,7,L,7,L,15,0.599828,0.752704,0.451493
1,26,2,9,1,2,1,C,7,L,1,S,10,0.346824,0.785129,0.272302
1,27,1,8,2,8,1,C,7,L,6,S,8,0.272321,0.786539,0.214191
1,28,1,2,9,1,0,I,1,S,8,L,11,0.761301,0.423006,0.322035
1,29,9,8,9,2,1,C,1,S,7,L,10,0.764041,0.369315,0.282172
1,30,1,8,9,8,1,I,7,L,1,S,10,0.338376,0.817297,0.276553
1,31,9,1,2,9,1,I,8,L,7,L,11,0.791753,0.463399,0.366897
1,32,2,9,8,1,1,I,7,L,7,L,15,0.604675,0.75029,0.453681
1,33,8,1,2,8,1,I,7,L,6,S,12,0.762145,0.53079,0.404539
1,34,1,9,8,2,1,I,8,L,6,S,12,0.519814,0.754403,0.392149
1,35,8,9,2,8,1,C,1,S,6,S,11,0.379199,0.798259,0.302699
1,36,8,1,2,1,1,C,7,L,1,S,9,0.778718,0.325598,0.253549
1,37,8,2,8,9,1,I,6,S,1,S,10,0.796248,0.348197,0.277251
1,38,9,1,2,1,1,C,8,L,1,S,9,0.821799,0.296594,0.243741
1,39,1,9,1,9,1,C,8,L,8,L,9,0.260772,0.858441,0.223858
1,40,9,8,2,1,1,C,1,S,1,S,13,0.781937,0.413909,0.323651
1,41,1,2,1,2,1,C,1,S,1,S,13,0.398022,0.803937,0.319985
1,42,2,9,1,8,1,C,7,L,7,L,9,0.28822,0.82081,0.236574
1,43,2,1,1,8,1,I,1,S,7,L,16,0.768763,0.609279,0.468391
1,44,9,2,1,2,1,I,7,L,1,S,10,0.784481,0.380073,0.29816
1,45,9,2,9,2,1,C,7,L,7,L,8,0.784633,0.272644,0.213925
1,46,2,9,2,8,1,C,7,L,6,S,9,0.297414,0.810858,0.241161
1,47,1,9,9,2,1,I,8,L,7,L,13,0.54775,0.76785,0.42059
1,48,8,1,8,1,1,C,7,L,7,L,8,0.780635,0.274793,0.214513
1,49,2,8,2,8,1,C,6,S,6,S,9,0.266236,0.852214,0.22689
1,50,8,9,9,8,1,I,1,S,1,S,28,0.621259,0.770986,0.478982
1,51,2,1,9,2,1,C,1,S,7,L,9,0.804418,0.298788,0.24035
1,52,1,8,1,8,1,C,7,L,7,L,8,0.263886,0.795363,0.209885
1,53,9,8,8,9,1,I,1,S,1,S,14,0.790978,0.418763,0.331232
1,54,1,9,1,2,1,C,8,L,1,S,9,0.331977,0.763098,0.253331
1,55,2,8,9,8,1,I,6,S,1,S,10,0.376677,0.762926,0.287377
1,56,2,1,8,9,1,I,1,S,1,S,11,0.821974,0.35291,0.290083
1,57,8,2,1,8,1,I,6,S,7,L,14,0.764684,0.581715,0.444828
1,58,8,9,8,9,1,C,1,S,1,S,28,0.644687,0.751643,0.484574
1,59,1,8,1,9,1,C,7,L,8,L,8,0.277654,0.775788,0.215401
1,60,8,9,9,1,0,I,1,S,8,L,11,0.791133,0.387074,0.306228
1,61,1,8,2,1,1,I,7,L,1,S,10,0.363488,0.796939,0.289678
1,62,2,1,9,1,1,C,1,S,8,L,9,0.826063,0.283843,0.234472
1,63,8,1,9,2,1,C,7,L,7,L,8,0.777188,0.275581,0.214178
1,64,8,2,2,9,1,I,6,S,7,L,13,0.765064,0.545123,0.417054
1,65,1,9,9,1,1,I,8,L,8,L,13,0.570601,0.750806,0.42841
1,66,8,1,9,8,1,C,7,L,1,S,9,0.760729,0.339908,0.258578
1,67,9,1,9,1,1,C,8,L,8,L,8,0.835142,0.236544,0.197548
1,68,8,1,1,9,1,I,7,L,8,L,12,0.77069,0.516409,0.397992
1,69,9,1,8,9,1,I,8,L,1,S,9,0.807943,0.308976,0.249635
1,70,8,9,9,2,0,I,1,S,7,L,11,0.767408,0.403991,0.310026
1,71,9,1,8,1,1,C,8,L,7,L,8,0.819559,0.248891,0.203981
1,72,2,8,9,1,1,I,6,S,8,L,14,0.584841,0.759038,0.443917
1,73,9,2,8,9,1,I,7,L,1,S,9,0.773303,0.334302,0.258517
1,74,2,9,2,9,1,C,7,L,7,L,9,0.315359,0.785708,0.24778
1,75,1,2,8,2,0,I,1,S,6,S,13,0.77265,0.463333,0.357994
1,76,1,8,9,2,1,I,7,L,7,L,12,0.518624,0.768908,0.398774
1,77,9,1,2,8,1,I,8,L,6,S,11,0.770907,0.492045,0.379321
1,78,8,2,8,1,1,C,6,S,7,L,9,0.849393,0.268262,0.22786
1,79,9,8,8,1,1,C,1,S,7,L,10,0.768463,0.367777,0.282623
1,80,8,9,2,9,1,C,1,S,7,L,11,0.400045,0.769613,0.30788
1,81,2,8,9,2,1,I,6,S,7,L,14,0.563,0.775672,0.436704
1,82,9,2,2,1,1,C,7,L,1,S,9,0.787159,0.32192,0.253402
1,83,1,2,1,8,1,C,1,S,7,L,10,0.364933,0.777911,0.283885
1,84,2,8,1,2,1,C,6,S,1,S,10,0.311357,0.832834,0.259309
1,85,1,8,9,1,1,I,7,L,8,L,12,0.542166,0.751739,0.407568
1,86,8,2,9,8,1,C,6,S,1,S,10,0.790721,0.351323,0.277799
1,87,9,1,8,2,1,C,8,L,6,S,8,0.79785,0.264365,0.210924
1,88,2,1,2,9,1,I,1,S,7,L,15,0.770789,0.582518,0.448998
1,89,2,8,2,9,1,C,6,S,7,L,9,0.284181,0.827064,0.235036
1,90,8,9,8,2,0,I,1,S,6,S,12,0.787618,0.411103,0.323792
1,91,9,8,1,9,0,I,1,S,8,L,12,0.457226,0.753458,0.3445
1,92,1,2,9,2,0,I,1,S,7,L,12,0.771552,0.440298,0.339713
1,93,2,8,1,8,1,C,6,S,7,L,8,0.29399,0.752562,0.221246
1,94,9,8,8,2,1,C,1,S,6,S,11,0.808316,0.361687,0.292357
1,95,9,8,9,8,1,C,1,S,1,S,14,0.77395,0.431123,0.333667
1,96,2,9,9,1,1,I,7,L,8,L,16,0.61346,0.763295,0.468251
1,97,9,2,2,9,1,I,7,L,7,L,11,0.755538,0.490775,0.3708
1,98,9,1,1,2,1,I,8,L,1,S,9,0.75644,0.360509,0.272703
1,99,9,2,8,2,1,C,7,L,6,S,8,0.766371,0.28733,0.220202
1,100,9,8,1,8,0,I,1,S,7,L,12,0.439113,0.778025,0.341641
1,101,2,9,8,9,1,C,7,L,1,S,11,0.402516,0.771179,0.310412
1,102,2,1,1,9,1,I,1,S,8,L,15,0.759377,0.594474,0.45143
1,103,2,9,9,8,1,I,7,L,1,S,11,0.395122,0.775899,0.306575
1,104,2,9,8,2,1,I,7,L,6,S,15,0.578041,0.77108,0.445715
1,105,2,1,2,8,1,I,1,S,6,S,15,0.750728,0.607903,0.45637
1,106,9,2,1,9,1,I,7,L,8,L,12,0.780232,0.511384,0.398998
1,107,1,8,8,9,1,C,7,L,1,S,10,0.343903,0.81417,0.279996
1,108,1,9,2,1,1,I,8,L,1,S,10,0.388276,0.763326,0.296381
1,109,8,1,2,9,1,I,7,L,7,L,12,0.783462,0.502076,0.393358
1,110,1,8,8,1,1,I,7,L,7,L,12,0.52347,0.766843,0.401419
1,111,8,9,2,1,0,I,1,S,1,S,17,0.762699,0.493272,0.376218
1,112,9,8,2,9,0,I,1,S,7,L,13,0.477362,0.762128,0.363811
1,113,2,1,9,8,1,C,1,S,1,S,11,0.81458,0.35763,0.291318
1,114,8,9,1,2,1,C,1,S,1,S,14,0.428739,0.784407,0.336306
1,115,8,9,1,8,1,C,1,S,7,L,10,0.386027,0.751844,0.290232
1,116,9,1,9,8,1,C,8,L,1,S,9,0.803811,0.310904,0.249908
1,117,2,8,1,9,1,C,6,S,8,L,9,0.272751,0.839764,0.229046
1,118,2,1,1,2,1,I,1,S,1,S,12,0.771152,0.450979,0.347773
1,119,2,9,2,1,1,I,7,L,1,S,12,0.420209,0.796819,0.33483
1,120,9,1,1,8,1,I,8,L,7,L,11,0.761196,0.502567,0.382551
1,121,2,1,8,2,1,C,1,S,6,S,9,0.782773,0.315696,0.247118
1,122,1,9,2,9,1,C,8,L,7,L,9,0.272202,0.845741,0.230213
1,123,8,2,9,1,1,C,6,S,8,L,8,0.756816,0.291864,0.220887
1,124,1,2,2,9,1,C,1,S,7,L,11,0.370213,0.805545,0.298223
1,125,9,2,9,8,1,C,7,L,1,S,9,0.769171,0.33623,0.258618
1,126,2,8,8,9,1,C,6,S,1,S,10,0.382205,0.7598,0.290399
1,127,9,8,1,2,1,I,1,S,1,S,21,0.756125,0.621261,0.469751
1,128,1,2,1,9,1,C,1,S,8,L,10,0.381993,0.75383,0.287958
1,129,1,8,1,2,1,C,7,L,1,S,9,0.3091,0.794274,0.24551
1,130,1,9,2,8,1,C,8,L,6,S,8,0.292419,0.759447,0.222076
1,131,8,1,8,2,1,C,7,L,6,S,8,0.758926,0.290268,0.220291
1,132,8,9,1,9,1,C,1,S,8,L,11,0.387325,0.784055,0.303684
1,133,9,2,8,1,1,C,7,L,7,L,8,0.78808,0.271856,0.214244
1,134,8,1,1,8,1,I,7,L,7,L,12,0.752577,0.540977,0.407127
1,135,9,2,2,8,1,I,7,L,6,S,12,0.771687,0.525764,0.405725
1,136,1,2,8,9,1,C,1,S,1,S,18,0.543966,0.752083,0.409108
1,137,1,9,1,8,1,C,8,L,7,L,8,0.283984,0.768271,0.218176
1,138,8,2,1,2,1,I,6,S,1,S,11,0.777923,0.416888,0.324307
1,139,9,8,9,1,1,C,1,S,8,L,10,0.787209,0.353117,0.277977
1,140,1,9,8,1,1,I,8,L,7,L,13,0.552654,0.765616,0.423121
1,141,2,1,8,1,1,C,1,S,7,L,9,0.808423,0.297604,0.24059
1,142,9,1,1,9,1,I,8,L,8,L,11,0.779033,0.477841,0.372254
1,143,2,8,8,2,1,I,6,S,6,S,13,0.538746,0.765563,0.412444
1,144,9,2,1,8,1,I,7,L,7,L,12,0.762119,0.535951,0.408459
2,1,1,8,9,1,1,I,7,L,8,L,13,0.570012,0.751513,0.428371
2,2,9,1,8,2,1,C,8,L,6,S,8,0.765485,0.285124,0.218258
2,3,2,8,9,2,1,I,6,S,7,L,15,0.590653,0.764753,0.451704
2,4,8,2,8,1,1,C,6,S,7,L,9,0.820168,0.288542,0.236653
2,5,2,1,8,2,1,C,1,S,6,S,10,0.75714,0.373425,0.282735
2,6,1,9,1,9,1,C,8,L,8,L,8,0.277103,0.771168,0.213693
2,7,8,2,2,8,1,I,6,S,6,S,15,0.761779,0.59834,0.455803
2,8,2,1,9,8,1,C,1,S,1,S,20,0.762994,0.621324,0.474066
2,9,1,2,2,9,1,C,1,S,7,L,10,0.326137,0.813995,0.265473
2,10,9,8,1,9,1,I,1,S,8,L,17,0.762791,0.617436,0.470975
2,11,2,8,2,8,1,C,6,S,6,S,9,0.291858,0.817413,0.238569
2,12,1,2,9,1,1,I,1,S,8,L,18,0.633845,0.763015,0.483633
2,13,9,2,2,8,1,I,7,L,6,S,13,0.76969,0.55128,0.424315
2,14,9,8,2,1,1,C,1,S,1,S,10,0.812605,0.325809,0.264754
2,15,2,1,9,2,1,C,1,S,7,L,10,0.780007,0.357308,0.278703
2,16,1,2,1,2,1,C,1,S,1,S,11,0.360362,0.798865,0.287881
2,17,1,9,9,2,1,I,8,L,7,L,12,0.520196,0.762373,0.396584
2,18,8,1,2,8,1,I,7,L,6,S,13,0.754501,0.563615,0.425248
2,19,8,2,1,9,1,I,6,S,8,L,15,0.767203,0.589081,0.451945
2,20,1,2,1,9,1,C,1,S,8,L,9,0.32522,0.767898,0.249736
2,21,9,2,1,9,1,I,7,L,8,L,13,0.775026,0.541629,0.419776
2,22,1,9,1,8,1,C,8,L,7,L,8,0.253434,0.804379,0.203857
2,23,1,9,1,2,1,C,8,L,1,S,9,0.323327,0.77154,0.24946
2,24,9,2,9,8,1,C,7,L,1,S,11,0.781634,0.429097,0.335396
2,25,2,9,8,9,1,C,7,L,1,S,10,0.351647,0.787474,0.276913
2,26,1,8,1,2,1,C,7,L,1,S,9,0.339483,0.751136,0.254998
2,27,9,1,9,8,1,C,8,L,1,S,10,0.766685,0.403505,0.309361
2,28,2,1,9,1,1,C,1,S,8,L,10,0.808564,0.337085,0.272555
2,29,9,1,1,9,1,I,8,L,8,L,12,0.776913,0.512795,0.398397
2,30,1,9,8,2,1,I,8,L,6,S,12,0.495806,0.780134,0.386795
2,31,1,9,2,9,1,C,8,L,7,L,9,0.27203,0.841318,0.228864
2,32,8,2,9,1,1,C,6,S,8,L,9,0.836646,0.277222,0.231936
2,33,8,1,2,9,1,I,7,L,7,L,12,0.768181,0.4984,0.382862
2,34,9,1,2,9,1,I,8,L,7,L,11,0.780314,0.454696,0.354806
2,35,8,2,8,2,1,C,6,S,6,S,9,0.789463,0.310315,0.244983
2,36,2,8,8,9,1,C,6,S,1,S,10,0.37668,0.755596,0.284618
2,37,9,2,1,8,1,I,7,L,7,L,14,0.775109,0.578325,0.448265
2,38,1,8,2,1,1,I,7,L,1,S,12,0.479111,0.784568,0.375895
2,39,8,9,9,2,0,I,1,S,7,L,12,0.779693,0.424083,0.330654
2,40,1,8,9,2,1,I,7,L,7,L,13,0.541829,0.772766,0.418707
2,41,8,1,9,1,1,C,7,L,8,L,8,0.766332,0.285599,0.218864
2,42,1,8,8,2,1,I,7,L,6,S,12,0.513883,0.757852,0.389447
2,43,1,2,2,8,1,C,1,S,6,S,9,0.32158,0.776186,0.249606
2,44,8,2,1,8,1,I,6,S,7,L,16,0.766247,0.615818,0.471869
2,45,2,1,8,9,1,I,1,S,1,S,15,0.756232,0.492455,0.37241
2,46,2,8,8,2,1,I,6,S,6,S,14,0.570537,0.754406,0.430416
2,47,2,9,2,8,1,C,7,L,6,S,9,0.26963,0.845095,0.227863
2,48,8,9,1,8,1,C,1,S,7,L,10,0.354743,0.785638,0.278699
2,49,9,8,8,1,1,C,1,S,7,L,9,0.780323,0.316853,0.247248
2,50,8,9,2,9,1,C,1,S,7,L,11,0.401962,0.757199,0.304365
2,51,8,1,9,8,1,C,7,L,1,S,11,0.765937,0.441383,0.338072
2,52,2,9,2,9,1,C,7,L,7,L,9,0.307475,0.793731,0.244053
2,53,8,2,9,2,1,C,6,S,7,L,9,0.810019,0.295867,0.239658
2,54,8,9,8,1,0,I,1,S,7,L,11,0.752994,0.420345,0.316518
2,55,9,2,2,9,1,I,7,L,7,L,12,0.783839,0.485941,0.3809
2,56,8,1,8,1,1,C,7,L,7,L,8,0.751763,0.295572,0.2222
2,57,2,1,1,8,0,I,1,S,7,L,12,0.458898,0.769375,0.353065
2,58,9,1,9,1,1,C,8,L,8,L,8,0.806047,0.256512,0.206761
2,59,2,9,9,2,1,I,7,L,7,L,14,0.565881,0.770758,0.436157
2,60,2,1,2,8,0,I,1,S,6,S,13,0.499839,0.755654,0.377706
2,61,9,1,2,8,1,I,8,L,6,S,12,0.771782,0.52247,0.403233
2,62,9,1,9,2,1,C,8,L,7,L,8,0.782712,0.272875,0.213583
2,63,8,1,9,2,1,C,7,L,7,L,9,0.851721,0.26566,0.226269
2,64,1,8,2,8,1,C,7,L,6,S,8,0.288604,0.760638,0.219523
2,65,8,9,2,1,0,I,1,S,1,S,13,0.751444,0.466042,0.350204
2,66,9,2,9,1,1,C,7,L,8,L,8,0.778131,0.276147,0.214879
2,67,9,1,1,8,1,I,8,L,7,L,13,0.779395,0.554333,0.432044
2,68,2,8,1,2,1,C,6,S,1,S,10,0.355687,0.774519,0.275487
2,69,2,9,9,8,1,I,7,L,1,S,9,0.333457,0.75808,0.252787
2,70,2,8,2,1,1,I,6,S,1,S,13,0.534943,0.750992,0.401738
2,71,8,9,1,9,1,C,1,S,8,L,11,0.361532,0.808815,0.292413
2,72,9,8,1,2,1,I,1,S,1,S,13,0.789979,0.445627,0.352036
2,73,2,1,2,9,1,I,1,S,7,L,21,0.754003,0.64785,0.488481
2,74,1,2,2,1,1,I,1,S,1,S,16,0.580024,0.772317,0.447963
2,75,1,2,1,8,1,C,1,S,7,L,9,0.298682,0.805155,0.240485
2,76,1,2,8,9,1,C,1,S,1,S,11,0.387528,0.772287,0.299283
2,77,2,9,8,2,1,I,7,L,6,S,13,0.541521,0.759001,0.411015
2,78,9,2,1,2,1,I,7,L,1,S,10,0.766231,0.38203,0.292723
2,79,1,2,8,2,1,I,1,S,6,S,17,0.603307,0.772029,0.46577
2,80,8,9,9,1,0,I,1,S,8,L,11,0.770915,0.40759,0.314217
2,81,2,1,1,2,1,I,1,S,1,S,17,0.75517,0.55641,0.420184
2,82,2,8,2,9,1,C,6,S,7,L,9,0.329703,0.766049,0.252569
2,83,2,1,8,1,1,C,1,S,7,L,10,0.791005,0.349325,0.276318
2,84,8,1,1,9,1,I,7,L,8,L,13,0.759836,0.553964,0.420922
2,85,1,8,2,9,1,C,7,L,7,L,9,0.288186,0.820914,0.236576
2,86,9,8,9,1,1,C,1,S,8,L,9,0.796802,0.305533,0.243449
2,87,8,9,9,8,1,I,1,S,1,S,12,0.414873,0.762218,0.316224
2,88,1,2,9,8,1,I,1,S,1,S,10,0.357699,0.769991,0.275425
2,89,9,2,8,9,1,I,7,L,1,S,10,0.787224,0.363108,0.285847
2,90,1,9,8,9,1,C,8,L,1,S,9,0.339183,0.758607,0.257306
2,91,9,8,2,9,1,I,1,S,7,L,16,0.774775,0.582323,0.451169
2,92,8,2,8,9,1,I,6,S,1,S,11,0.784773,0.393359,0.308697
2,93,2,9,2,1,1,I,7,L,1,S,12,0.50269,0.752394,0.378221
2,94,1,2,9,2,1,I,1,S,7,L,17,0.622544,0.756603,0.471019
2,95,1,9,9,8,1,I,8,L,1,S,9,0.298012,0.805668,0.240099
2,96,1,8,1,8,1,C,7,L,7,L,8,0.267788,0.786675,0.210662
2,97,9,1,8,1,1,C,8,L,7,L,8,0.791479,0.266484,0.210917
2,98,9,8,1,8,1,I,1,S,7,L,18,0.76275,0.635819,0.484971
2,99,9,1,8,9,1,I,8,L,1,S,10,0.821318,0.338917,0.278359
2,100,9,2,2,1,1,C,7,L,1,S,9,0.818708,0.28983,0.237286
2,101,9,2,9,2,1,C,7,L,7,L,8,0.754797,0.292511,0.220786
2,102,9,2,8,2,1,C,7,L,6,S,9,0.84501,0.269302,0.227563
2,103,8,9,8,2,0,I,1,S,6,S,12,0.755302,0.441844,0.333726
2,104,8,2,2,9,1,I,6,S,7,L,13,0.750022,0.541091,0.40583
2,105,2,8,9,1,1,I,6,S,8,L,16,0.60944,0.77076,0.469733
2,106,9,8,8,2,1,C,1,S,6,S,10,0.843258,0.30237,0.254976
2,107,1,9,2,8,1,C,8,L,6,S,8,0.27425,0.778342,0.213461
2,108,8,1,1,2,1,I,7,L,1,S,10,0.751093,0.393781,0.295766
2,109,2,9,1,8,1,C,7,L,7,L,8,0.284202,0.763867,0.217092
2,110,1,8,8,1,1,I,7,L,7,L,13,0.552815,0.764322,0.422529
2,111,1,8,9,8,1,I,7,L,1,S,9,0.314168,0.785264,0.246705
2,112,9,8,2,8,1,I,1,S,6,S,17,0.757547,0.62612,0.474315
2,113,2,8,1,9,1,C,6,S,8,L,9,0.295498,0.809125,0.239095
2,114,2,8,1,8,1,C,6,S,7,L,9,0.26896,0.846382,0.227643
2,115,8,1,1,8,1,I,7,L,7,L,14,0.760667,0.590309,0.449028
2,116,8,1,8,2,1,C,7,L,6,S,9,0.831165,0.280108,0.232816
2,117,2,9,9,1,1,I,7,L,8,L,14,0.592795,0.750036,0.444618
2,118,8,1,8,9,1,I,7,L,1,S,10,0.772086,0.374858,0.289423
2,119,2,1,1,9,0,I,1,S,8,L,14,0.5267,0.753664,0.396955
2,120,8,1,2,1,1,C,7,L,1,S,9,0.804863,0.300636,0.241971
2,121,8,9,8,9,1,C,1,S,1,S,15,0.423557,0.792673,0.335742
2,122,1,2,8,1,1,I,1,S,7,L,18,0.621071,0.773224,0.480227
2,123,2,9,8,1,1,I,7,L,7,L,14,0.576369,0.762525,0.439496
2,124,2,8,9,8,1,I,6,S,1,S,10,0.322047,0.820184,0.264138
2,125,8,2,1,2,1,I,6,S,1,S,11,0.757607,0.419936,0.318147
2,126,1,8,1,9,1,C,7,L,8,L,8,0.291456,0.753464,0.219602
2,127,9,8,8,9,1,I,1,S,1,S,12,0.782698,0.416097,0.325678
2,128,8,2,9,8,1,C,6,S,1,S,12,0.755988,0.481223,0.363799
2,129,9,8,9,8,1,C,1,S,1,S,14,0.763651,0.528432,0.403537
2,130,1,9,9,1,1,I,8,L,8,L,13,0.552223,0.772984,0.426859
2,131,2,8,8,1,1,I,6,S,7,L,15,0.600545,0.756837,0.454515
2,132,2,9,1,9,1,C,7,L,8,L,9,0.27327,0.836807,0.228674
2,133,8,2,2,1,1,C,6,S,1,S,9,0.763161,0.330844,0.252487
2,134,1,9,2,1,1,I,8,L,1,S,11,0.455601,0.768176,0.349981
2,135,9,2,8,1,1,C,7,L,7,L,8,0.763563,0.28612,0.218471
2,136,8,9,1,2,1,C,1,S,1,S,14,0.408809,0.796524,0.325626
2,137,1,8,8,9,1,C,7,L,1,S,10,0.330186,0.817685,0.269988
2,138,2,9,1,2,1,C,7,L,1,S,10,0.330655,0.806397,0.266639
2,139,9,1,2,1,1,C,8,L,1,S,9,0.850527,0.267498,0.227515
2,140,9,1,1,2,1,I,8,L,1,S,10,0.800325,0.35784,0.286388
2,141,9,8,9,2,1,C,1,S,7,L,9,0.770175,0.324179,0.249675
2,142,1,9,8,1,1,I,8,L,7,L,12,0.531503,0.75387,0.400685
2,143,2,1,2,1,1,C,1,S,1,S,11,0.798702,0.367484,0.29351
2,144,8,9,2,8,1,C,1,S,6,S,10,0.378879,0.755263,0.286153
3,1,9,1,8,2,1,C,8,L,6,S,9,0.836654,0.275238,0.230279
3,2,9,2,9,2,1,C,7,L,7,L,9,0.812431,0.289134,0.234901
3,3,8,9,9,8,1,I,1,S,1,S,14,0.436495,0.78582,0.343006
3,4,2,8,1,2,1,C,6,S,1,S,9,0.32252,0.771571,0.248847
3,5,9,2,8,2,1,C,7,L,6,S,9,0.820959,0.283052,0.232374
3,6,1,9,2,9,1,C,8,L,7,L,8,0.267904,0.791042,0.211923
3,7,8,1,9,2,1,C,7,L,7,L,8,0.751674,0.295457,0.222087
3,8,8,2,1,9,1,I,6,S,8,L,14,0.774739,0.575356,0.445751
3,9,8,2,1,8,1,I,6,S,7,L,14,0.775929,0.572746,0.44441
3,10,1,2,2,8,1,C,1,S,6,S,10,0.327,0.806077,0.263587
3,11,9,2,8,1,1,C,7,L,7,L,9,0.830386,0.275921,0.229121
3,12,2,8,2,9,1,C,6,S,7,L,9,0.304274,0.795082,0.241923
3,13,9,2,1,9,1,I,7,L,8,L,15,0.761758,0.601525,0.458216
3,14,9,2,1,8,1,I,7,L,7,L,15,0.762984,0.598935,0.456978
3,15,2,8,9,8,1,I,6,S,1,S,11,0.363467,0.814816,0.296159
3,16,8,2,2,8,1,I,6,S,6,S,12,0.766163,0.498242,0.381734
3,17,1,2,8,9,1,C,1,S,1,S,13,0.440116,0.782644,0.344454
3,18,2,8,1,9,1,C,6,S,8,L,9,0.261142,0.857747,0.223994
3,19,2,1,1,2,0,I,1,S,1,S,15,0.517602,0.753904,0.390222
3,20,9,1,1,2,1,I,8,L,1,S,12,0.766637,0.488408,0.374432
3,21,9,8,1,9,0,I,1,S,8,L,10,0.385595,0.755441,0.291294
3,22,1,8,9,8,1,I,7,L,1,S,10,0.336866,0.817866,0.275511
3,23,9,8,9,8,1,C,1,S,1,S,20,0.761624,0.479623,0.365292
3,24,8,9,9,2,1,I,1,S,7,L,21,0.640229,0.765998,0.490414
3,25,2,8,8,1,1,I,6,S,7,L,14,0.579847,0.7558,0.438248
3,26,1,8,9,2,1,I,7,L,7,L,12,0.50425,0.779451,0.393038
3,27,8,9,2,8,1,C,1,S,6,S,10,0.367372,0.758285,0.278573
3,28,9,1,2,9,1,I,8,L,7,L,13,0.775757,0.524514,0.406896
3,29,1,2,8,2,1,I,1,S,6,S,18,0.625098,0.761955,0.476296
3,30,2,9,1,8,1,C,7,L,7,L,8,0.258657,0.801426,0.207295
3,31,9,2,9,1,1,C,7,L,8,L,9,0.822515,0.28148,0.231522
3,32,1,8,1,2,1,C,7,L,1,S,9,0.279697,0.833427,0.233107
3,33,1,9,2,1,1,I,8,L,1,S,9,0.352672,0.762718,0.268989
3,34,9,8,2,8,0,I,1,S,6,S,12,0.408192,0.782743,0.319509
3,35,9,8,1,8,0,I,1,S,7,L,10,0.386396,0.753001,0.290957
3,36,8,2,2,9,1,I,6,S,7,L,12,0.764482,0.501986,0.38376
3,37,2,9,9,8,1,I,7,L,1,S,10,0.334443,0.819258,0.273995
3,38,8,1,1,8,1,I,7,L,7,L,13,0.763257,0.56402,0.430493
3,39,2,1,2,9,0,I,1,S,7,L,13,0.471926,0.756304,0.356919
3,40,8,1,1,2,1,I,7,L,1,S,11,0.76578,0.456064,0.349245
3,41,1,8,2,1,1,I,7,L,1,S,10,0.378744,0.77899,0.295038
3,42,2,1,9,8,1,C,1,S,1,S,15,0.783946,0.432551,0.339096
3,43,8,9,8,2,1,I,1,S,6,S,21,0.645955,0.761202,0.491703
3,44,2,8,9,2,1,I,6,S,7,L,14,0.560681,0.770968,0.432267
3,45,2,9,9,2,1,I,7,L,7,L,12,0.502061,0.780586,0.391902
3,46,2,9,8,9,1,C,7,L,1,S,10,0.352663,0.803711,0.283439
3,47,9,8,9,2,1,C,1,S,7,L,11,0.759917,0.406693,0.309053
3,48,1,2,8,1,1,I,1,S,7,L,18,0.632364,0.755631,0.477834
3,49,9,8,8,9,1,I,1,S,1,S,17,0.783405,0.456228,0.357411
3,50,1,2,2,9,1,C,1,S,7,L,10,0.325822,0.809269,0.263677
3,51,2,9,1,2,1,C,7,L,1,S,9,0.277255,0.834812,0.231456
3,52,1,9,8,1,1,I,8,L,7,L,11,0.482149,0.776219,0.374253
3,53,8,9,9,1,1,I,1,S,8,L,21,0.646478,0.760406,0.491585
3,54,1,8,9,1,1,I,7,L,8,L,12,0.515918,0.770414,0.397471
3,55,8,2,1,2,1,I,6,S,1,S,12,0.789005,0.469633,0.370543
3,56,9,1,9,8,1,C,8,L,1,S,10,0.783891,0.355467,0.278647
3,57,8,2,8,1,1,C,6,S,7,L,8,0.754885,0.289308,0.218394
3,58,8,9,1,2,1,C,1,S,1,S,11,0.355076,0.809773,0.287531
3,59,8,1,2,1,1,C,7,L,1,S,9,0.772836,0.324751,0.250979
3,60,8,1,1,9,1,I,7,L,8,L,13,0.762124,0.566636,0.431847
3,61,1,2,1,2,1,C,1,S,1,S,10,0.346909,0.781455,0.271094
3,62,1,9,8,9,1,C,8,L,1,S,9,0.336043,0.780364,0.262236
3,63,9,8,2,1,1,C,1,S,1,S,15,0.781893,0.443317,0.346626
3,64,9,2,2,9,1,I,7,L,7,L,13,0.755622,0.536476,0.405373
3,65,2,1,8,2,1,C,1,S,6,S,11,0.814891,0.358184,0.291881
3,66,9,8,9,1,1,C,1,S,8,L,11,0.771539,0.39784,0.306949
3,67,2,9,2,9,1,C,7,L,7,L,9,0.259009,0.858324,0.222313
3,68,8,9,8,1,1,I,1,S,7,L,21,0.651575,0.756174,0.492704
3,69,9,8,1,2,0,I,1,S,1,S,12,0.431033,0.754134,0.325057
3,70,1,9,1,8,1,C,8,L,7,L,8,0.231209,0.842799,0.194863
3,71,8,2,8,2,1,C,6,S,6,S,9,0.856197,0.258831,0.221611
3,72,8,9,2,9,1,C,1,S,7,L,10,0.366194,0.761477,0.278848
3,73,2,8,2,8,1,C,6,S,6,S,9,0.305136,0.792334,0.24177
3,74,8,1,2,9,1,I,7,L,7,L,12,0.780979,0.492815,0.384878
3,75,9,2,1,2,1,I,7,L,1,S,13,0.780723,0.503844,0.393363
3,76,9,2,9,8,1,C,7,L,1,S,10,0.766048,0.364832,0.279479
3,77,8,2,8,9,1,I,6,S,1,S,10,0.823638,0.322123,0.265312
3,78,9,2,2,1,1,C,7,L,1,S,10,0.807927,0.325956,0.263349
3,79,2,9,8,1,1,I,7,L,7,L,12,0.522612,0.765002,0.399799
3,80,2,1,8,9,1,I,1,S,1,S,14,0.793505,0.415314,0.329554
3,81,9,1,1,9,1,I,8,L,8,L,14,0.754236,0.593298,0.447486
3,82,8,2,9,8,1,C,6,S,1,S,10,0.805418,0.33767,0.271965
3,83,8,2,2,1,1,C,6,S,1,S,9,0.758801,0.331401,0.251467
3,84,1,9,1,9,1,C,8,L,8,L,8,0.230778,0.844821,0.194966
3,85,1,9,9,2,1,I,8,L,7,L,11,0.461644,0.791487,0.365385
3,86,1,8,1,9,1,C,7,L,8,L,8,0.260596,0.802197,0.209049
3,87,1,8,1,8,1,C,7,L,7,L,8,0.261027,0.800175,0.208867
3,88,1,9,9,1,1,I,8,L,8,L,11,0.473266,0.782634,0.370394
3,89,1,9,1,2,1,C,8,L,1,S,8,0.282795,0.772628,0.218495
3,90,9,1,9,2,1,C,8,L,7,L,9,0.828125,0.28132,0.232968
3,91,2,1,8,1,1,C,1,S,7,L,10,0.759084,0.374898,0.284579
3,92,9,1,2,8,1,I,8,L,6,S,13,0.777607,0.520657,0.404866
3,93,9,2,2,8,1,I,7,L,6,S,13,0.757472,0.532618,0.403444
3,94,1,8,8,1,1,I,7,L,7,L,12,0.524801,0.763866,0.400878
3,95,2,8,1,8,1,C,6,S,7,L,9,0.261771,0.855478,0.223939
3,96,2,8,8,9,1,C,6,S,1,S,11,0.388653,0.793249,0.308299
3,97,8,9,2,1,1,I,1,S,1,S,17,0.555342,0.769923,0.42757
3,98,2,1,9,2,1,C,1,S,7,L,11,0.804991,0.365346,0.2941
3,99,8,9,1,9,1,C,1,S,8,L,10,0.318631,0.829973,0.264455
3,100,1,9,8,2,1,I,8,L,6,S,11,0.471543,0.784324,0.369843
3,101,2,9,8,2,1,I,7,L,6,S,12,0.512045,0.773224,0.395926
3,102,2,1,1,9,0,I,1,S,8,L,11,0.416807,0.768124,0.320159
3,103,8,2,9,2,1,C,6,S,7,L,9,0.847669,0.264913,0.224559
3,104,8,1,2,8,1,I,7,L,6,S,12,0.782661,0.48907,0.382776
3,105,9,1,8,9,1,I,8,L,1,S,10,0.802111,0.33992,0.272653
3,106,1,8,2,8,1,C,7,L,6,S,9,0.262313,0.85419,0.224065
3,107,1,2,1,8,1,C,1,S,7,L,9,0.315314,0.782353,0.246687
3,108,8,1,8,2,1,C,7,L,6,S,8,0.758862,0.290259,0.220267
3,109,9,8,2,9,0,I,1,S,7,L,12,0.406511,0.786487,0.319715
3,110,2,9,1,9,1,C,7,L,8,L,8,0.258227,0.803448,0.207472
3,111,2,9,2,8,1,C,7,L,6,S,9,0.259871,0.855575,0.222339
3,112,2,8,2,1,1,I,6,S,1,S,11,0.420935,0.763379,0.321333
3,113,2,9,9,1,1,I,7,L,8,L,12,0.513729,0.77155,0.396368
3,114,8,2,9,1,1,C,6,S,8,L,9,0.857753,0.257259,0.220665
3,115,1,8,8,2,1,I,7,L,6,S,12,0.514234,0.772088,0.397034
3,116,8,1,9,1,1,C,7,L,8,L,8,0.760188,0.288836,0.21957
3,117,2,9,2,1,1,I,7,L,1,S,10,0.376321,0.780383,0.293675
3,118,1,2,9,8,1,I,1,S,1,S,12,0.416981,0.767804,0.32016
3,119,1,2,1,9,1,C,1,S,8,L,9,0.314685,0.784622,0.246909
3,120,1,2,9,2,1,I,1,S,7,L,18,0.617873,0.767893,0.47446
3,121,2,1,2,1,1,C,1,S,1,S,13,0.788869,0.405458,0.319853
3,122,2,8,9,1,1,I,6,S,8,L,14,0.571555,0.762186,0.435631
3,123,2,1,1,8,0,I,1,S,7,L,11,0.417749,0.76558,0.319821
3,124,9,1,9,1,1,C,8,L,8,L,9,0.83821,0.273666,0.22939
3,125,1,2,9,1,1,I,1,S,8,L,18,0.62599,0.760846,0.476282
3,126,1,8,2,9,1,C,7,L,7,L,9,0.261451,0.856938,0.224047
3,127,9,1,1,8,1,I,8,L,7,L,14,0.755425,0.590688,0.44622
3,128,2,1,2,8,0,I,1,S,6,S,13,0.473776,0.752447,0.356491
3,129,9,1,8,1,1,C,8,L,7,L,9,0.846081,0.268107,0.22684
3,130,9,8,8,2,1,C,1,S,6,S,11,0.769817,0.399531,0.307565
3,131,9,8,8,1,1,C,1,S,7,L,11,0.780422,0.391426,0.305477
3,132,9,2,8,9,1,I,7,L,1,S,10,0.784269,0.349284,0.273933
3,133,2,8,8,2,1,I,6,S,6,S,14,0.570085,0.763725,0.435389
3,134,8,1,9,8,1,C,7,L,1,S,10,0.820827,0.329901,0.270792
3,135,1,8,8,9,1,C,7,L,1,S,10,0.355086,0.802318,0.284892
3,136,9,1,2,1,1,C,8,L,1,S,10,0.825769,0.316592,0.261432
3,137,8,1,8,1,1,C,7,L,7,L,8,0.766954,0.284018,0.217828
3,138,1,9,9,8,1,I,8,L,1,S,9,0.323058,0.791255,0.255622
3,139,1,2,2,1,1,I,1,S,1,S,14,0.491091,0.772952,0.37959
3,140,8,9,8,9,1,C,1,S,1,S,15,0.489909,0.770584,0.377516
3,141,2,1,9,1,1,C,1,S,8,L,10,0.750514,0.38099,0.285938
3,142,1,9,2,8,1,C,8,L,6,S,8,0.268438,0.788802,0.211744
3,143,8,1,8,9,1,I,7,L,1,S,9,0.756207,0.342397,0.258923
3,144,8,9,1,8,1,C,1,S,7,L,10,0.319432,0.827533,0.26434
4,1,1,8,1,8,1,C,7,L,7,L,9,0.262943,0.853359,0.224385
4,2,2,1,9,8,1,C,1,S,1,S,12,0.814783,0.371461,0.30266
4,3,2,8,9,1,1,I,6,S,8,L,14,0.568182,0.775118,0.440408
4,4,9,8,1,9,1,I,1,S,8,L,22,0.750137,0.656078,0.492149
4,5,1,2,2,9,1,C,1,S,7,L,11,0.367456,0.793834,0.2917
4,6,2,8,2,8,1,C,6,S,6,S,9,0.291587,0.817142,0.238268
4,7,8,1,9,8,1,C,7,L,1,S,9,0.789172,0.316652,0.249893
4,8,1,9,8,9,1,C,8,L,1,S,9,0.332292,0.771027,0.256206
4,9,2,1,1,2,1,I,1,S,1,S,18,0.767751,0.581289,0.446285
4,10,9,8,9,2,1,C,1,S,7,L,10,0.766873,0.365599,0.280368
4,11,9,1,1,2,1,I,8,L,1,S,10,0.775984,0.383809,0.29783
4,12,2,1,2,1,1,C,1,S,1,S,12,0.7611,0.411359,0.313085
4,13,2,9,2,1,1,I,7,L,1,S,10,0.356401,0.798693,0.284655
4,14,9,2,8,1,1,C,7,L,7,L,9,0.843918,0.26606,0.224532
4,15,2,1,9,2,1,C,1,S,7,L,10,0.781194,0.353877,0.276446
4,16,2,9,8,9,1,C,7,L,1,S,9,0.343227,0.756815,0.25976
4,17,2,8,9,8,1,I,6,S,1,S,11,0.420085,0.779009,0.32725
4,18,1,2,9,8,1,I,1,S,1,S,22,0.62059,0.766764,0.475846
4,19,1,8,2,9,1,C,7,L,7,L,9,0.277601,0.833615,0.231412
4,20,9,2,9,2,1,C,7,L,7,L,9,0.854988,0.259771,0.222101
4,21,1,8,9,2,1,I,7,L,7,L,13,0.531808,0.78243,0.416103
4,22,1,9,8,2,1,I,8,L,6,S,11,0.445767,0.786138,0.350434
4,23,2,9,9,8,1,I,7,L,1,S,10,0.38839,0.77428,0.300723
4,24,1,8,8,1,1,I,7,L,7,L,12,0.514561,0.758209,0.390145
4,25,1,2,1,9,1,C,1,S,8,L,11,0.350592,0.815108,0.28577
4,26,8,9,1,9,1,C,1,S,8,L,10,0.334845,0.803151,0.268931
4,27,2,1,8,1,1,C,1,S,7,L,10,0.768766,0.361162,0.277649
4,28,8,1,8,1,1,C,7,L,7,L,8,0.752327,0.295158,0.222055
4,29,8,9,9,1,1,I,1,S,8,L,20,0.642315,0.764309,0.490927
4,30,9,1,1,9,1,I,8,L,8,L,12,0.781193,0.500527,0.391008
4,31,2,1,8,9,1,I,1,S,1,S,14,0.777288,0.443521,0.344743
4,32,1,9,9,2,1,I,8,L,7,L,11,0.489022,0.754983,0.369203
4,33,8,1,2,1,1,C,7,L,1,S,9,0.765854,0.334413,0.256111
4,34,9,8,1,2,1,I,1,S,1,S,19,0.754433,0.604041,0.455709
4,35,8,2,8,2,1,C,6,S,6,S,9,0.808804,0.295925,0.239345
4,36,2,9,2,9,1,C,7,L,7,L,9,0.259713,0.858489,0.222961
4,37,8,1,2,8,1,I,7,L,6,S,11,0.750241,0.485054,0.363907
4,38,8,2,9,2,1,C,6,S,7,L,9,0.843777,0.270746,0.22845
4,39,2,9,1,8,1,C,7,L,7,L,8,0.283695,0.766051,0.217325
4,40,8,1,1,8,1,I,7,L,7,L,12,0.771067,0.512589,0.395241
4,41,1,8,2,1,1,I,7,L,1,S,10,0.375812,0.771888,0.290085
4,42,8,9,2,1,1,I,1,S,1,S,14,0.477278,0.768263,0.366675
4,43,8,1,9,2,1,C,7,L,7,L,8,0.761562,0.290083,0.220916
4,44,9,2,8,9,1,I,7,L,1,S,10,0.793338,0.350867,0.278356
4,45,9,8,9,1,1,C,1,S,8,L,10,0.787104,0.349919,0.275423
4,46,1,8,1,9,1,C,7,L,8,L,9,0.263263,0.851378,0.224137
4,47,9,8,8,1,1,C,1,S,7,L,10,0.754445,0.372884,0.281321
4,48,9,1,2,9,1,I,8,L,7,L,11,0.760642,0.472776,0.359613
4,49,2,9,9,2,1,I,7,L,7,L,12,0.507576,0.777098,0.394436
4,50,9,8,9,8,1,C,1,S,1,S,12,0.790332,0.390402,0.308548
4,51,1,8,9,1,1,I,7,L,8,L,13,0.551936,0.766076,0.422825
4,52,1,9,2,1,1,I,8,L,1,S,10,0.344802,0.813681,0.280559
4,53,1,9,9,8,1,I,8,L,1,S,10,0.376791,0.789267,0.297389
4,54,9,1,9,2,1,C,8,L,7,L,8,0.769756,0.281395,0.216606
4,55,1,2,8,1,0,I,1,S,7,L,13,0.750775,0.478678,0.359379
4,56,8,9,2,9,1,C,1,S,7,L,10,0.350731,0.783117,0.274664
4,57,9,8,8,9,1,I,1,S,1,S,15,0.784421,0.449736,0.352783
4,58,1,8,1,2,1,C,7,L,1,S,9,0.326515,0.769001,0.25109
4,59,8,2,9,1,1,C,6,S,8,L,8,0.752216,0.293536,0.220803
4,60,8,2,9,8,1,C,6,S,1,S,9,0.759748,0.33561,0.254979
4,61,8,2,2,8,1,I,6,S,6,S,12,0.754772,0.51424,0.388134
4,62,9,8,8,2,1,C,1,S,6,S,11,0.798232,0.365504,0.291757
4,63,2,1,8,2,1,C,1,S,6,S,11,0.817366,0.350256,0.286287
4,64,2,1,9,1,1,C,1,S,8,L,10,0.801425,0.338196,0.271039
4,65,8,1,8,9,1,I,7,L,1,S,10,0.813274,0.341443,0.277687
4,66,2,8,1,2,1,C,6,S,1,S,9,0.340804,0.750537,0.255786
4,67,1,8,9,8,1,I,7,L,1,S,11,0.403652,0.800219,0.323009
4,68,9,1,9,8,1,C,8,L,1,S,9,0.798401,0.307282,0.245335
4,69,8,2,8,1,1,C,6,S,7,L,9,0.832708,0.277035,0.230689
4,70,9,8,2,9,1,I,1,S,7,L,22,0.759755,0.646093,0.490872
4,71,1,9,1,2,1,C,8,L,1,S,9,0.297691,0.808087,0.24056
4,72,2,9,9,1,1,I,7,L,8,L,12,0.528362,0.760553,0.401848
4,73,1,2,2,1,1,I,1,S,1,S,19,0.570677,0.757307,0.432178
4,74,9,2,9,1,1,C,7,L,8,L,8,0.761778,0.283627,0.216061
4,75,9,8,1,8,1,I,1,S,7,L,23,0.771427,0.642481,0.495627
4,76,2,8,8,9,1,C,6,S,1,S,10,0.354281,0.788119,0.279216
4,77,2,8,8,2,1,I,6,S,6,S,12,0.500303,0.761058,0.38076
4,78,9,2,9,8,1,C,7,L,1,S,9,0.770959,0.324635,0.25028
4,79,9,2,8,2,1,C,7,L,6,S,9,0.820015,0.28495,0.233663
4,80,1,2,9,2,0,I,1,S,7,L,13,0.764321,0.469955,0.359197
4,81,2,1,2,8,1,I,1,S,6,S,21,0.765999,0.638388,0.489005
4,82,2,9,8,2,1,I,7,L,6,S,11,0.457662,0.771001,0.352858
4,83,8,2,2,9,1,I,6,S,7,L,12,0.755715,0.511512,0.386557
4,84,2,1,1,8,1,I,1,S,7,L,21,0.755594,0.649305,0.490611
4,85,2,8,9,2,1,I,6,S,7,L,13,0.548429,0.761739,0.41776
4,86,2,8,1,8,1,C,6,S,7,L,9,0.277232,0.834894,0.23146
4,87,1,9,8,1,1,I,8,L,7,L,11,0.475775,0.763002,0.363017
4,88,1,8,8,9,1,C,7,L,1,S,10,0.338645,0.808455,0.273779
4,89,2,8,1,9,1,C,6,S,8,L,9,0.277552,0.832913,0.231177
4,90,1,2,8,9,1,C,1,S,1,S,14,0.44384,0.75465,0.334944
4,91,9,1,2,8,1,I,8,L,6,S,11,0.759887,0.475331,0.361198
4,92,9,1,8,2,1,C,8,L,6,S,9,0.847457,0.267597,0.226777
4,93,8,9,9,8,1,I,1,S,1,S,16,0.551286,0.770714,0.424883
4,94,9,1,1,8,1,I,8,L,7,L,12,0.780319,0.503086,0.392568
4,95,8,9,1,2,1,C,1,S,1,S,11,0.381059,0.774197,0.295015
4,96,9,8,2,1,1,C,1,S,1,S,13,0.799377,0.396095,0.316629
4,97,1,9,2,8,1,C,8,L,6,S,8,0.286137,0.764115,0.218642
4,98,2,8,2,1,1,I,6,S,1,S,10,0.391449,0.751553,0.294194
4,99,1,9,1,9,1,C,8,L,8,L,8,0.273936,0.777068,0.212867
4,100,9,2,1,8,1,I,7,L,7,L,13,0.782197,0.527799,0.412842
4,101,8,1,1,9,1,I,7,L,8,L,12,0.771941,0.51003,0.393713
4,102,8,9,8,9,1,C,1,S,1,S,12,0.419204,0.760187,0.318674
4,103,1,8,8,2,1,I,7,L,6,S,12,0.48357,0.782312,0.378303
4,104,9,1,9,1,1,C,8,L,8,L,8,0.785718,0.268687,0.211112
4,105,8,1,1,2,1,I,7,L,1,S,10,0.766302,0.393508,0.301546
4,106,9,8,2,8,1,I,1,S,6,S,22,0.758404,0.648706,0.491981
4,107,2,9,1,2,1,C,7,L,1,S,9,0.308626,0.793875,0.245011
4,108,8,2,1,8,1,I,6,S,7,L,13,0.770624,0.539231,0.415545
4,109,8,1,9,1,1,C,7,L,8,L,8,0.777524,0.277375,0.215666
4,110,1,2,9,1,0,I,1,S,8,L,12,0.7621,0.446213,0.340059
4,111,9,2,2,1,1,C,7,L,1,S,10,0.830505,0.314301,0.261028
4,112,2,9,2,8,1,C,7,L,6,S,8,0.296003,0.75143,0.222426
4,113,8,2,1,9,1,I,6,S,8,L,13,0.771625,0.536598,0.414052
4,114,1,9,1,8,1,C,8,L,7,L,8,0.273828,0.778737,0.21324
4,115,1,2,8,2,1,I,1,S,6,S,24,0.641945,0.766423,0.492002
4,116,9,2,1,9,1,I,7,L,8,L,12,0.7506,0.521319,0.391302
4,117,9,1,2,1,1,C,8,L,1,S,9,0.775083,0.325043,0.251935
4,118,2,8,2,9,1,C,6,S,7,L,9,0.29189,0.81515,0.237934
4,119,9,2,2,8,1,I,7,L,6,S,12,0.766965,0.502458,0.385368
4,120,2,8,8,1,1,I,6,S,7,L,13,0.534883,0.770462,0.412106
4,121,1,2,1,8,1,C,1,S,7,L,11,0.349876,0.817541,0.286038
4,122,8,9,8,2,1,I,1,S,6,S,18,0.622433,0.75431,0.469507
4,123,9,2,2,9,1,I,7,L,7,L,12,0.767908,0.499731,0.383747
4,124,9,1,8,9,1,I,8,L,1,S,10,0.822957,0.331744,0.273011
4,125,1,8,2,8,1,C,7,L,6,S,9,0.277298,0.835607,0.231712
4,126,2,9,8,1,1,I,7,L,7,L,12,0.493992,0.785588,0.388074
4,127,9,2,1,2,1,I,7,L,1,S,11,0.799014,0.398842,0.318681
4,128,8,2,8,9,1,I,6,S,1,S,10,0.78118,0.362487,0.283167
4,129,8,9,1,8,1,C,1,S,7,L,10,0.334317,0.805391,0.269256
4,130,1,2,2,8,1,C,1,S,6,S,11,0.366701,0.79639,0.292037
4,131,2,1,1,9,1,I,1,S,8,L,21,0.75685,0.646795,0.489527
4,132,8,2,2,1,1,C,6,S,1,S,10,0.818347,0.32592,0.266716
4,133,9,1,8,1,1,C,8,L,7,L,8,0.760522,0.28647,0.217867
4,134,2,1,2,9,1,I,1,S,7,L,21,0.767369,0.635731,0.48784
4,135,1,2,1,2,1,C,1,S,1,S,12,0.409832,0.758818,0.310988
4,136,8,1,8,2,1,C,7,L,6,S,9,0.838228,0.276967,0.232161
4,137,8,2,1,2,1,I,6,S,1,S,11,0.786574,0.410711,0.323054
4,138,1,9,9,1,1,I,8,L,8,L,12,0.516477,0.775378,0.400464
4,139,1,9,2,9,1,C,8,L,7,L,8,0.286209,0.762477,0.218228
4,140,2,9,1,9,1,C,7,L,8,L,8,0.283803,0.764382,0.216934
4,141,8,9,9,2,1,I,1,S,7,L,19,0.643518,0.752018,0.483937
4,142,8,9,2,8,1,C,1,S,6,S,10,0.350193,0.785425,0.27505
4,143,8,9,8,1,1,I,1,S,7,L,19,0.633089,0.759383,0.480757
4,144,8,1,2,9,1,I,7,L,7,L,11,0.750996,0.482498,0.362354
5,1,8,9,1,8,1,C,1,S,7,L,10,0.324393,0.814942,0.264361
5,2,2,1,9,1,1,C,1,S,8,L,10,0.791991,0.353168,0.279706
5,3,8,2,2,1,1,C,6,S,1,S,9,0.780832,0.314064,0.245232
5,4,2,8,2,1,1,I,6,S,1,S,11,0.413367,0.797669,0.32973
5,5,1,2,1,9,1,C,1,S,8,L,9,0.336149,0.75674,0.254378
5,6,8,2,1,2,1,I,6,S,1,S,11,0.775288,0.429453,0.33295
5,7,9,2,2,9,1,I,7,L,7,L,13,0.781519,0.528622,0.413128
5,8,9,2,8,2,1,C,7,L,6,S,9,0.840029,0.270445,0.227182
5,9,2,8,8,1,1,I,6,S,7,L,12,0.533011,0.753199,0.401464
5,10,8,9,9,2,1,I,1,S,7,L,22,0.647498,0.760596,0.492485
5,11,2,8,2,8,1,C,6,S,6,S,9,0.265532,0.851841,0.226191
5,12,8,2,1,9,1,I,6,S,8,L,14,0.776737,0.573761,0.445661
5,13,8,2,9,1,1,C,6,S,8,L,8,0.772382,0.277223,0.214122
5,14,1,9,8,2,1,I,8,L,6,S,11,0.462484,0.779717,0.360606
5,15,9,2,1,8,1,I,7,L,7,L,14,0.777807,0.570237,0.443535
5,16,9,1,8,2,1,C,8,L,6,S,9,0.851528,0.264934,0.225599
5,17,8,2,8,2,1,C,6,S,6,S,9,0.844069,0.266132,0.224634
5,18,9,1,9,1,1,C,8,L,8,L,8,0.778775,0.276785,0.215553
5,19,2,9,9,1,1,I,7,L,8,L,13,0.546387,0.781576,0.427044
5,20,1,9,2,9,1,C,8,L,7,L,8,0.26482,0.790756,0.209408
5,21,1,8,8,9,1,C,7,L,1,S,9,0.305169,0.804599,0.245539
5,22,8,1,8,9,1,I,7,L,1,S,10,0.774517,0.380989,0.295082
5,23,1,8,1,8,1,C,7,L,7,L,8,0.246798,0.817352,0.201721
5,24,8,2,8,1,1,C,6,S,7,L,8,0.755283,0.289083,0.218339
5,25,9,1,2,9,1,I,8,L,7,L,12,0.762365,0.517178,0.394278
5,26,1,9,1,2,1,C,8,L,1,S,9,0.269438,0.842811,0.227085
5,27,2,1,2,9,0,I,1,S,7,L,13,0.490996,0.753197,0.369816
5,28,1,2,8,1,1,I,1,S,7,L,21,0.637479,0.769591,0.490598
5,29,9,8,2,1,0,C,1,S,1,S,21,0.624483,0.761229,0.475374
5,30,1,9,8,9,1,C,8,L,1,S,9,0.297382,0.812946,0.241756
5,31,8,9,8,9,1,C,1,S,1,S,12,0.393575,0.780316,0.307113
5,32,9,2,2,1,1,C,7,L,1,S,9,0.776793,0.318377,0.247313
5,33,2,9,8,1,1,I,7,L,7,L,12,0.522276,0.764966,0.399524
5,34,9,2,8,1,1,C,7,L,7,L,8,0.751812,0.293031,0.220304
5,35,8,9,1,9,1,C,1,S,8,L,10,0.320202,0.822691,0.263428
5,36,8,2,8,9,1,I,6,S,1,S,10,0.762144,0.38722,0.295117
5,37,2,1,8,2,1,C,1,S,6,S,11,0.816922,0.356568,0.291288
5,38,2,9,2,8,1,C,7,L,6,S,8,0.29246,0.753321,0.220317
5,39,9,1,9,8,1,C,8,L,1,S,9,0.751636,0.345311,0.259548
5,40,9,1,8,9,1,I,8,L,1,S,10,0.770451,0.385294,0.29685
5,41,2,1,1,2,1,I,1,S,1,S,21,0.752146,0.637245,0.479301
5,42,9,1,2,1,1,C,8,L,1,S,9,0.788292,0.312866,0.24663
5,43,8,1,2,1,1,C,7,L,1,S,9,0.792121,0.308719,0.244543
5,44,8,9,2,1,1,I,1,S,1,S,19,0.603192,0.761123,0.459103
5,45,2,1,9,2,1,C,1,S,7,L,10,0.771649,0.3667,0.282964
5,46,8,1,9,2,1,C,7,L,7,L,8,0.765528,0.283685,0.217169
5,47,9,8,1,9,0,I,1,S,8,L,10,0.340552,0.804874,0.274102
5,48,1,9,8,1,1,I,8,L,7,L,11,0.488195,0.762073,0.37204
5,49,8,1,9,1,1,C,7,L,8,L,8,0.782113,0.272955,0.213482
5,50,9,8,1,8,0,I,1,S,7,L,10,0.344743,0.797125,0.274803
5,51,9,2,8,9,1,I,7,L,1,S,10,0.757803,0.391732,0.296856
5,52,9,8,9,8,0,C,1,S,1,S,17,0.532749,0.758506,0.404094
5,53,1,2,9,2,1,I,1,S,7,L,21,0.637052,0.769366,0.490126
5,54,2,8,8,9,1,C,6,S,1,S,9,0.333057,0.769133,0.256165
5,55,8,2,9,2,1,C,6,S,7,L,8,0.755798,0.287953,0.217634
5,56,9,2,2,8,1,I,7,L,6,S,12,0.756317,0.512629,0.387709
5,57,2,9,2,9,1,C,7,L,7,L,8,0.28808,0.761414,0.219348
5,58,1,9,2,1,1,I,8,L,1,S,10,0.376987,0.792806,0.298878
5,59,2,9,8,9,1,C,7,L,1,S,9,0.322947,0.780357,0.252014
5,60,1,8,1,9,1,C,7,L,8,L,8,0.243614,0.823909,0.200716
5,61,2,9,9,2,1,I,7,L,7,L,12,0.52277,0.763907,0.399347
5,62,2,8,1,8,1,C,6,S,7,L,8,0.271938,0.785833,0.213698
5,63,2,1,2,8,0,I,1,S,6,S,14,0.514769,0.753193,0.38772
5,64,2,1,9,8,1,C,1,S,1,S,13,0.767348,0.426966,0.327632
5,65,8,9,8,2,1,I,1,S,6,S,21,0.647506,0.750471,0.485935
5,66,9,8,8,1,1,C,1,S,7,L,13,0.765265,0.479857,0.367218
5,67,1,2,2,8,1,C,1,S,6,S,10,0.34801,0.77926,0.27119
5,68,8,1,1,2,1,I,7,L,1,S,11,0.788278,0.422558,0.333093
5,69,8,1,9,8,1,C,7,L,1,S,9,0.755466,0.341164,0.257738
5,70,2,1,8,1,1,C,1,S,7,L,10,0.771044,0.367869,0.283643
5,71,2,9,8,2,1,I,7,L,6,S,12,0.496244,0.783233,0.388675
5,72,1,2,1,8,1,C,1,S,7,L,10,0.31032,0.83288,0.25846
5,73,1,2,8,9,1,C,1,S,1,S,12,0.371902,0.809329,0.300991
5,74,2,1,1,9,0,I,1,S,8,L,11,0.435915,0.755492,0.32933
5,75,1,9,9,2,1,I,8,L,7,L,11,0.488763,0.760945,0.371921
5,76,9,1,9,2,1,C,8,L,7,L,8,0.762191,0.287515,0.219142
5,77,8,9,1,2,1,C,1,S,1,S,11,0.381402,0.76677,0.292448
5,78,2,1,8,9,1,I,1,S,1,S,19,0.755983,0.597071,0.451376
5,79,9,2,1,2,1,I,7,L,1,S,11,0.770892,0.434013,0.334577
5,80,1,9,9,1,1,I,8,L,8,L,12,0.516275,0.78279,0.404135
5,81,2,9,1,9,1,C,7,L,8,L,8,0.259568,0.802234,0.208234
5,82,9,8,2,9,0,I,1,S,7,L,10,0.376046,0.754522,0.283735
5,83,1,8,2,9,1,C,7,L,7,L,8,0.272126,0.78309,0.213099
5,84,8,2,1,8,1,I,6,S,7,L,13,0.752648,0.566606,0.426455
5,85,1,2,2,1,1,I,1,S,1,S,17,0.58501,0.75261,0.440285
5,86,2,1,2,1,1,C,1,S,1,S,12,0.795006,0.389877,0.309954
5,87,8,9,8,1,1,I,1,S,7,L,22,0.647998,0.760752,0.492965
5,88,1,9,9,8,1,I,8,L,1,S,9,0.342248,0.765021,0.261827
5,89,1,8,9,1,1,I,7,L,8,L,12,0.524045,0.774753,0.406006
5,90,8,9,2,9,1,C,1,S,7,L,10,0.355696,0.772339,0.274718
5,91,2,8,9,8,1,I,6,S,1,S,10,0.364125,0.789716,0.287556
5,92,8,2,2,8,1,I,6,S,6,S,12,0.760575,0.508146,0.386483
5,93,9,2,9,2,1,C,7,L,7,L,8,0.752328,0.291901,0.219605
5,94,8,1,1,9,1,I,7,L,8,L,13,0.761103,0.566816,0.431405
5,95,2,8,8,2,1,I,6,S,6,S,12,0.506979,0.771466,0.391117
5,96,2,1,1,8,0,I,1,S,7,L,12,0.447024,0.776321,0.347034
5,97,8,1,2,8,1,I,7,L,6,S,12,0.773799,0.500805,0.387522
5,98,9,1,1,2,1,I,8,L,1,S,11,0.784202,0.42688,0.33476
5,99,1,9,2,8,1,C,8,L,6,S,8,0.2692,0.782663,0.210693
5,100,1,8,8,2,1,I,7,L,6,S,11,0.470454,0.771293,0.362858
5,101,9,8,8,2,1,C,1,S,6,S,14,0.751503,0.514692,0.386792
5,102,9,8,9,2,1,C,1,S,7,L,13,0.76566,0.478885,0.366663
5,103,1,8,9,2,1,I,7,L,7,L,11,0.496733,0.752521,0.373802
5,104,8,9,9,8,1,I,1,S,1,S,15,0.495602,0.753823,0.373597
5,105,2,8,1,9,1,C,6,S,8,L,8,0.268754,0.79239,0.212958
5,106,1,8,8,1,1,I,7,L,7,L,11,0.496165,0.753648,0.373934
5,107,1,2,9,8,1,I,1,S,1,S,14,0.473595,0.759214,0.35956
5,108,1,8,1,2,1,C,7,L,1,S,9,0.277225,0.834463,0.231334
5,109,9,2,1,9,1,I,7,L,8,L,14,0.773101,0.577833,0.446723
5,110,1,2,2,9,1,C,1,S,7,L,10,0.341624,0.790277,0.269978
5,111,8,9,9,1,0,I,1,S,8,L,13,0.750197,0.504015,0.37811
5,112,9,8,9,1,1,C,1,S,8,L,12,0.766861,0.452872,0.34729
5,113,8,2,2,9,1,I,6,S,7,L,12,0.753059,0.520293,0.391812
5,114,8,1,2,9,1,I,7,L,7,L,12,0.766283,0.512953,0.393067
5,115,9,1,2,8,1,I,8,L,6,S,12,0.769881,0.50503,0.388813
5,116,9,8,1,2,0,I,1,S,1,S,12,0.374259,0.810031,0.303161
5,117,1,9,1,8,1,C,8,L,7,L,8,0.239492,0.825019,0.197585
5,118,9,2,9,1,1,C,7,L,8,L,8,0.768912,0.281171,0.216195
5,119,2,8,1,2,1,C,6,S,1,S,9,0.305112,0.798997,0.243784
5,120,9,1,1,9,1,I,8,L,8,L,13,0.757458,0.57086,0.432402
5,121,9,1,1,8,1,I,8,L,7,L,13,0.762178,0.563057,0.42915
5,122,1,8,2,1,1,I,7,L,1,S,10,0.38498,0.784241,0.301917
5,123,1,2,8,2,1,I,1,S,6,S,20,0.634446,0.760666,0.482601
5,124,2,9,2,1,1,I,7,L,1,S,10,0.403923,0.758674,0.306446
5,125,2,9,9,8,1,I,7,L,1,S,10,0.353479,0.801656,0.283368
5,126,1,9,1,9,1,C,8,L,8,L,8,0.236308,0.831575,0.196508
5,127,2,8,9,1,1,I,6,S,8,L,13,0.556802,0.77041,0.428966
5,128,2,8,9,2,1,I,6,S,7,L,12,0.533505,0.75214,0.40127
5,129,2,8,2,9,1,C,6,S,7,L,8,0.297267,0.75157,0.223417
5,130,8,2,9,8,1,C,6,S,1,S,10,0.825496,0.319739,0.263943
5,131,9,1,8,1,1,C,8,L,7,L,8,0.761676,0.288645,0.219854
5,132,9,8,2,8,0,I,1,S,6,S,11,0.354389,0.814111,0.288512
5,133,2,9,1,2,1,C,7,L,1,S,9,0.295002,0.810222,0.239017
5,134,2,9,1,8,1,C,7,L,7,L,8,0.262752,0.795677,0.209065
5,135,1,2,9,1,1,I,1,S,8,L,21,0.649912,0.759486,0.493599
5,136,8,1,8,1,1,C,7,L,7,L,8,0.765013,0.284815,0.217887
5,137,1,8,9,8,1,I,7,L,1,S,9,0.350035,0.756673,0.264862
5,138,1,8,2,8,1,C,7,L,6,S,8,0.276507,0.774997,0.214292
5,139,9,8,8,9,0,I,1,S,1,S,13,0.388312,0.813529,0.315903
5,140,8,9,2,8,1,C,1,S,6,S,10,0.362082,0.761322,0.275661
5,141,8,1,8,2,1,C,7,L,6,S,9,0.855358,0.260787,0.223066
5,142,1,2,1,2,1,C,1,S,1,S,11,0.363501,0.790173,0.287229
5,143,8,1,1,8,1,I,7,L,7,L,13,0.765823,0.559013,0.428105
5,144,9,2,9,8,1,C,7,L,1,S,10,0.821154,0.324251,0.26626
6,1,8,1,2,1,1,C,7,L,1,S,9,0.765659,0.328808,0.251755
6,2,1,8,8,1,1,I,7,L,7,L,12,0.520809,0.766053,0.398967
6,3,2,8,9,8,1,I,6,S,1,S,10,0.397077,0.755875,0.300141
6,4,8,2,9,8,1,C,6,S,1,S,10,0.817639,0.323282,0.264328
6,5,1,2,1,2,1,C,1,S,1,S,12,0.424304,0.754052,0.319947
6,6,9,8,2,1,1,C,1,S,1,S,15,0.761649,0.471467,0.359092
6,7,2,1,1,9,0,I,1,S,8,L,12,0.415918,0.788708,0.328038
6,8,2,9,1,8,1,C,7,L,7,L,9,0.264242,0.855014,0.225931
6,9,2,9,2,9,1,C,7,L,7,L,8,0.296933,0.750868,0.222957
6,10,9,2,8,2,1,C,7,L,6,S,9,0.802291,0.301475,0.241871
6,11,2,1,2,1,1,C,1,S,1,S,13,0.758998,0.430517,0.326761
6,12,9,2,9,8,1,C,7,L,1,S,10,0.820062,0.320764,0.263047
6,13,2,8,2,1,1,I,6,S,1,S,10,0.399751,0.75431,0.301536
6,14,1,9,9,2,1,I,8,L,7,L,12,0.528468,0.76078,0.402048
6,15,1,9,8,1,1,I,8,L,7,L,12,0.518135,0.769814,0.398867
6,16,1,2,9,2,1,I,1,S,7,L,20,0.649113,0.754602,0.489822
6,17,1,2,9,1,1,I,1,S,8,L,21,0.647541,0.76655,0.496372
6,18,9,8,1,9,0,I,1,S,8,L,11,0.391733,0.784023,0.307128
6,19,2,1,8,9,1,I,1,S,1,S,26,0.756159,0.648817,0.490609
6,20,8,1,2,9,1,I,7,L,7,L,12,0.750022,0.526352,0.394775
6,21,2,9,9,1,1,I,7,L,8,L,13,0.562722,0.763201,0.42947
6,22,1,8,9,2,1,I,7,L,7,L,12,0.531142,0.757019,0.402085
6,23,2,8,2,8,1,C,6,S,6,S,9,0.270405,0.842903,0.227925
6,24,1,8,1,9,1,C,7,L,8,L,8,0.289205,0.765762,0.221462
6,25,8,2,2,1,1,C,6,S,1,S,10,0.820312,0.321717,0.263908
6,26,9,1,8,9,1,I,8,L,1,S,10,0.75513,0.399819,0.301915
6,27,1,8,8,2,1,I,7,L,6,S,11,0.482221,0.751981,0.362621
6,28,9,1,1,2,1,I,8,L,1,S,10,0.794272,0.354485,0.281558
6,29,1,2,9,8,1,I,1,S,1,S,16,0.5413,0.768505,0.415992
6,30,1,9,1,2,1,C,8,L,1,S,9,0.349447,0.754295,0.263586
6,31,2,9,1,9,1,C,7,L,8,L,8,0.294314,0.757692,0.222999
6,32,1,2,8,1,1,I,1,S,7,L,20,0.644024,0.760002,0.489459
6,33,8,1,1,8,1,I,7,L,7,L,12,0.755399,0.519422,0.392371
6,34,1,9,8,9,1,C,8,L,1,S,9,0.32109,0.786578,0.252563
6,35,1,8,8,9,1,C,7,L,1,S,9,0.323372,0.783163,0.253253
6,36,9,2,1,9,1,I,7,L,8,L,14,0.772718,0.566486,0.437734
6,37,1,8,9,8,1,I,7,L,1,S,10,0.387793,0.769917,0.298569
6,38,1,2,2,9,1,C,1,S,7,L,10,0.339502,0.798242,0.271005
6,39,2,1,8,2,1,C,1,S,6,S,11,0.760514,0.400509,0.304592
6,40,2,1,2,8,0,I,1,S,6,S,12,0.432149,0.761232,0.328966
6,41,2,1,9,8,1,C,1,S,1,S,13,0.754039,0.433654,0.326992
6,42,9,8,8,2,1,C,1,S,6,S,12,0.774334,0.423707,0.328091
6,43,8,1,8,2,1,C,7,L,6,S,9,0.831949,0.279716,0.23271
6,44,8,2,8,9,1,I,6,S,1,S,11,0.769986,0.424443,0.326815
6,45,9,8,8,1,1,C,1,S,7,L,11,0.760961,0.412867,0.314175
6,46,2,8,1,9,1,C,6,S,8,L,8,0.296411,0.754566,0.223662
6,47,9,1,1,9,1,I,8,L,8,L,13,0.778864,0.537999,0.419028
6,48,8,9,8,1,0,I,1,S,7,L,12,0.77914,0.430671,0.335553
6,49,9,1,2,1,1,C,8,L,1,S,9,0.767287,0.326918,0.25084
6,50,2,8,8,2,1,I,6,S,6,S,12,0.49826,0.775717,0.386509
6,51,1,2,8,9,1,C,1,S,1,S,11,0.395569,0.759739,0.300529
6,52,8,9,9,1,0,I,1,S,8,L,11,0.773393,0.410413,0.31741
6,53,8,9,1,2,1,C,1,S,1,S,15,0.458163,0.758534,0.347532
6,54,2,8,1,2,1,C,6,S,1,S,10,0.336679,0.815617,0.274601
6,55,2,9,8,2,1,I,7,L,6,S,12,0.495337,0.779829,0.386279
6,56,9,1,9,1,1,C,8,L,8,L,8,0.776044,0.275775,0.214013
6,57,1,2,1,8,1,C,1,S,7,L,10,0.344469,0.791696,0.272715
6,58,8,9,1,8,1,C,1,S,7,L,11,0.381484,0.790316,0.301493
6,59,8,2,2,8,1,I,6,S,6,S,13,0.757613,0.541068,0.40992
6,60,9,1,2,8,1,I,8,L,6,S,12,0.762806,0.506712,0.386523
6,61,8,2,9,1,1,C,6,S,8,L,9,0.856364,0.262062,0.22442
6,62,8,2,1,8,1,I,6,S,7,L,13,0.751552,0.551986,0.414846
6,63,1,9,1,8,1,C,8,L,7,L,8,0.293714,0.75699,0.222339
6,64,2,9,2,8,1,C,7,L,6,S,9,0.267963,0.846536,0.22684
6,65,2,1,1,8,0,I,1,S,7,L,12,0.426412,0.772029,0.329203
6,66,1,9,9,1,1,I,8,L,8,L,13,0.552859,0.777085,0.429618
6,67,8,9,8,9,1,C,1,S,1,S,13,0.423815,0.778315,0.329861
6,68,2,1,1,2,1,I,1,S,1,S,21,0.762378,0.555484,0.423488
6,69,9,2,2,9,1,I,7,L,7,L,14,0.778205,0.556831,0.433329
6,70,1,9,1,9,1,C,8,L,8,L,8,0.287223,0.768746,0.220802
6,71,9,2,2,8,1,I,7,L,6,S,13,0.760025,0.538545,0.409308
6,72,9,8,1,8,0,I,1,S,7,L,11,0.401707,0.767655,0.308372
6,73,2,1,9,1,1,C,1,S,8,L,10,0.763922,0.372694,0.28471
6,74,2,9,8,9,1,C,7,L,1,S,9,0.329336,0.773855,0.254858
6,75,2,9,9,2,1,I,7,L,7,L,13,0.54141,0.779354,0.42195
6,76,9,8,2,9,0,I,1,S,7,L,11,0.396454,0.774531,0.307065
6,77,2,8,9,1,1,I,6,S,8,L,13,0.565646,0.759182,0.429428
6,78,2,9,2,1,1,I,7,L,1,S,10,0.397057,0.758266,0.301075
6,79,2,8,8,9,1,C,6,S,1,S,9,0.331777,0.770222,0.255542
6,80,9,1,9,8,1,C,8,L,1,S,9,0.765281,0.328001,0.251013
6,81,2,1,8,1,1,C,1,S,7,L,11,0.792522,0.377145,0.298896
6,82,1,2,8,2,1,I,1,S,6,S,19,0.6355,0.754504,0.479487
6,83,8,1,9,8,1,C,7,L,1,S,9,0.763652,0.329891,0.251922
6,84,2,8,2,9,1,C,6,S,7,L,9,0.262181,0.857274,0.224761
6,85,1,8,9,1,1,I,7,L,8,L,13,0.555524,0.773423,0.429655
6,86,9,1,1,8,1,I,8,L,7,L,12,0.757069,0.517509,0.39179
6,87,1,9,2,9,1,C,8,L,7,L,8,0.289842,0.761922,0.220837
6,88,2,8,9,2,1,I,6,S,7,L,13,0.544334,0.775335,0.422042
6,89,9,8,9,2,1,C,1,S,7,L,11,0.771418,0.403852,0.311538
6,90,1,8,2,8,1,C,7,L,6,S,9,0.262,0.855844,0.224231
6,91,9,8,9,1,1,C,1,S,8,L,11,0.793616,0.387751,0.307726
6,92,9,1,9,2,1,C,8,L,7,L,8,0.758209,0.288353,0.218632
6,93,2,8,1,8,1,C,6,S,7,L,9,0.266684,0.851381,0.22705
6,94,2,1,2,9,0,I,1,S,7,L,12,0.421035,0.778959,0.327969
6,95,8,2,9,2,1,C,6,S,7,L,9,0.836075,0.276345,0.231046
6,96,1,8,1,8,1,C,7,L,7,L,8,0.295696,0.754007,0.222957
6,97,8,9,2,1,1,I,1,S,1,S,24,0.64574,0.751085,0.485006
6,98,8,9,8,2,0,I,1,S,6,S,13,0.777816,0.45174,0.351371
6,99,9,8,1,2,0,I,1,S,1,S,17,0.474549,0.754217,0.357913
6,100,1,9,8,2,1,I,8,L,6,S,11,0.479599,0.755758,0.362461
6,101,9,2,8,9,1,I,7,L,1,S,11,0.772524,0.421848,0.325888
6,102,8,2,2,9,1,I,6,S,7,L,14,0.775969,0.559239,0.433952
6,103,8,9,9,2,0,I,1,S,7,L,11,0.751196,0.426513,0.320395
6,104,8,2,8,2,1,C,6,S,6,S,9,0.80013,0.303825,0.243099
6,105,8,2,1,2,1,I,6,S,1,S,10,0.757241,0.383024,0.290041
6,106,2,9,9,8,1,I,7,L,1,S,10,0.394384,0.759831,0.299665
6,107,9,2,2,1,1,C,7,L,1,S,10,0.822735,0.319199,0.262617
6,108,9,2,1,8,1,I,7,L,7,L,13,0.753964,0.549463,0.414275
6,109,1,9,9,8,1,I,8,L,1,S,10,0.385299,0.773591,0.298063
6,110,9,2,8,1,1,C,7,L,7,L,9,0.828879,0.282152,0.23387
6,111,9,2,9,1,1,C,7,L,8,L,9,0.858524,0.259713,0.222969
6,112,2,8,8,1,1,I,6,S,7,L,12,0.530911,0.751492,0.398975
6,113,9,8,9,8,1,C,1,S,1,S,15,0.755802,0.475297,0.359231
6,114,8,9,2,8,1,C,1,S,6,S,11,0.386724,0.779928,0.301617
6,115,8,1,9,2,1,C,7,L,7,L,8,0.756804,0.290101,0.219549
6,116,8,1,8,9,1,I,7,L,1,S,10,0.753393,0.401777,0.302696
6,117,9,8,8,9,0,I,1,S,1,S,14,0.43757,0.781579,0.341996
6,118,8,2,8,1,1,C,6,S,7,L,9,0.826718,0.284502,0.235203
6,119,9,1,8,1,1,C,8,L,7,L,8,0.750208,0.295614,0.221772
6,120,1,8,1,2,1,C,7,L,1,S,9,0.351728,0.75088,0.264106
6,121,2,9,1,2,1,C,7,L,1,S,10,0.333986,0.819574,0.273726
6,122,1,2,2,1,1,I,1,S,1,S,16,0.547279,0.7645,0.418395
6,123,1,8,2,9,1,C,7,L,7,L,8,0.291824,0.758938,0.221476
6,124,8,1,2,8,1,I,7,L,6,S,12,0.761136,0.508625,0.387133
6,125,2,1,9,2,1,C,1,S,7,L,11,0.802979,0.36813,0.2956
6,126,9,8,2,8,0,I,1,S,6,S,11,0.406947,0.757267,0.308167
6,127,8,2,1,9,1,I,6,S,8,L,14,0.770482,0.568894,0.438322
6,128,9,2,9,2,1,C,7,L,7,L,9,0.838236,0.273996,0.229673
6,129,1,2,2,8,1,C,1,S,6,S,10,0.349031,0.782075,0.272968
6,130,8,9,9,8,1,I,1,S,1,S,24,0.641772,0.754086,0.483951
6,131,2,9,8,1,1,I,7,L,7,L,12,0.527988,0.755604,0.39895
6,132,1,9,2,8,1,C,8,L,6,S,9,0.259718,0.859259,0.223165
6,133,8,1,8,1,1,C,7,L,7,L,9,0.858537,0.260394,0.223557
6,134,8,1,1,2,1,I,7,L,1,S,10,0.792535,0.356443,0.282494
6,135,9,1,2,9,1,I,8,L,7,L,12,0.751692,0.524438,0.394216
6,136,1,9,2,1,1,I,8,L,1,S,10,0.387972,0.772026,0.299524
6,137,8,9,2,9,1,C,1,S,7,L,11,0.376231,0.797192,0.299928
6,138,8,1,1,9,1,I,7,L,8,L,13,0.77732,0.539825,0.419616
6,139,9,1,8,2,1,C,8,L,6,S,9,0.833578,0.277827,0.23159
6,140,1,2,1,9,1,C,1,S,8,L,10,0.335339,0.807179,0.270679
6,141,8,1,9,1,1,C,7,L,8,L,8,0.774639,0.277522,0.21498
6,142,8,9,1,9,1,C,1,S,8,L,11,0.371511,0.806684,0.299692
6,143,9,2,1,2,1,I,7,L,1,S,10,0.759664,0.380507,0.289057
6,144,1,8,2,1,1,I,7,L,1,S,10,0.390467,0.768352,0.300016
7,1,9,1,9,8,1,C,8,L,1,S,9,0.847845,0.266457,0.225914
7,2,8,2,2,8,1,I,6,S,6,S,12,0.768934,0.504253,0.387737
7,3,2,1,2,8,0,I,1,S,6,S,13,0.474906,0.75327,0.357733
7,4,1,8,1,9,1,C,7,L,8,L,8,0.277307,0.771757,0.214013
7,5,1,2,2,8,1,C,1,S,6,S,10,0.338374,0.796801,0.269616
7,6,8,1,9,8,1,C,7,L,1,S,9,0.854063,0.262892,0.224526
7,7,1,9,1,2,1,C,8,L,1,S,9,0.301035,0.801767,0.24136
7,8,2,9,2,1,1,I,7,L,1,S,10,0.389554,0.755886,0.294459
7,9,2,1,9,8,1,C,1,S,1,S,11,0.77679,0.382474,0.297102
7,10,1,8,9,2,1,I,7,L,7,L,12,0.529701,0.756308,0.400617
7,11,2,1,9,2,1,C,1,S,7,L,10,0.767266,0.364916,0.279988
7,12,8,2,2,1,1,C,6,S,1,S,9,0.751642,0.343135,0.257914
7,13,9,2,1,2,1,I,7,L,1,S,11,0.771447,0.432585,0.333716
7,14,8,9,2,8,0,C,1,S,6,S,20,0.756242,0.642597,0.485959
7,15,8,9,1,9,0,C,1,S,8,L,21,0.763966,0.645688,0.493283
7,16,2,9,9,2,1,I,7,L,7,L,13,0.564331,0.750795,0.423697
7,17,2,1,2,9,0,I,1,S,7,L,13,0.463112,0.768948,0.356109
7,18,2,1,9,1,1,C,1,S,8,L,10,0.798088,0.343462,0.274113
7,19,1,9,9,1,1,I,8,L,8,L,13,0.569978,0.760401,0.433412
7,20,9,2,9,8,1,C,7,L,1,S,9,0.820506,0.286984,0.235472
7,21,9,2,1,8,1,I,7,L,7,L,13,0.779662,0.530717,0.41378
7,22,1,9,1,8,1,C,8,L,7,L,8,0.29166,0.756237,0.220564
7,23,8,1,2,8,1,I,7,L,6,S,11,0.759937,0.475586,0.361415
7,24,8,2,1,2,1,I,6,S,1,S,11,0.779596,0.427471,0.333255
7,25,1,9,8,2,1,I,8,L,6,S,11,0.46518,0.761819,0.354383
7,26,8,9,2,9,0,C,1,S,7,L,21,0.771134,0.638168,0.492113
7,27,2,9,1,8,1,C,7,L,7,L,9,0.274556,0.838112,0.230109
7,28,9,1,2,1,1,C,8,L,1,S,9,0.771901,0.326804,0.25226
7,29,9,2,8,1,1,C,7,L,7,L,9,0.857657,0.260531,0.223446
7,30,2,9,1,2,1,C,7,L,1,S,9,0.32158,0.772935,0.24856
7,31,2,8,9,8,1,I,6,S,1,S,12,0.492965,0.771116,0.380134
7,32,2,1,1,2,1,I,1,S,1,S,23,0.754534,0.639531,0.482548
7,33,8,1,9,2,1,C,7,L,7,L,8,0.78769,0.267021,0.21033
7,34,2,8,9,1,1,I,6,S,8,L,14,0.583396,0.766442,0.447139
7,35,8,2,9,8,1,C,6,S,1,S,9,0.827586,0.282788,0.234031
7,36,8,9,8,1,0,I,1,S,7,L,10,0.796665,0.344144,0.274167
7,37,8,2,9,1,1,C,6,S,8,L,8,0.790786,0.266807,0.210987
7,38,9,1,2,9,1,I,8,L,7,L,12,0.779125,0.502043,0.391154
7,39,9,8,2,8,0,I,1,S,6,S,13,0.455105,0.769127,0.350033
7,40,1,9,2,8,1,C,8,L,6,S,9,0.265571,0.852553,0.226413
7,41,8,1,1,9,1,I,7,L,8,L,12,0.773891,0.512668,0.396749
7,42,9,8,2,9,0,I,1,S,7,L,12,0.443626,0.756111,0.335431
7,43,1,2,2,1,1,I,1,S,1,S,14,0.470135,0.780531,0.366955
7,44,9,1,2,8,1,I,8,L,6,S,11,0.753071,0.479801,0.361324
7,45,8,2,8,1,1,C,6,S,7,L,8,0.754077,0.293926,0.221643
7,46,8,9,1,8,0,C,1,S,7,L,21,0.770364,0.638008,0.491498
7,47,9,2,8,2,1,C,7,L,6,S,9,0.814576,0.29143,0.237392
7,48,2,9,1,9,1,C,7,L,8,L,9,0.266423,0.849581,0.226348
7,49,1,9,2,9,1,C,8,L,7,L,8,0.293784,0.754948,0.221791
7,50,9,2,2,1,1,C,7,L,1,S,10,0.828014,0.318678,0.26387
7,51,9,8,8,1,1,C,1,S,7,L,11,0.810418,0.359537,0.291375
7,52,1,2,9,8,1,I,1,S,1,S,18,0.613465,0.765372,0.469529
7,53,9,1,1,2,1,I,8,L,1,S,10,0.751868,0.409164,0.307638
7,54,2,9,8,9,1,C,7,L,1,S,10,0.356761,0.789845,0.281786
7,55,8,2,1,8,1,I,6,S,7,L,12,0.754958,0.521738,0.393891
7,56,9,8,9,8,1,C,1,S,1,S,11,0.765633,0.391674,0.299878
7,57,8,2,8,2,1,C,6,S,6,S,9,0.821656,0.287233,0.236007
7,58,1,8,8,2,1,I,7,L,6,S,11,0.457241,0.768529,0.351403
7,59,1,2,8,9,1,C,1,S,1,S,12,0.418227,0.765316,0.320076
7,60,1,9,9,8,1,I,8,L,1,S,11,0.472918,0.756133,0.357589
7,61,1,9,8,1,1,I,8,L,7,L,12,0.524367,0.761279,0.399189
7,62,8,9,2,1,0,I,1,S,1,S,12,0.777554,0.400869,0.311697
7,63,1,9,8,9,1,C,8,L,1,S,10,0.334244,0.821268,0.274504
7,64,8,1,2,1,1,C,7,L,1,S,9,0.778119,0.323239,0.251518
7,65,1,2,8,1,1,I,1,S,7,L,19,0.635471,0.761711,0.484045
7,66,2,1,8,9,1,I,1,S,1,S,16,0.7901,0.443769,0.350622
7,67,8,9,9,1,0,I,1,S,8,L,9,0.758815,0.339975,0.257979
7,68,2,9,9,1,1,I,7,L,8,L,14,0.592309,0.758769,0.449426
7,69,1,2,1,2,1,C,1,S,1,S,11,0.346278,0.814935,0.282194
7,70,9,8,2,1,1,C,1,S,1,S,14,0.794862,0.409803,0.325737
7,71,2,9,2,9,1,C,7,L,7,L,9,0.27685,0.836554,0.2316
7,72,2,8,8,2,1,I,6,S,6,S,12,0.484848,0.777136,0.376793
7,73,9,1,8,1,1,C,8,L,7,L,8,0.771736,0.279343,0.215579
7,74,2,1,1,9,0,I,1,S,8,L,12,0.446564,0.758807,0.338856
7,75,8,1,8,9,1,I,7,L,1,S,9,0.755464,0.347891,0.262819
7,76,2,1,2,1,1,C,1,S,1,S,13,0.758075,0.427478,0.32406
7,77,1,8,8,9,1,C,7,L,1,S,9,0.348011,0.751823,0.261643
7,78,8,9,9,8,0,I,1,S,1,S,10,0.754691,0.373974,0.282235
7,79,1,8,1,8,1,C,7,L,7,L,8,0.28427,0.762057,0.21663
7,80,1,9,2,1,1,I,8,L,1,S,10,0.367038,0.78731,0.288972
7,81,2,8,8,9,1,C,6,S,1,S,10,0.346871,0.798981,0.277143
7,82,2,8,1,8,1,C,6,S,7,L,9,0.265117,0.846544,0.224433
7,83,9,8,1,9,0,I,1,S,8,L,12,0.43152,0.77109,0.332741
7,84,9,8,9,1,1,C,1,S,8,L,10,0.789964,0.350138,0.276597
7,85,8,9,1,2,0,C,1,S,1,S,18,0.755809,0.603513,0.45614
7,86,9,1,1,9,1,I,8,L,8,L,12,0.767019,0.517022,0.396566
7,87,9,8,1,8,0,I,1,S,7,L,12,0.441333,0.757746,0.334418
7,88,2,1,1,8,0,I,1,S,7,L,13,0.460942,0.77043,0.355123
7,89,2,1,8,1,1,C,1,S,7,L,10,0.754306,0.375922,0.28356
7,90,9,1,8,9,1,I,8,L,1,S,10,0.824733,0.330437,0.272523
7,91,9,2,1,9,1,I,7,L,8,L,13,0.769838,0.543788,0.418629
7,92,1,8,9,8,1,I,7,L,1,S,11,0.464979,0.762844,0.354706
7,93,8,1,1,2,1,I,7,L,1,S,10,0.758536,0.405207,0.307364
7,94,2,8,1,2,1,C,6,S,1,S,9,0.312141,0.781367,0.243896
7,95,1,2,2,9,1,C,1,S,7,L,10,0.327928,0.81133,0.266057
7,96,2,9,8,1,1,I,7,L,7,L,13,0.551898,0.761821,0.420448
7,97,1,2,1,8,1,C,1,S,7,L,10,0.325556,0.81303,0.264687
7,98,1,2,1,9,1,C,1,S,8,L,10,0.316553,0.825686,0.261373
7,99,9,1,9,1,1,C,8,L,8,L,8,0.808445,0.252224,0.203909
7,100,1,8,2,9,1,C,7,L,7,L,8,0.286393,0.760768,0.217879
7,101,2,1,8,2,1,C,1,S,6,S,11,0.769052,0.38816,0.298515
7,102,1,9,1,9,1,C,8,L,8,L,8,0.284697,0.765937,0.21806
7,103,1,8,8,1,1,I,7,L,7,L,12,0.516704,0.767595,0.396619
7,104,1,8,2,8,1,C,7,L,6,S,8,0.29415,0.750237,0.220683
7,105,2,8,8,1,1,I,6,S,7,L,13,0.542449,0.770262,0.417828
7,106,2,8,9,2,1,I,6,S,7,L,13,0.554882,0.759236,0.421286
7,107,1,8,2,1,1,I,7,L,1,S,10,0.359016,0.794135,0.285107
7,108,8,1,8,2,1,C,7,L,6,S,9,0.848133,0.267338,0.226738
7,109,9,2,9,1,1,C,7,L,8,L,8,0.784737,0.270307,0.212119
7,110,2,8,2,8,1,C,6,S,6,S,9,0.276677,0.832153,0.230237
7,111,8,2,1,9,1,I,6,S,8,L,13,0.777977,0.53838,0.418847
7,112,1,8,9,1,1,I,7,L,8,L,13,0.56273,0.766142,0.431132
7,113,2,9,9,8,1,I,7,L,1,S,12,0.502798,0.762096,0.383181
7,114,9,8,1,2,1,I,1,S,1,S,25,0.766394,0.636136,0.487531
7,115,2,9,2,8,1,C,7,L,6,S,9,0.286116,0.823721,0.23568
7,116,8,9,9,2,0,I,1,S,7,L,10,0.809624,0.333138,0.269717
7,117,8,1,8,1,1,C,7,L,7,L,8,0.777219,0.276303,0.214748
7,118,2,8,2,9,1,C,6,S,7,L,9,0.267411,0.844985,0.225958
7,119,8,9,8,9,0,C,1,S,1,S,13,0.763268,0.439887,0.335752
7,120,1,2,9,2,1,I,1,S,7,L,19,0.642677,0.754327,0.484789
7,121,9,2,2,8,1,I,7,L,6,S,12,0.760689,0.509582,0.387633
7,122,9,8,8,2,1,C,1,S,6,S,11,0.757895,0.397359,0.301157
7,123,1,8,1,2,1,C,7,L,1,S,9,0.29318,0.80832,0.236983
7,124,9,1,9,2,1,C,8,L,7,L,8,0.782207,0.270061,0.211244
7,125,2,9,8,2,1,I,7,L,6,S,12,0.494681,0.768116,0.379972
7,126,9,1,1,8,1,I,8,L,7,L,12,0.776831,0.503679,0.391273
7,127,8,2,9,2,1,C,6,S,7,L,8,0.764548,0.284644,0.217624
7,128,9,1,8,2,1,C,8,L,6,S,9,0.841915,0.270903,0.228077
7,129,2,8,2,1,1,I,6,S,1,S,10,0.379664,0.765022,0.290452
7,130,8,1,2,9,1,I,7,L,7,L,12,0.785997,0.49769,0.391182
7,131,1,9,9,2,1,I,8,L,7,L,13,0.54023,0.782553,0.422759
7,132,8,1,1,8,1,I,7,L,7,L,12,0.783703,0.499325,0.391322
7,133,1,2,8,2,1,I,1,S,6,S,18,0.607212,0.77057,0.467899
7,134,1,2,9,1,1,I,1,S,8,L,20,0.649056,0.761267,0.494105
7,135,9,2,9,2,1,C,7,L,7,L,8,0.758499,0.288144,0.218557
7,136,8,2,2,9,1,I,6,S,7,L,12,0.757252,0.520103,0.393849
7,137,9,8,9,2,1,C,1,S,7,L,10,0.759143,0.371593,0.282092
7,138,8,2,8,9,1,I,6,S,1,S,10,0.803001,0.347898,0.279362
7,139,9,2,2,9,1,I,7,L,7,L,13,0.781832,0.529235,0.413773
7,140,8,9,8,2,0,I,1,S,6,S,11,0.825799,0.345523,0.285333
7,141,8,1,9,1,1,C,7,L,8,L,8,0.813928,0.249184,0.202818
7,142,9,8,8,9,1,I,1,S,1,S,16,0.754166,0.470711,0.354994
7,143,9,2,8,9,1,I,7,L,1,S,10,0.795221,0.352637,0.280424
7,144,2,8,1,9,1,C,6,S,8,L,9,0.256983,0.858013,0.220495
8,1,9,1,2,9,1,I,8,L,7,L,12,0.759251,0.517256,0.392727
8,2,9,2,1,2,1,I,7,L,1,S,10,0.754242,0.397093,0.299504
8,3,2,8,8,1,1,I,6,S,7,L,13,0.557168,0.751978,0.418978
8,4,2,8,1,9,1,C,6,S,8,L,9,0.291348,0.812626,0.236757
8,5,8,9,2,9,1,C,1,S,7,L,10,0.343046,0.790689,0.271243
8,6,8,2,9,1,1,C,6,S,8,L,9,0.852968,0.262594,0.223984
8,7,1,9,9,8,1,I,8,L,1,S,9,0.316164,0.797479,0.252134
8,8,2,9,8,9,1,C,7,L,1,S,10,0.340042,0.805826,0.274015
8,9,9,2,9,2,1,C,7,L,7,L,9,0.841624,0.272246,0.229129
8,10,9,8,9,2,1,C,1,S,7,L,11,0.775983,0.387946,0.301039
8,11,9,8,2,1,1,C,1,S,1,S,14,0.775186,0.427903,0.331705
8,12,2,1,1,9,0,I,1,S,8,L,15,0.529937,0.755712,0.40048
8,13,2,8,9,8,1,I,6,S,1,S,10,0.360679,0.779183,0.281035
8,14,1,2,8,1,1,I,1,S,7,L,15,0.586822,0.767359,0.450303
8,15,9,1,8,9,1,I,8,L,1,S,10,0.79761,0.349846,0.279041
8,16,9,8,9,8,1,C,1,S,1,S,18,0.781018,0.451687,0.352776
8,17,8,1,8,2,1,C,7,L,6,S,9,0.774187,0.320565,0.248177
8,18,1,9,1,9,1,C,8,L,8,L,8,0.267672,0.790282,0.211536
8,19,2,1,2,9,0,I,1,S,7,L,13,0.478574,0.759163,0.363316
8,20,1,9,2,8,1,C,8,L,6,S,8,0.236192,0.834302,0.197056
8,21,9,2,8,2,1,C,7,L,6,S,9,0.795203,0.307156,0.244251
8,22,1,8,2,8,1,C,7,L,6,S,8,0.240596,0.824893,0.198466
8,23,8,1,2,1,1,C,7,L,1,S,10,0.811957,0.326872,0.265406
8,24,2,1,2,1,1,C,1,S,1,S,13,0.794483,0.400765,0.318401
8,25,1,9,2,9,1,C,8,L,7,L,8,0.25463,0.806596,0.205384
8,26,1,2,1,2,1,C,1,S,1,S,10,0.348747,0.786533,0.274301
8,27,9,1,8,1,1,C,8,L,7,L,8,0.759776,0.287209,0.218214
8,28,1,2,2,9,1,C,1,S,7,L,9,0.301795,0.79767,0.240733
8,29,1,2,9,8,1,I,1,S,1,S,11,0.367259,0.80579,0.295933
8,30,1,2,9,1,1,I,1,S,8,L,16,0.608032,0.770983,0.468783
8,31,2,9,9,2,1,I,7,L,7,L,12,0.523384,0.751805,0.393483
8,32,9,2,9,8,1,C,7,L,1,S,10,0.795352,0.349977,0.278355
8,33,8,2,9,8,1,C,6,S,1,S,10,0.754813,0.3784,0.285621
8,34,8,1,1,8,1,I,7,L,7,L,14,0.770381,0.5689,0.43827
8,35,9,1,1,9,1,I,8,L,8,L,12,0.778255,0.492672,0.383425
8,36,1,8,2,9,1,C,7,L,7,L,8,0.259034,0.797186,0.206498
8,37,1,8,8,1,1,I,7,L,7,L,11,0.481975,0.768663,0.370477
8,38,8,1,2,8,1,I,7,L,6,S,14,0.757986,0.583887,0.442578
8,39,8,1,9,8,1,C,7,L,1,S,10,0.77192,0.365153,0.281869
8,40,2,8,9,2,1,I,6,S,7,L,13,0.537907,0.767556,0.412874
8,41,2,9,9,8,1,I,7,L,1,S,10,0.351374,0.795386,0.279478
8,42,2,8,2,9,1,C,6,S,7,L,9,0.275954,0.832555,0.229747
8,43,1,2,8,2,1,I,1,S,6,S,13,0.506839,0.772593,0.39158
8,44,8,2,8,2,1,C,6,S,6,S,9,0.759132,0.332419,0.252349
8,45,8,1,8,9,1,I,7,L,1,S,10,0.760588,0.375593,0.285671
8,46,8,1,2,9,1,I,7,L,7,L,13,0.753579,0.549119,0.413804
8,47,8,2,2,8,1,I,6,S,6,S,15,0.767973,0.594493,0.456554
8,48,9,8,8,1,1,C,1,S,7,L,11,0.79575,0.372518,0.296431
8,49,2,1,9,1,1,C,1,S,8,L,10,0.796773,0.345921,0.27562
8,50,8,2,1,8,1,I,6,S,7,L,14,0.752682,0.583316,0.439051
8,51,1,8,2,1,1,I,7,L,1,S,9,0.349423,0.759407,0.265355
8,52,9,8,1,2,1,I,1,S,1,S,27,0.76822,0.637079,0.489417
8,53,8,2,1,9,1,I,6,S,8,L,13,0.754271,0.539549,0.406966
8,54,8,2,8,1,1,C,6,S,7,L,9,0.822778,0.284053,0.233713
8,55,1,9,8,9,1,C,8,L,1,S,9,0.308015,0.804684,0.247854
8,56,9,8,2,8,0,I,1,S,6,S,11,0.400901,0.774185,0.310371
8,57,2,8,1,8,1,C,6,S,7,L,9,0.266213,0.849402,0.226122
8,58,9,8,1,9,0,I,1,S,8,L,12,0.436632,0.754684,0.329519
8,59,2,8,2,1,1,I,6,S,1,S,11,0.391346,0.79701,0.311906
8,60,9,1,9,8,1,C,8,L,1,S,10,0.808942,0.339407,0.27456
8,61,9,2,2,8,1,I,7,L,6,S,13,0.75287,0.567273,0.427082
8,62,1,8,1,9,1,C,7,L,8,L,8,0.272076,0.780872,0.212457
8,63,2,1,1,2,1,I,1,S,1,S,20,0.758596,0.605736,0.459509
8,64,8,2,2,9,1,I,6,S,7,L,14,0.765496,0.564171,0.431871
8,65,9,1,2,1,1,C,8,L,1,S,9,0.761975,0.332624,0.253451
8,66,8,2,8,9,1,I,6,S,1,S,11,0.807737,0.368778,0.297875
8,67,9,8,2,9,0,I,1,S,7,L,12,0.417627,0.779268,0.325444
8,68,9,2,2,9,1,I,7,L,7,L,13,0.778523,0.531778,0.414001
8,69,1,8,9,8,1,I,7,L,1,S,9,0.321294,0.78719,0.25292
8,70,9,1,2,8,1,I,8,L,6,S,13,0.76639,0.556254,0.426307
8,71,2,9,8,2,1,I,7,L,6,S,11,0.456285,0.758499,0.346091
8,72,8,9,1,2,1,C,1,S,1,S,12,0.373299,0.811639,0.302984
8,73,1,2,1,9,1,C,1,S,8,L,9,0.317188,0.777741,0.24669
8,74,8,9,2,8,1,C,1,S,6,S,10,0.319443,0.825605,0.263734
8,75,8,9,2,1,1,I,1,S,1,S,15,0.521093,0.752684,0.392218
8,76,9,1,9,2,1,C,8,L,7,L,9,0.854114,0.262491,0.224197
8,77,1,8,1,8,1,C,7,L,7,L,8,0.250988,0.811512,0.20368
8,78,1,9,8,1,1,I,8,L,7,L,11,0.475942,0.77961,0.371049
8,79,1,9,2,1,1,I,8,L,1,S,9,0.344293,0.769696,0.265001
8,80,1,9,1,8,1,C,8,L,7,L,8,0.246584,0.820922,0.202426
8,81,2,1,8,1,1,C,1,S,7,L,10,0.764621,0.369017,0.282158
8,82,1,2,2,8,1,C,1,S,6,S,9,0.280377,0.829776,0.23265
8,83,8,1,9,2,1,C,7,L,7,L,9,0.820608,0.285655,0.234411
8,84,8,9,1,9,1,C,1,S,8,L,10,0.36025,0.768106,0.27671
8,85,8,1,1,9,1,I,7,L,8,L,13,0.772673,0.52487,0.405553
8,86,1,8,8,9,1,C,7,L,1,S,9,0.313145,0.794395,0.248761
8,87,1,2,2,1,1,I,1,S,1,S,11,0.422816,0.754317,0.318937
8,88,8,9,9,2,1,I,1,S,7,L,20,0.638369,0.760868,0.485715
8,89,2,8,1,2,1,C,6,S,1,S,10,0.319569,0.826299,0.264059
8,90,2,1,9,2,1,C,1,S,7,L,11,0.814678,0.356902,0.29076
8,91,9,2,8,1,1,C,7,L,7,L,9,0.858849,0.258791,0.222262
8,92,9,2,1,8,1,I,7,L,7,L,13,0.765681,0.55145,0.422235
8,93,9,2,8,9,1,I,7,L,1,S,10,0.78402,0.360417,0.282574
8,94,9,1,1,2,1,I,8,L,1,S,10,0.767832,0.386523,0.296785
8,95,2,1,2,8,0,I,1,S,6,S,12,0.444228,0.773538,0.343627
8,96,2,9,1,9,1,C,7,L,8,L,9,0.283276,0.827205,0.234327
8,97,2,9,2,9,1,C,7,L,7,L,9,0.267882,0.847133,0.226932
8,98,8,9,9,8,1,I,1,S,1,S,13,0.424386,0.776073,0.329354
8,99,9,2,9,1,1,C,7,L,8,L,8,0.775766,0.276747,0.214691
8,100,1,8,9,1,1,I,7,L,8,L,12,0.52091,0.780845,0.40675
8,101,2,9,8,1,1,I,7,L,7,L,13,0.546125,0.76937,0.420173
8,102,8,9,1,8,1,C,1,S,7,L,10,0.331963,0.809288,0.268653
8,103,1,8,9,2,1,I,7,L,7,L,11,0.462208,0.784091,0.362413
8,104,2,9,9,1,1,I,7,L,8,L,14,0.576073,0.775142,0.446538
8,105,8,9,8,9,1,C,1,S,1,S,13,0.395958,0.804477,0.318539
8,106,1,2,1,8,1,C,1,S,7,L,9,0.292053,0.814517,0.237882
8,107,9,2,2,1,1,C,7,L,1,S,10,0.835389,0.311696,0.260388
8,108,8,1,8,1,1,C,7,L,7,L,9,0.837833,0.2722,0.228058
8,109,2,9,2,8,1,C,7,L,6,S,8,0.285272,0.766828,0.218754
8,110,1,2,8,9,1,C,1,S,1,S,11,0.3517,0.820588,0.288601
8,111,1,9,9,2,1,I,8,L,7,L,10,0.447651,0.751206,0.336278
8,112,9,1,9,1,1,C,8,L,8,L,8,0.786473,0.268179,0.210916
8,113,8,9,9,1,1,I,1,S,8,L,21,0.653635,0.757934,0.495412
8,114,9,8,9,1,1,C,1,S,8,L,10,0.768543,0.368125,0.28292
8,115,2,8,2,8,1,C,6,S,6,S,8,0.291823,0.754519,0.220186
8,116,8,2,1,2,1,I,6,S,1,S,11,0.767185,0.418791,0.32129
8,117,1,9,1,2,1,C,8,L,1,S,9,0.286927,0.831008,0.238439
8,118,2,8,8,2,1,I,6,S,6,S,12,0.47062,0.781546,0.367811
8,119,2,9,1,2,1,C,7,L,1,S,9,0.341823,0.755372,0.258204
8,120,2,1,9,8,1,C,1,S,1,S,15,0.784574,0.43816,0.343769
8,121,1,9,8,2,1,I,8,L,6,S,10,0.39295,0.791645,0.311077
8,122,8,1,9,1,1,C,7,L,8,L,8,0.758147,0.287909,0.218277
8,123,1,9,9,1,1,I,8,L,8,L,11,0.508726,0.755626,0.384406
8,124,2,1,8,2,1,C,1,S,6,S,11,0.754193,0.401491,0.302802
8,125,2,9,2,1,1,I,7,L,1,S,10,0.391411,0.757105,0.296339
8,126,8,9,8,1,1,I,1,S,7,L,20,0.649602,0.750567,0.48757
8,127,9,2,1,9,1,I,7,L,8,L,12,0.76429,0.503822,0.385066
8,128,9,8,1,8,0,I,1,S,7,L,11,0.413848,0.757537,0.313505
8,129,2,8,9,1,1,I,6,S,8,L,14,0.587148,0.758156,0.44515
8,130,9,1,1,8,1,I,8,L,7,L,13,0.779201,0.540431,0.421105
8,131,8,2,2,1,1,C,6,S,1,S,10,0.79485,0.340119,0.270343
8,132,9,1,8,2,1,C,8,L,6,S,9,0.807693,0.297401,0.240209
8,133,8,2,9,2,1,C,6,S,7,L,9,0.805553,0.297508,0.239659
8,134,9,8,8,9,1,I,1,S,1,S,22,0.765955,0.557038,0.426666
8,135,2,1,1,8,0,I,1,S,7,L,12,0.457248,0.757112,0.346188
8,136,2,8,8,9,1,C,6,S,1,S,10,0.349347,0.789623,0.275852
8,137,2,9,1,8,1,C,7,L,7,L,8,0.295663,0.753448,0.222767
8,138,1,2,9,2,1,I,1,S,7,L,14,0.571622,0.754628,0.431362
8,139,1,8,1,2,1,C,7,L,1,S,9,0.292058,0.820719,0.239697
8,140,8,9,8,2,1,I,1,S,6,S,18,0.615048,0.751741,0.462357
8,141,9,8,8,2,1,C,1,S,6,S,12,0.769511,0.411193,0.316418
8,142,2,1,8,9,1,I,1,S,1,S,16,0.770217,0.47521,0.366015
8,143,8,1,1,2,1,I,7,L,1,S,11,0.785471,0.404628,0.317823
8,144,1,8,8,2,1,I,7,L,6,S,10,0.39862,0.780872,0.311272
9,1,9,2,1,9,1,I,7,L,8,L,12,0.760981,0.530877,0.403987
9,2,2,8,2,9,1,C,6,S,7,L,9,0.306955,0.797518,0.244802
9,3,8,1,9,1,1,C,7,L,8,L,8,0.779794,0.27287,0.212783
9,4,1,2,1,2,1,C,1,S,1,S,11,0.374854,0.776456,0.291058
9,5,8,1,2,8,1,I,7,L,6,S,11,0.758524,0.465821,0.353336
9,6,9,2,2,1,1,C,7,L,1,S,9,0.843553,0.269978,0.227741
9,7,2,9,9,8,1,I,7,L,1,S,10,0.388388,0.754084,0.292877
9,8,1,8,2,9,1,C,7,L,7,L,8,0.277485,0.779817,0.216387
9,9,9,8,8,2,1,C,1,S,6,S,12,0.79333,0.397032,0.314977
9,10,2,8,8,9,1,C,6,S,1,S,10,0.352085,0.78819,0.27751
9,11,8,1,2,9,1,I,7,L,7,L,12,0.77946,0.49502,0.385849
9,12,1,9,8,1,1,I,8,L,7,L,11,0.4983,0.759989,0.378703
9,13,8,2,1,8,1,I,6,S,7,L,12,0.766823,0.520896,0.399435
9,14,9,2,8,2,1,C,7,L,6,S,9,0.856462,0.258903,0.22174
9,15,2,9,2,9,1,C,7,L,7,L,9,0.298107,0.808567,0.241039
9,16,9,1,9,8,1,C,8,L,1,S,9,0.755986,0.342515,0.258937
9,17,9,8,9,2,1,C,1,S,7,L,12,0.802818,0.390305,0.313344
9,18,2,9,8,1,1,I,7,L,7,L,14,0.580887,0.761564,0.442383
9,19,2,1,1,2,1,I,1,S,1,S,15,0.758349,0.553963,0.420097
9,20,2,9,9,2,1,I,7,L,7,L,13,0.528783,0.770028,0.407178
9,21,9,8,1,9,0,I,1,S,8,L,11,0.393843,0.782514,0.308187
9,22,1,8,8,9,1,C,7,L,1,S,9,0.308828,0.804157,0.248346
9,23,2,8,9,2,1,I,6,S,7,L,13,0.539694,0.756523,0.408291
9,24,8,2,2,9,1,I,6,S,7,L,11,0.759221,0.476351,0.361656
9,25,2,9,8,2,1,I,7,L,6,S,13,0.519247,0.776925,0.403416
9,26,9,8,9,1,1,C,1,S,8,L,10,0.750474,0.386754,0.290249
9,27,1,8,9,1,1,I,7,L,8,L,12,0.51521,0.78643,0.405177
9,28,8,2,8,1,1,C,6,S,7,L,8,0.789358,0.266521,0.21038
9,29,1,2,9,1,0,I,1,S,8,L,14,0.750492,0.537631,0.403488
9,30,8,9,8,2,0,I,1,S,6,S,13,0.755697,0.465277,0.351609
9,31,9,1,9,1,1,C,8,L,8,L,8,0.783405,0.270234,0.211703
9,32,1,8,1,8,1,C,7,L,7,L,8,0.255521,0.807289,0.206279
9,33,2,1,2,1,1,C,1,S,1,S,10,0.789443,0.342804,0.270624
9,34,8,1,1,2,1,I,7,L,1,S,11,0.782066,0.426029,0.333182
9,35,2,1,8,2,1,C,1,S,6,S,10,0.804834,0.330109,0.265683
9,36,2,8,8,2,1,I,6,S,6,S,13,0.530159,0.76342,0.404734
9,37,1,8,8,1,1,I,7,L,7,L,11,0.503492,0.753691,0.379478
9,38,2,8,1,2,1,C,6,S,1,S,9,0.336028,0.751621,0.252565
9,39,1,2,1,9,1,C,1,S,8,L,10,0.330836,0.809959,0.267963
9,40,9,2,9,8,1,C,7,L,1,S,9,0.771591,0.332163,0.256294
9,41,1,8,9,8,1,I,7,L,1,S,9,0.3416,0.771427,0.26352
9,42,8,1,1,9,1,I,7,L,8,L,13,0.772053,0.549119,0.423949
9,43,1,9,1,9,1,C,8,L,8,L,8,0.243266,0.82351,0.200332
9,44,1,9,2,9,1,C,8,L,7,L,8,0.272911,0.785476,0.214365
9,45,2,1,9,1,1,C,1,S,8,L,9,0.775321,0.322386,0.249953
9,46,1,2,8,9,1,C,1,S,1,S,12,0.411013,0.763383,0.31376
9,47,8,2,2,8,1,I,6,S,6,S,11,0.776058,0.453699,0.352096
9,48,2,8,8,1,1,I,6,S,7,L,15,0.587903,0.776211,0.456337
9,49,8,9,2,9,1,C,1,S,7,L,11,0.384365,0.780599,0.300035
9,50,1,9,8,9,1,C,8,L,1,S,9,0.303882,0.810314,0.24624
9,51,8,2,1,9,1,I,6,S,8,L,12,0.756978,0.533917,0.404164
9,52,8,1,1,8,1,I,7,L,7,L,13,0.781788,0.536523,0.419447
9,53,8,2,9,8,1,C,6,S,1,S,9,0.767807,0.334895,0.257135
9,54,9,1,2,8,1,I,8,L,6,S,11,0.763073,0.462452,0.352885
9,55,1,8,1,2,1,C,7,L,1,S,9,0.267506,0.846341,0.226401
9,56,9,1,2,9,1,I,8,L,7,L,12,0.783971,0.49161,0.385408
9,57,1,2,2,1,1,I,1,S,1,S,20,0.629665,0.75984,0.478444
9,58,2,8,2,8,1,C,6,S,6,S,9,0.320363,0.779791,0.249816
9,59,8,2,8,9,1,I,6,S,1,S,10,0.803002,0.354957,0.285031
9,60,8,9,9,2,0,I,1,S,7,L,13,0.765233,0.45838,0.350768
9,61,1,9,1,2,1,C,8,L,1,S,9,0.26256,0.852498,0.223831
9,62,8,2,9,2,1,C,6,S,7,L,8,0.751141,0.293014,0.220095
9,63,2,8,9,8,1,I,6,S,1,S,11,0.38089,0.803534,0.306058
9,64,9,1,8,1,1,C,8,L,7,L,8,0.778948,0.273151,0.212771
9,65,9,2,1,2,1,I,7,L,1,S,10,0.754451,0.409436,0.308899
9,66,9,8,1,2,0,I,1,S,1,S,14,0.444985,0.778971,0.34663
9,67,2,9,2,1,1,I,7,L,1,S,12,0.497687,0.757383,0.376939
9,68,1,2,8,1,1,I,1,S,7,L,22,0.649109,0.764862,0.496479
9,69,8,9,1,9,1,C,1,S,8,L,10,0.368548,0.767247,0.282767
9,70,1,2,2,8,1,C,1,S,6,S,11,0.351312,0.816249,0.286758
9,71,9,1,1,2,1,I,8,L,1,S,11,0.786615,0.42266,0.33247
9,72,1,8,9,2,1,I,7,L,7,L,11,0.450487,0.790927,0.356302
9,73,9,2,8,1,1,C,7,L,7,L,8,0.792726,0.264081,0.209344
9,74,9,1,1,9,1,I,8,L,8,L,13,0.776421,0.545743,0.423727
9,75,8,9,1,2,1,C,1,S,1,S,12,0.399578,0.776518,0.31028
9,76,2,9,8,9,1,C,7,L,1,S,10,0.342204,0.800758,0.274022
9,77,2,9,1,2,1,C,7,L,1,S,9,0.32718,0.76267,0.24953
9,78,8,9,2,1,0,I,1,S,1,S,14,0.759369,0.48366,0.367276
9,79,1,9,9,2,1,I,8,L,7,L,10,0.43803,0.752211,0.329491
9,80,1,2,9,8,1,I,1,S,1,S,15,0.46535,0.786231,0.365872
9,81,8,2,9,1,1,C,6,S,8,L,8,0.793815,0.263604,0.209252
9,82,2,8,9,1,1,I,6,S,8,L,15,0.592763,0.772565,0.457948
9,83,8,1,9,2,1,C,7,L,7,L,9,0.843867,0.26726,0.225532
9,84,2,8,2,1,1,I,6,S,1,S,13,0.512034,0.778262,0.398496
9,85,8,9,9,1,0,I,1,S,8,L,11,0.759398,0.418855,0.318078
9,86,1,8,1,9,1,C,7,L,8,L,8,0.247839,0.817852,0.202696
9,87,1,9,2,8,1,C,8,L,6,S,8,0.283912,0.771411,0.219013
9,88,8,9,9,8,1,I,1,S,1,S,20,0.560435,0.76631,0.429467
9,89,9,8,2,1,1,C,1,S,1,S,12,0.775333,0.411611,0.319135
9,90,1,9,2,1,1,I,8,L,1,S,10,0.414323,0.770678,0.319309
9,91,1,9,9,1,1,I,8,L,8,L,11,0.503829,0.756184,0.380987
9,92,8,1,8,2,1,C,7,L,6,S,9,0.836725,0.272246,0.227795
9,93,2,1,1,9,1,I,1,S,8,L,18,0.755704,0.63696,0.481354
9,94,8,1,9,8,1,C,7,L,1,S,9,0.751853,0.345506,0.25977
9,95,8,2,1,2,1,I,6,S,1,S,10,0.750445,0.41236,0.309453
9,96,8,9,2,8,1,C,1,S,6,S,11,0.401202,0.757947,0.30409
9,97,1,2,1,8,1,C,1,S,7,L,10,0.340204,0.797092,0.271174
9,98,9,2,2,8,1,I,7,L,6,S,11,0.780123,0.450677,0.351583
9,99,1,9,1,8,1,C,8,L,7,L,8,0.250948,0.812947,0.204007
9,100,2,9,9,1,1,I,7,L,8,L,14,0.586006,0.75779,0.44407
9,101,9,8,2,9,0,I,1,S,7,L,12,0.421784,0.775514,0.327099
9,102,9,1,8,9,1,I,8,L,1,S,10,0.790345,0.363283,0.287119
9,103,1,2,2,9,1,C,1,S,7,L,10,0.368131,0.76084,0.280089
9,104,8,1,8,1,1,C,7,L,7,L,8,0.775337,0.275788,0.213828
9,105,2,9,1,8,1,C,7,L,7,L,9,0.272691,0.841283,0.22941
9,106,9,1,1,8,1,I,8,L,7,L,12,0.753898,0.529835,0.399441
9,107,8,1,8,9,1,I,7,L,1,S,10,0.785907,0.366517,0.288048
9,108,2,1,2,8,1,I,1,S,6,S,16,0.755013,0.596067,0.450039
9,109,8,9,1,8,1,C,1,S,7,L,10,0.377917,0.754379,0.285093
9,110,9,8,1,8,0,I,1,S,7,L,11,0.403583,0.769358,0.3105
9,111,8,9,8,1,0,I,1,S,7,L,11,0.75387,0.42266,0.318631
9,112,1,2,9,2,1,I,1,S,7,L,21,0.632962,0.767768,0.485968
9,113,1,8,2,1,1,I,7,L,1,S,10,0.419467,0.764332,0.320612
9,114,2,1,8,9,1,I,1,S,1,S,13,0.781864,0.448359,0.350555
9,115,9,2,2,9,1,I,7,L,7,L,11,0.763286,0.473329,0.361286
9,116,9,1,2,1,1,C,8,L,1,S,9,0.827948,0.280331,0.232099
9,117,2,9,2,8,1,C,7,L,6,S,9,0.311515,0.79084,0.246359
9,118,1,8,8,2,1,I,7,L,6,S,10,0.434858,0.751638,0.326856
9,119,8,2,2,1,1,C,6,S,1,S,9,0.839769,0.272711,0.229014
9,120,2,1,9,2,1,C,1,S,7,L,10,0.81315,0.324338,0.263735
9,121,1,8,2,8,1,C,7,L,6,S,8,0.288486,0.765752,0.220909
9,122,1,9,9,8,1,I,8,L,1,S,9,0.336654,0.777583,0.261777
9,123,9,8,8,1,1,C,1,S,7,L,11,0.802538,0.37342,0.299684
9,124,9,2,1,8,1,I,7,L,7,L,12,0.770826,0.517856,0.399177
9,125,9,2,8,9,1,I,7,L,1,S,10,0.807008,0.352033,0.284094
9,126,1,9,8,2,1,I,8,L,6,S,10,0.429714,0.757983,0.325716
9,127,8,2,8,2,1,C,6,S,6,S,9,0.852678,0.261635,0.223091
9,128,9,1,9,2,1,C,8,L,7,L,9,0.848,0.264269,0.2241
9,129,9,8,2,8,0,I,1,S,6,S,12,0.439483,0.751942,0.330466
9,130,9,1,8,2,1,C,8,L,6,S,9,0.840857,0.269255,0.226405
9,131,2,1,9,8,1,C,1,S,1,S,11,0.757695,0.39994,0.303032
9,132,2,1,2,9,1,I,1,S,7,L,17,0.763602,0.609758,0.465612
9,133,8,1,2,1,1,C,7,L,1,S,9,0.823815,0.283322,0.233405
9,134,2,8,1,9,1,C,6,S,8,L,9,0.27285,0.842262,0.229812
9,135,2,9,1,9,1,C,7,L,8,L,9,0.264003,0.853311,0.225277
9,136,8,9,8,9,1,C,1,S,1,S,14,0.418041,0.79024,0.330353
9,137,2,8,1,8,1,C,6,S,7,L,9,0.281538,0.830234,0.233743
9,138,9,8,8,9,0,I,1,S,1,S,19,0.531618,0.753233,0.400432
9,139,1,2,8,2,1,I,1,S,6,S,21,0.627078,0.772566,0.484459
9,140,2,1,8,1,1,C,1,S,7,L,9,0.770268,0.325723,0.250894
9,141,9,2,9,1,1,C,7,L,8,L,8,0.797183,0.261164,0.208195
9,142,2,1,1,8,1,I,1,S,7,L,18,0.763331,0.627848,0.479256
9,143,9,8,9,8,1,C,1,S,1,S,16,0.767455,0.456217,0.350126
9,144,9,2,9,2,1,C,7,L,7,L,8,0.75451,0.290574,0.219241
10,1,9,1,9,2,1,C,8,L,7,L,8,0.770651,0.278626,0.214724
10,2,8,1,8,2,1,C,7,L,6,S,8,0.752427,0.2951,0.222041
10,3,9,1,2,1,1,C,8,L,1,S,9,0.758554,0.340858,0.258559
10,4,1,8,8,2,1,I,7,L,6,S,11,0.483183,0.770028,0.372065
10,5,1,9,9,8,1,I,8,L,1,S,9,0.348648,0.764784,0.26664
10,6,1,2,9,2,1,I,1,S,7,L,17,0.611558,0.767429,0.469327
10,7,2,9,1,2,1,C,7,L,1,S,10,0.315389,0.831135,0.262131
10,8,9,1,8,2,1,C,8,L,6,S,8,0.762877,0.285835,0.218057
10,9,8,1,8,9,1,I,7,L,1,S,10,0.80251,0.349255,0.28028
10,10,8,9,9,1,0,I,1,S,8,L,11,0.775703,0.396655,0.307686
10,11,1,2,2,8,1,C,1,S,6,S,9,0.332428,0.757838,0.251927
10,12,9,8,2,9,1,I,1,S,7,L,22,0.767174,0.645873,0.495497
10,13,1,8,9,8,1,I,7,L,1,S,9,0.353522,0.760646,0.268905
10,14,8,1,8,1,1,C,7,L,7,L,9,0.858029,0.262584,0.225304
10,15,2,8,1,8,1,C,6,S,7,L,8,0.298987,0.751795,0.224777
10,16,8,2,8,1,1,C,6,S,7,L,8,0.751693,0.294481,0.221359
10,17,2,1,2,9,0,I,1,S,7,L,12,0.42994,0.774901,0.333161
10,18,1,2,1,2,1,C,1,S,1,S,11,0.345069,0.817281,0.282018
10,19,2,8,9,8,1,I,6,S,1,S,11,0.390026,0.805124,0.314019
10,20,1,9,2,1,1,I,8,L,1,S,9,0.339412,0.774266,0.262796
10,21,8,2,1,8,1,I,6,S,7,L,13,0.769628,0.551989,0.424826
10,22,2,1,9,2,1,C,1,S,7,L,11,0.808062,0.366275,0.295973
10,23,1,2,1,9,1,C,1,S,8,L,9,0.304786,0.794598,0.242183
10,24,9,2,9,2,1,C,7,L,7,L,8,0.773522,0.274012,0.211954
10,25,2,9,1,8,1,C,7,L,7,L,8,0.291724,0.758532,0.221282
10,26,1,9,1,9,1,C,8,L,8,L,8,0.243658,0.824396,0.20087
10,27,2,8,8,2,1,I,6,S,6,S,13,0.554292,0.759047,0.420734
10,28,8,2,1,2,1,I,6,S,1,S,10,0.769197,0.379911,0.292226
10,29,2,9,8,9,1,C,7,L,1,S,10,0.352774,0.794995,0.280454
10,30,9,1,1,9,1,I,8,L,8,L,13,0.775987,0.548999,0.426016
10,31,8,1,1,8,1,I,7,L,7,L,13,0.766263,0.556889,0.426724
10,32,9,8,8,2,1,C,1,S,6,S,10,0.781706,0.354385,0.277025
10,33,2,8,9,1,1,I,6,S,8,L,13,0.559552,0.754869,0.422389
10,34,1,8,9,1,1,I,7,L,8,L,11,0.488628,0.765869,0.374225
10,35,8,9,1,9,1,C,1,S,8,L,11,0.381656,0.796887,0.304136
10,36,1,2,8,9,1,C,1,S,1,S,11,0.395114,0.766477,0.302845
10,37,2,8,8,1,1,I,6,S,7,L,13,0.549388,0.764082,0.419778
10,38,1,2,2,9,1,C,1,S,7,L,9,0.328793,0.762205,0.250608
10,39,8,1,9,2,1,C,7,L,7,L,8,0.760201,0.28789,0.218854
10,40,2,8,1,9,1,C,6,S,8,L,8,0.296572,0.754609,0.223796
10,41,1,9,8,1,1,I,8,L,7,L,11,0.473127,0.779242,0.36868
10,42,2,9,2,1,1,I,7,L,1,S,10,0.378695,0.769636,0.291458
10,43,1,8,8,1,1,I,7,L,7,L,11,0.477879,0.775287,0.370494
10,44,2,8,2,8,1,C,6,S,6,S,9,0.286784,0.828158,0.237502
10,45,8,2,9,2,1,C,6,S,7,L,8,0.763534,0.282843,0.21596
10,46,8,1,2,1,1,C,7,L,1,S,10,0.828431,0.323895,0.268325
10,47,8,2,1,9,1,I,6,S,8,L,13,0.766829,0.55518,0.425728
10,48,2,9,2,9,1,C,7,L,7,L,9,0.275061,0.840535,0.231198
10,49,1,9,2,8,1,C,8,L,6,S,8,0.267656,0.79306,0.212268
10,50,9,8,8,9,1,I,1,S,1,S,14,0.785516,0.433779,0.34074
10,51,1,2,1,8,1,C,1,S,7,L,9,0.307457,0.79141,0.243324
10,52,9,1,8,9,1,I,8,L,1,S,10,0.815512,0.338226,0.275828
10,53,8,2,2,8,1,I,6,S,6,S,12,0.766673,0.510267,0.391208
10,54,1,9,9,1,1,I,8,L,8,L,11,0.483876,0.769824,0.372499
10,55,8,1,1,9,1,I,7,L,8,L,13,0.763464,0.560081,0.427601
10,56,2,8,9,2,1,I,6,S,7,L,13,0.563525,0.750592,0.422977
10,57,9,2,2,1,1,C,7,L,1,S,9,0.76179,0.336025,0.255981
10,58,9,1,1,8,1,I,8,L,7,L,13,0.778786,0.545807,0.425067
10,59,2,1,9,1,1,C,1,S,8,L,11,0.803646,0.370823,0.29801
10,60,9,2,8,9,1,I,7,L,1,S,10,0.818846,0.33336,0.27297
10,61,2,1,8,2,1,C,1,S,6,S,11,0.7982,0.374982,0.299311
10,62,2,1,2,8,0,I,1,S,6,S,12,0.434266,0.769653,0.334234
10,63,2,1,9,8,1,C,1,S,1,S,14,0.782605,0.428303,0.335192
10,64,1,8,9,2,1,I,7,L,7,L,11,0.493045,0.761321,0.375365
10,65,8,1,9,1,1,C,7,L,8,L,8,0.756595,0.29189,0.220843
10,66,2,9,9,2,1,I,7,L,7,L,13,0.555017,0.759062,0.421292
10,67,8,9,1,8,1,C,1,S,7,L,11,0.384543,0.793465,0.305121
10,68,1,9,1,2,1,C,8,L,1,S,9,0.293976,0.817301,0.240267
10,69,1,8,8,9,1,C,7,L,1,S,9,0.326217,0.788185,0.257119
10,70,8,1,1,2,1,I,7,L,1,S,10,0.765125,0.385394,0.294875
10,71,8,9,1,2,1,C,1,S,1,S,15,0.457718,0.762956,0.349219
10,72,1,8,2,1,1,I,7,L,1,S,9,0.344287,0.770128,0.265145
10,73,2,9,9,1,1,I,7,L,8,L,13,0.551044,0.763339,0.420634
10,74,9,1,2,9,1,I,8,L,7,L,12,0.771667,0.509388,0.393078
10,75,9,2,1,8,1,I,7,L,7,L,13,0.781325,0.5416,0.423165
10,76,9,8,9,8,1,C,1,S,1,S,12,0.766318,0.409614,0.313895
10,77,9,2,2,9,1,I,7,L,7,L,12,0.774591,0.504871,0.391068
10,78,8,2,2,9,1,I,6,S,7,L,12,0.762346,0.515515,0.393001
10,79,8,9,8,2,0,I,1,S,6,S,11,0.770258,0.400814,0.30873
10,80,8,2,9,8,1,C,6,S,1,S,9,0.75957,0.33635,0.255481
10,81,2,1,1,2,1,I,1,S,1,S,25,0.75926,0.636218,0.483055
10,82,2,8,1,2,1,C,6,S,1,S,10,0.323987,0.822358,0.266434
10,83,1,2,8,1,1,I,1,S,7,L,16,0.608817,0.753968,0.459028
10,84,9,2,9,1,1,C,7,L,8,L,8,0.769916,0.278012,0.214046
10,85,8,9,8,1,0,I,1,S,7,L,11,0.764954,0.406073,0.310627
10,86,1,9,9,2,1,I,8,L,7,L,11,0.488292,0.765275,0.373678
10,87,9,8,2,8,1,I,1,S,6,S,22,0.769493,0.643556,0.495212
10,88,8,2,9,1,1,C,6,S,8,L,8,0.759928,0.286843,0.21798
10,89,9,1,2,8,1,I,8,L,6,S,12,0.775993,0.50414,0.391209
10,90,9,8,2,1,1,C,1,S,1,S,13,0.805343,0.39624,0.319109
10,91,9,2,1,2,1,I,7,L,1,S,10,0.781461,0.3695,0.28875
10,92,8,2,8,9,1,I,6,S,1,S,10,0.806582,0.343771,0.27728
10,93,2,1,8,9,1,I,1,S,1,S,18,0.783757,0.462688,0.362635
10,94,2,1,1,9,0,I,1,S,8,L,11,0.409598,0.771056,0.315823
10,95,1,8,1,8,1,C,7,L,7,L,8,0.250778,0.817702,0.205061
10,96,9,2,1,9,1,I,7,L,8,L,13,0.778526,0.544791,0.424134
10,97,2,9,8,1,1,I,7,L,7,L,13,0.54088,0.772552,0.417858
10,98,9,2,9,8,1,C,7,L,1,S,9,0.771025,0.326543,0.251773
10,99,9,1,8,1,1,C,8,L,7,L,8,0.758811,0.290265,0.220256
10,100,9,8,1,2,1,I,1,S,1,S,17,0.763344,0.550467,0.420196
10,101,9,8,1,9,0,I,1,S,8,L,13,0.50075,0.756922,0.379029
10,102,1,2,2,1,1,I,1,S,1,S,12,0.419172,0.781795,0.327707
10,103,1,8,1,9,1,C,7,L,8,L,8,0.248363,0.820515,0.203786
10,104,9,1,9,1,1,C,8,L,8,L,8,0.767045,0.282626,0.216787
10,105,8,2,8,2,1,C,6,S,6,S,8,0.75576,0.290052,0.21921
10,106,8,9,2,1,0,I,1,S,1,S,17,0.764342,0.478461,0.365708
10,107,8,9,8,9,1,C,1,S,1,S,23,0.478197,0.763537,0.365121
10,108,1,9,8,2,1,I,8,L,6,S,11,0.47843,0.773983,0.370297
10,109,8,2,2,1,1,C,6,S,1,S,9,0.750334,0.345831,0.259489
10,110,8,9,9,8,0,I,1,S,1,S,16,0.77949,0.459572,0.358232
10,111,1,9,8,9,1,C,8,L,1,S,9,0.321342,0.792323,0.254607
10,112,9,2,2,8,1,I,7,L,6,S,12,0.778918,0.499623,0.389165
10,113,9,8,8,1,1,C,1,S,7,L,10,0.776517,0.359549,0.279196
10,114,8,9,9,2,0,I,1,S,7,L,11,0.78012,0.392106,0.30589
10,115,9,1,9,8,1,C,8,L,1,S,9,0.767789,0.331376,0.254427
10,116,1,8,2,8,1,C,7,L,6,S,8,0.272362,0.789179,0.214942
10,117,1,2,9,1,1,I,1,S,8,L,17,0.60913,0.770567,0.469376
10,118,2,1,2,1,1,C,1,S,1,S,15,0.798421,0.424445,0.338886
10,119,9,8,9,2,1,C,1,S,7,L,10,0.791373,0.345886,0.273724
10,120,9,8,9,1,1,C,1,S,8,L,10,0.786976,0.350405,0.27576
10,121,2,1,1,8,0,I,1,S,7,L,11,0.412485,0.767634,0.316638
10,122,2,8,2,9,1,C,6,S,7,L,9,0.283149,0.832524,0.235728
10,123,8,9,2,9,1,C,1,S,7,L,11,0.409179,0.760265,0.311085
10,124,1,2,8,2,1,I,1,S,6,S,17,0.605083,0.774038,0.468358
10,125,8,1,2,8,1,I,7,L,6,S,12,0.762914,0.515475,0.393264
10,126,2,9,9,8,1,I,7,L,1,S,10,0.39191,0.756845,0.296615
10,127,8,1,2,9,1,I,7,L,7,L,12,0.758588,0.520724,0.395015
10,128,9,1,1,2,1,I,8,L,1,S,10,0.778127,0.374366,0.291305
10,129,1,8,1,2,1,C,7,L,1,S,9,0.298851,0.813163,0.243014
10,130,2,9,2,8,1,C,7,L,6,S,9,0.278696,0.836169,0.233037
10,131,2,9,1,9,1,C,7,L,8,L,8,0.28931,0.761346,0.220265
10,132,8,1,9,8,1,C,7,L,1,S,9,0.755713,0.341721,0.258243
10,133,9,8,1,8,0,I,1,S,7,L,13,0.50355,0.75373,0.379541
10,134,1,9,2,9,1,C,8,L,7,L,8,0.264532,0.796651,0.210739
10,135,1,8,2,9,1,C,7,L,7,L,8,0.269237,0.79277,0.213443
10,136,9,2,8,1,1,C,7,L,7,L,8,0.761681,0.28565,0.217574
10,137,2,1,8,1,1,C,1,S,7,L,11,0.792897,0.380241,0.301492
10,138,2,8,2,1,1,I,6,S,1,S,10,0.387294,0.760859,0.294676
10,139,8,9,2,8,1,C,1,S,6,S,11,0.413414,0.755072,0.312158
10,140,9,2,8,2,1,C,7,L,6,S,8,0.765748,0.281221,0.215344
10,141,2,8,8,9,1,C,6,S,1,S,10,0.361372,0.786218,0.284117
10,142,2,9,8,2,1,I,7,L,6,S,13,0.545785,0.767517,0.418899
10,143,1,9,1,8,1,C,8,L,7,L,8,0.246072,0.821582,0.202169
10,144,1,2,9,8,1,I,1,S,1,S,12,0.443443,0.760623,0.337293
11,1,9,2,8,1,1,C,7,L,7,L,8,0.772042,0.28179,0.217554
11,2,2,9,8,1,1,I,7,L,7,L,14,0.56663,0.775969,0.439687
11,3,1,8,1,2,1,C,7,L,1,S,10,0.321216,0.826228,0.265398
11,4,1,8,2,1,1,I,7,L,1,S,10,0.357845,0.784487,0.280725
11,5,9,1,8,1,1,C,8,L,7,L,8,0.782919,0.27566,0.215819
11,6,9,1,9,2,1,C,8,L,7,L,8,0.798337,0.26531,0.211807
11,7,9,2,8,9,1,I,7,L,1,S,10,0.810103,0.343337,0.278139
11,8,2,9,9,8,1,I,7,L,1,S,12,0.464445,0.785261,0.36471
11,9,8,1,9,2,1,C,7,L,7,L,8,0.781767,0.277371,0.216839
11,10,8,9,1,2,1,C,1,S,1,S,13,0.390939,0.812403,0.3176
11,11,1,9,9,2,1,I,8,L,7,L,13,0.551009,0.778929,0.429197
11,12,8,2,1,2,1,I,6,S,1,S,11,0.803757,0.396565,0.318742
11,13,1,9,2,1,1,I,8,L,1,S,9,0.346243,0.754452,0.261224
11,14,9,8,9,1,1,C,1,S,8,L,9,0.783038,0.321132,0.251459
11,15,1,9,9,8,1,I,8,L,1,S,11,0.42789,0.791374,0.338621
11,16,2,8,1,2,1,C,6,S,1,S,10,0.365604,0.764334,0.279444
11,17,8,1,2,9,1,I,7,L,7,L,13,0.7757,0.548719,0.425642
11,18,2,1,2,1,1,C,1,S,1,S,13,0.782733,0.429823,0.336436
11,19,1,2,9,8,0,I,1,S,1,S,15,0.75509,0.505809,0.381932
11,20,8,2,9,2,1,C,6,S,7,L,8,0.770115,0.284124,0.218808
11,21,8,2,2,1,1,C,6,S,1,S,10,0.785813,0.361637,0.284179
11,22,1,8,1,9,1,C,7,L,8,L,9,0.262049,0.858895,0.225073
11,23,1,8,8,1,1,I,7,L,7,L,14,0.570697,0.772896,0.44109
11,24,1,9,1,8,1,C,8,L,7,L,8,0.279496,0.773694,0.216244
11,25,8,9,1,9,1,C,1,S,8,L,10,0.358603,0.783062,0.280809
11,26,9,1,1,2,1,I,8,L,1,S,10,0.784363,0.379469,0.297641
11,27,2,8,8,2,1,I,6,S,6,S,16,0.605586,0.765752,0.463729
11,28,2,9,9,2,1,I,7,L,7,L,14,0.584338,0.762701,0.445676
11,29,8,2,9,1,1,C,6,S,8,L,8,0.776075,0.279715,0.21708
11,30,2,8,1,9,1,C,6,S,8,L,9,0.300397,0.805937,0.242101
11,31,8,9,9,8,1,I,1,S,1,S,23,0.633969,0.77108,0.488841
11,32,2,1,9,1,1,C,1,S,8,L,9,0.76673,0.333658,0.255826
11,33,2,9,2,9,1,C,7,L,7,L,9,0.262829,0.854817,0.224671
11,34,8,9,2,9,1,C,1,S,7,L,10,0.364166,0.775144,0.282281
11,35,2,1,8,2,1,C,1,S,6,S,10,0.819808,0.32572,0.267028
11,36,9,1,2,8,1,I,8,L,6,S,12,0.777071,0.511112,0.397171
11,37,9,8,1,2,1,I,1,S,1,S,14,0.772706,0.500117,0.386443
11,38,8,1,8,1,1,C,7,L,7,L,8,0.766348,0.287721,0.220494
11,39,1,8,8,9,1,C,7,L,1,S,10,0.360293,0.782073,0.281776
11,40,9,1,8,2,1,C,8,L,6,S,8,0.775844,0.280989,0.218004
11,41,9,8,1,8,1,I,1,S,7,L,18,0.760014,0.632343,0.480589
11,42,8,1,1,8,1,I,7,L,7,L,13,0.782522,0.539057,0.421824
11,43,1,2,8,1,0,I,1,S,7,L,11,0.750087,0.427197,0.320435
11,44,8,2,1,9,1,I,6,S,8,L,13,0.754416,0.5668,0.427603
11,45,8,2,2,8,1,I,6,S,6,S,13,0.774053,0.540017,0.418002
11,46,9,8,9,2,1,C,1,S,7,L,9,0.776412,0.326022,0.253127
11,47,9,1,9,8,1,C,8,L,1,S,9,0.823081,0.289261,0.238085
11,48,9,1,1,8,1,I,8,L,7,L,12,0.770064,0.5207,0.400972
11,49,9,8,8,1,1,C,1,S,7,L,9,0.758896,0.337842,0.256387
11,50,9,2,2,1,1,C,7,L,1,S,10,0.807655,0.345752,0.279248
11,51,1,8,9,8,1,I,7,L,1,S,12,0.468976,0.781575,0.36654
11,52,8,2,8,9,1,I,6,S,1,S,10,0.788261,0.359223,0.283161
11,53,1,9,2,9,1,C,8,L,7,L,8,0.274592,0.781386,0.214562
11,54,1,9,1,2,1,C,8,L,1,S,9,0.319624,0.784159,0.250636
11,55,9,1,8,9,1,I,8,L,1,S,10,0.82344,0.335314,0.276111
11,56,8,9,2,1,1,I,1,S,1,S,14,0.440258,0.766303,0.337371
11,57,9,8,2,1,1,C,1,S,1,S,12,0.764467,0.426663,0.326169
11,58,2,1,8,1,1,C,1,S,7,L,10,0.828732,0.319086,0.264437
11,59,2,1,1,9,1,I,1,S,8,L,20,0.768111,0.642176,0.493262
11,60,2,9,1,2,1,C,7,L,1,S,10,0.31664,0.829924,0.262787
11,61,8,9,9,1,0,I,1,S,8,L,11,0.758392,0.429459,0.325698
11,62,2,9,2,1,1,I,7,L,1,S,10,0.353269,0.788183,0.278441
11,63,9,1,9,1,1,C,8,L,8,L,8,0.804298,0.260901,0.209842
11,64,9,2,2,9,1,I,7,L,7,L,13,0.782102,0.542212,0.424065
11,65,8,9,8,2,0,I,1,S,6,S,12,0.75426,0.45911,0.346289
11,66,9,2,1,9,1,I,7,L,8,L,13,0.776286,0.54997,0.426934
11,67,2,9,2,8,1,C,7,L,6,S,9,0.274426,0.83754,0.229842
11,68,2,1,9,2,1,C,1,S,7,L,9,0.760104,0.338548,0.257332
11,69,1,8,1,8,1,C,7,L,7,L,9,0.272891,0.842628,0.229946
11,70,2,9,8,2,1,I,7,L,6,S,13,0.55789,0.753277,0.420246
11,71,2,9,8,9,1,C,7,L,1,S,10,0.355717,0.785769,0.279511
11,72,1,8,9,2,1,I,7,L,7,L,14,0.588405,0.759629,0.44697
11,73,8,9,2,8,1,C,1,S,6,S,10,0.376927,0.756373,0.285097
11,74,2,8,2,1,1,I,6,S,1,S,11,0.377424,0.790362,0.298301
11,75,8,2,9,8,1,C,6,S,1,S,9,0.790561,0.311038,0.245894
11,76,1,8,8,2,1,I,7,L,6,S,14,0.562203,0.779699,0.438349
11,77,8,1,1,9,1,I,7,L,8,L,13,0.769883,0.556477,0.428423
11,78,8,1,9,1,1,C,7,L,8,L,8,0.787727,0.272962,0.215019
11,79,1,8,9,1,1,I,7,L,8,L,14,0.594647,0.754579,0.448708
11,80,1,2,2,8,1,C,1,S,6,S,11,0.36813,0.804189,0.296046
11,81,8,2,2,9,1,I,6,S,7,L,13,0.760233,0.559042,0.425002
11,82,2,9,9,1,1,I,7,L,8,L,14,0.59058,0.757652,0.447454
11,83,8,2,1,8,1,I,6,S,7,L,13,0.767055,0.549379,0.421404
11,84,9,8,8,2,1,C,1,S,6,S,9,0.750678,0.343939,0.258188
11,85,2,1,9,8,1,C,1,S,1,S,11,0.822529,0.346077,0.284659
11,86,1,2,8,2,0,I,1,S,6,S,12,0.778078,0.430615,0.335052
11,87,9,2,8,2,1,C,7,L,6,S,8,0.764968,0.287119,0.219637
11,88,2,8,9,8,1,I,6,S,1,S,14,0.525632,0.777273,0.408559
11,89,8,2,8,2,1,C,6,S,6,S,9,0.857186,0.262933,0.225382
11,90,8,9,8,1,0,I,1,S,7,L,12,0.763442,0.452064,0.345125
11,91,2,8,8,1,1,I,6,S,7,L,16,0.613039,0.759555,0.465637
11,92,8,9,8,9,1,C,1,S,1,S,14,0.448255,0.757532,0.339568
11,93,9,1,2,9,1,I,8,L,7,L,12,0.763254,0.530582,0.404969
11,94,9,8,9,8,1,C,1,S,1,S,10,0.763279,0.365415,0.278913
11,95,1,2,1,8,1,C,1,S,7,L,10,0.383465,0.750387,0.287747
11,96,8,1,8,2,1,C,7,L,6,S,8,0.759274,0.29305,0.222505
11,97,1,9,8,2,1,I,8,L,6,S,12,0.52025,0.767194,0.399133
11,98,9,2,9,1,1,C,7,L,8,L,8,0.793421,0.267031,0.211868
11,99,1,2,8,9,1,C,1,S,1,S,15,0.45885,0.753736,0.345852
11,100,8,1,9,8,1,C,7,L,1,S,9,0.804151,0.302957,0.243623
11,101,8,9,1,8,1,C,1,S,7,L,10,0.370439,0.765582,0.283602
11,102,2,1,1,2,1,I,1,S,1,S,15,0.767747,0.525466,0.403425
11,103,2,8,9,1,1,I,6,S,8,L,17,0.624862,0.768039,0.479918
11,104,8,9,9,2,0,I,1,S,7,L,11,0.751383,0.434786,0.32669
11,105,2,8,2,8,1,C,6,S,6,S,9,0.317141,0.781238,0.247762
11,106,1,9,9,1,1,I,8,L,8,L,13,0.5576,0.773702,0.431416
11,107,2,8,2,9,1,C,6,S,7,L,9,0.305544,0.798515,0.243982
11,108,1,9,8,9,1,C,8,L,1,S,9,0.347993,0.752774,0.26196
11,109,2,1,8,9,1,I,1,S,1,S,13,0.788825,0.423335,0.333937
11,110,1,9,8,1,1,I,8,L,7,L,12,0.529431,0.760148,0.402446
11,111,8,1,2,8,1,I,7,L,6,S,12,0.756494,0.526699,0.398445
11,112,2,8,8,9,1,C,6,S,1,S,11,0.380791,0.786956,0.299666
11,113,9,1,2,1,1,C,8,L,1,S,10,0.820992,0.337728,0.277272
11,114,1,2,1,2,1,C,1,S,1,S,13,0.421594,0.774807,0.326653
11,115,2,8,1,8,1,C,6,S,7,L,9,0.311239,0.789671,0.245777
11,116,8,2,8,1,1,C,6,S,7,L,8,0.754696,0.294474,0.222238
11,117,9,2,2,8,1,I,7,L,6,S,12,0.763297,0.519947,0.396874
11,118,8,1,1,2,1,I,7,L,1,S,10,0.764068,0.394275,0.301253
11,119,8,1,8,9,1,I,7,L,1,S,10,0.803145,0.35012,0.281197
11,120,2,1,1,8,1,I,1,S,7,L,19,0.754004,0.644096,0.485651
11,121,8,1,2,1,1,C,7,L,1,S,10,0.800697,0.352534,0.282273
11,122,9,8,1,9,1,I,1,S,8,L,19,0.773576,0.632805,0.489522
11,123,1,9,2,8,1,C,8,L,6,S,8,0.284592,0.766468,0.21813
11,124,9,8,2,8,1,I,1,S,6,S,18,0.76564,0.62541,0.478839
11,125,1,2,2,9,1,C,1,S,7,L,10,0.377192,0.75995,0.286647
11,126,2,8,9,2,1,I,6,S,7,L,17,0.619791,0.772331,0.478684
11,127,9,2,1,2,1,I,7,L,1,S,10,0.771026,0.387492,0.298767
11,128,2,9,1,8,1,C,7,L,7,L,9,0.268524,0.845973,0.227164
11,129,2,9,1,9,1,C,7,L,8,L,8,0.294691,0.75253,0.221764
11,130,1,2,9,1,0,I,1,S,8,L,11,0.776279,0.408433,0.317058
11,131,1,2,1,9,1,C,1,S,8,L,10,0.371629,0.767867,0.285361
11,132,9,8,8,9,1,I,1,S,1,S,12,0.76903,0.42193,0.324477
11,133,9,2,1,8,1,I,7,L,7,L,12,0.75629,0.529535,0.400482
11,134,2,1,2,8,1,I,1,S,6,S,19,0.75927,0.637655,0.484152
11,135,9,2,9,8,1,C,7,L,1,S,9,0.810684,0.296475,0.240348
11,136,1,8,2,8,1,C,7,L,6,S,9,0.278793,0.834195,0.232568
11,137,9,8,2,9,1,I,1,S,7,L,18,0.754379,0.639765,0.482625
11,138,1,2,2,1,1,I,1,S,1,S,15,0.448563,0.765395,0.343328
11,139,2,1,2,9,1,I,1,S,7,L,20,0.772168,0.637182,0.492012
11,140,1,2,9,2,0,I,1,S,7,L,11,0.76927,0.413759,0.318292
11,141,1,9,1,9,1,C,8,L,8,L,8,0.270053,0.787938,0.212785
11,142,1,8,2,9,1,C,7,L,7,L,9,0.267196,0.851472,0.22751
11,143,9,1,1,9,1,I,8,L,8,L,12,0.757385,0.538588,0.407919
11,144,9,2,9,2,1,C,7,L,7,L,8,0.787461,0.27144,0.213748
12,1,9,8,1,8,0,I,1,S,7,L,12,0.442112,0.759047,0.335584
12,2,2,9,8,1,1,I,7,L,7,L,13,0.54563,0.765273,0.417556
12,3,2,1,2,1,1,C,1,S,1,S,12,0.786536,0.394978,0.310665
12,4,8,1,8,1,1,C,7,L,7,L,8,0.760245,0.288602,0.219408
12,5,2,9,1,9,1,C,7,L,8,L,9,0.268998,0.843092,0.22679
12,6,1,8,2,9,1,C,7,L,7,L,8,0.294371,0.751142,0.221115
12,7,1,9,1,8,1,C,8,L,7,L,8,0.277415,0.773133,0.214479
12,8,2,8,2,8,1,C,6,S,6,S,9,0.296426,0.803512,0.238182
12,9,8,1,1,8,1,I,7,L,7,L,12,0.767408,0.510098,0.391453
12,10,1,2,9,2,1,I,1,S,7,L,15,0.581084,0.756608,0.439653
12,11,1,8,9,1,1,I,7,L,8,L,12,0.519417,0.772275,0.401133
12,12,2,8,9,8,1,I,6,S,1,S,10,0.393492,0.750684,0.295388
12,13,2,8,1,9,1,C,6,S,8,L,9,0.266695,0.843679,0.225005
12,14,9,8,9,2,1,C,1,S,7,L,11,0.769768,0.393529,0.302926
12,15,8,9,8,9,0,C,1,S,1,S,21,0.771063,0.530783,0.409267
12,16,9,2,9,2,1,C,7,L,7,L,9,0.817554,0.291718,0.238496
12,17,9,8,2,9,0,I,1,S,7,L,13,0.469236,0.753651,0.35364
12,18,2,9,2,8,1,C,7,L,6,S,9,0.29873,0.802925,0.239857
12,19,9,1,2,1,1,C,8,L,1,S,9,0.811911,0.297165,0.241271
12,20,9,2,1,8,1,I,7,L,7,L,13,0.775242,0.533355,0.413479
12,21,8,1,1,9,1,I,7,L,8,L,12,0.762938,0.517297,0.394666
12,22,8,1,1,2,1,I,7,L,1,S,11,0.790461,0.421273,0.333
12,23,9,8,2,8,0,I,1,S,6,S,14,0.479135,0.765379,0.36672
12,24,1,2,2,9,1,C,1,S,7,L,10,0.313065,0.828618,0.259412
12,25,9,1,9,8,1,C,8,L,1,S,9,0.77827,0.325836,0.253589
12,26,9,1,8,9,1,I,8,L,1,S,10,0.817988,0.339715,0.277883
12,27,1,9,2,1,1,I,8,L,1,S,10,0.403855,0.765643,0.309208
12,28,2,9,9,2,1,I,7,L,7,L,12,0.504262,0.761364,0.383927
12,29,1,2,8,2,1,I,1,S,6,S,14,0.550507,0.752495,0.414254
12,30,9,2,8,2,1,C,7,L,6,S,9,0.794989,0.308457,0.24522
12,31,2,1,1,2,1,I,1,S,1,S,23,0.753089,0.64429,0.485208
12,32,1,9,9,1,1,I,8,L,8,L,12,0.520551,0.77286,0.402313
12,33,8,9,2,9,1,C,1,S,7,L,13,0.440876,0.778042,0.34302
12,34,1,2,1,2,1,C,1,S,1,S,10,0.343093,0.786349,0.269791
12,35,1,8,2,8,1,C,7,L,6,S,9,0.263128,0.851445,0.224039
12,36,8,1,8,2,1,C,7,L,6,S,9,0.817953,0.291061,0.238074
12,37,2,9,2,1,1,I,7,L,1,S,11,0.443307,0.761412,0.337539
12,38,1,8,8,9,1,C,7,L,1,S,9,0.332932,0.769932,0.256335
12,39,8,2,2,9,1,I,6,S,7,L,12,0.754292,0.504302,0.380391
12,40,9,2,9,1,1,C,7,L,8,L,8,0.754218,0.294265,0.22194
12,41,9,1,9,2,1,C,8,L,7,L,9,0.851171,0.269067,0.229022
12,42,8,2,1,2,1,I,6,S,1,S,11,0.750114,0.449258,0.336994
12,43,1,9,8,2,1,I,8,L,6,S,10,0.424731,0.751514,0.319191
12,44,1,8,9,8,1,I,7,L,1,S,10,0.357262,0.802283,0.286626
12,45,9,2,9,8,1,C,7,L,1,S,10,0.830171,0.318067,0.26405
12,46,8,9,1,8,1,C,1,S,7,L,12,0.421126,0.777406,0.327386
12,47,1,9,2,8,1,C,8,L,6,S,9,0.264741,0.851582,0.225449
12,48,2,9,9,8,1,I,7,L,1,S,10,0.395745,0.750115,0.296854
12,49,2,8,8,2,1,I,6,S,6,S,12,0.470334,0.785039,0.36923
12,50,2,9,8,2,1,I,7,L,6,S,12,0.472284,0.784756,0.370628
12,51,1,2,2,1,1,I,1,S,1,S,14,0.521512,0.772929,0.403092
12,52,9,1,1,9,1,I,8,L,8,L,12,0.775098,0.510343,0.395565
12,53,9,8,8,2,1,C,1,S,6,S,12,0.799897,0.38886,0.311048
12,54,1,2,1,9,1,C,1,S,8,L,9,0.322899,0.76953,0.248481
12,55,8,2,9,8,1,C,6,S,1,S,10,0.816653,0.325379,0.265722
12,56,9,2,2,8,1,I,7,L,6,S,12,0.77561,0.485509,0.376566
12,57,2,1,8,2,1,C,1,S,6,S,12,0.813638,0.37652,0.306351
12,58,8,9,2,1,0,I,1,S,1,S,12,0.751809,0.425676,0.320027
12,59,8,1,9,8,1,C,7,L,1,S,9,0.767617,0.331091,0.254151
12,60,9,8,9,1,1,C,1,S,8,L,10,0.760876,0.375302,0.285558
12,61,2,8,1,2,1,C,6,S,1,S,9,0.316796,0.776369,0.245951
12,62,1,2,9,1,1,I,1,S,8,L,17,0.615166,0.769257,0.473221
12,63,8,2,1,8,1,I,6,S,7,L,13,0.760441,0.542355,0.412429
12,64,1,8,2,1,1,I,7,L,1,S,10,0.40237,0.765387,0.307969
12,65,9,2,1,2,1,I,7,L,1,S,11,0.764524,0.441118,0.337245
12,66,9,2,2,1,1,C,7,L,1,S,9,0.778295,0.319816,0.248911
12,67,2,1,1,8,0,I,1,S,7,L,13,0.459824,0.772124,0.355042
12,68,8,2,2,8,1,I,6,S,6,S,12,0.76081,0.494204,0.375995
12,69,2,1,8,1,1,C,1,S,7,L,10,0.750989,0.380361,0.285647
12,70,1,2,8,9,1,C,1,S,1,S,11,0.386115,0.776615,0.299862
12,71,1,9,9,2,1,I,8,L,7,L,11,0.459207,0.776884,0.35675
12,72,9,2,2,9,1,I,7,L,7,L,12,0.769093,0.495608,0.381168
12,73,2,1,8,9,1,I,1,S,1,S,17,0.783773,0.471504,0.369552
12,74,8,9,1,2,1,C,1,S,1,S,14,0.475681,0.750953,0.357214
12,75,8,9,8,1,0,I,1,S,7,L,11,0.79197,0.378553,0.299802
12,76,2,1,2,8,0,I,1,S,6,S,15,0.516347,0.756452,0.390591
12,77,2,9,2,9,1,C,7,L,7,L,9,0.294414,0.80998,0.238469
12,78,9,2,1,9,1,I,7,L,8,L,13,0.77065,0.540532,0.416561
12,79,2,9,1,2,1,C,7,L,1,S,9,0.319099,0.775783,0.247552
12,80,1,8,8,1,1,I,7,L,7,L,12,0.501844,0.785096,0.393995
12,81,8,9,1,9,1,C,1,S,8,L,12,0.416656,0.784605,0.32691
12,82,9,8,8,1,1,C,1,S,7,L,11,0.807265,0.365061,0.294701
12,83,9,2,8,1,1,C,7,L,7,L,9,0.848885,0.267767,0.227304
12,84,1,2,8,1,1,I,1,S,7,L,16,0.609226,0.755678,0.460378
12,85,2,8,9,1,1,I,6,S,8,L,13,0.561008,0.752566,0.422196
12,86,1,8,1,2,1,C,7,L,1,S,9,0.283498,0.824303,0.233688
12,87,9,8,1,2,1,I,1,S,1,S,25,0.768161,0.638937,0.490807
12,88,2,9,8,9,1,C,7,L,1,S,10,0.346961,0.796751,0.276441
12,89,2,8,8,1,1,I,6,S,7,L,13,0.54389,0.76534,0.416261
12,90,9,1,9,1,1,C,8,L,8,L,8,0.783148,0.274815,0.215221
12,91,9,1,1,2,1,I,8,L,1,S,10,0.752196,0.414749,0.311973
12,92,2,1,9,8,1,C,1,S,1,S,13,0.774601,0.418,0.323783
12,93,9,1,8,2,1,C,8,L,6,S,9,0.828606,0.285806,0.23682
12,94,2,1,1,9,0,I,1,S,8,L,12,0.451383,0.753907,0.340301
12,95,1,9,1,2,1,C,8,L,1,S,9,0.285111,0.82444,0.235057
12,96,2,8,9,2,1,I,6,S,7,L,12,0.502311,0.761646,0.382584
12,97,2,8,2,9,1,C,6,S,7,L,9,0.29211,0.810567,0.236775
12,98,8,9,9,8,0,I,1,S,1,S,14,0.777871,0.430176,0.334622
12,99,2,1,9,1,1,C,1,S,8,L,10,0.768034,0.368403,0.282946
12,100,8,2,2,1,1,C,6,S,1,S,9,0.766234,0.326033,0.249818
12,101,1,9,2,9,1,C,8,L,7,L,8,0.296056,0.751216,0.222402
12,102,1,8,1,8,1,C,7,L,7,L,8,0.27573,0.773059,0.213156
12,103,8,9,9,2,0,I,1,S,7,L,11,0.754473,0.40702,0.307086
12,104,8,1,2,8,1,I,7,L,6,S,11,0.761879,0.460774,0.351054
12,105,8,2,8,1,1,C,6,S,7,L,9,0.836825,0.273984,0.229277
12,106,2,8,2,1,1,I,6,S,1,S,11,0.441178,0.761871,0.336121
12,107,1,8,9,2,1,I,7,L,7,L,11,0.457887,0.776473,0.355537
12,108,2,8,8,9,1,C,6,S,1,S,10,0.344707,0.79732,0.274842
12,109,8,2,8,2,1,C,6,S,6,S,9,0.782929,0.314674,0.246367
12,110,2,1,9,2,1,C,1,S,7,L,11,0.7798,0.384187,0.299589
12,111,1,9,8,9,1,C,8,L,1,S,9,0.334545,0.77007,0.257623
12,112,8,9,9,1,0,I,1,S,8,L,11,0.809576,0.365983,0.296291
12,113,9,8,9,8,1,C,1,S,1,S,13,0.756275,0.433838,0.328101
12,114,8,2,9,2,1,C,6,S,7,L,9,0.805494,0.297935,0.239985
12,115,9,1,1,8,1,I,8,L,7,L,12,0.779568,0.503143,0.392234
12,116,1,9,8,1,1,I,8,L,7,L,12,0.502978,0.785681,0.39518
12,117,8,1,8,9,1,I,7,L,1,S,10,0.806431,0.345751,0.278824
12,118,9,1,2,8,1,I,8,L,6,S,11,0.77391,0.454176,0.351491
12,119,2,8,1,8,1,C,6,S,7,L,9,0.270026,0.837774,0.226221
12,120,1,8,8,2,1,I,7,L,6,S,10,0.423246,0.751258,0.317967
12,121,8,2,1,9,1,I,6,S,8,L,13,0.75585,0.549532,0.415364
12,122,1,2,2,8,1,C,1,S,6,S,10,0.318296,0.820189,0.261063
12,123,1,9,1,9,1,C,8,L,8,L,8,0.274713,0.778082,0.213749
12,124,8,2,8,9,1,I,6,S,1,S,10,0.767869,0.372015,0.285659
12,125,8,9,2,8,1,C,1,S,6,S,13,0.447726,0.767689,0.343714
12,126,9,8,2,1,1,C,1,S,1,S,12,0.772795,0.407318,0.314773
12,127,9,2,8,9,1,I,7,L,1,S,10,0.781386,0.364703,0.284974
12,128,2,9,1,8,1,C,7,L,7,L,9,0.27233,0.837187,0.227991
12,129,1,2,9,8,1,I,1,S,1,S,12,0.447909,0.758963,0.339947
12,130,2,1,2,9,0,I,1,S,7,L,14,0.49576,0.756037,0.374813
12,131,1,9,9,8,1,I,8,L,1,S,10,0.358747,0.802539,0.287908
12,132,8,1,2,9,1,I,7,L,7,L,11,0.755902,0.47024,0.355455
12,133,8,2,9,1,1,C,6,S,8,L,9,0.852559,0.263046,0.224262
12,134,1,2,1,8,1,C,1,S,7,L,9,0.326231,0.763625,0.249118
12,135,8,9,8,2,0,I,1,S,6,S,12,0.778911,0.407219,0.317187
12,136,1,8,1,9,1,C,7,L,8,L,8,0.273028,0.778008,0.212418
12,137,8,1,9,1,1,C,7,L,8,L,8,0.773866,0.27909,0.215978
12,138,9,1,8,1,1,C,8,L,7,L,8,0.769527,0.284327,0.218798
12,139,8,1,2,1,1,C,7,L,1,S,9,0.801258,0.30242,0.242316
12,140,9,8,1,9,0,I,1,S,8,L,12,0.437642,0.766247,0.335342
12,141,8,1,9,2,1,C,7,L,7,L,9,0.840518,0.274322,0.230573
12,142,9,8,8,9,1,I,1,S,1,S,18,0.777356,0.487649,0.379076
12,143,2,9,9,1,1,I,7,L,8,L,13,0.562749,0.7525,0.423468
12,144,9,1,2,9,1,I,8,L,7,L,11,0.767932,0.463642,0.356045
13,1,9,2,1,9,1,I,7,L,8,L,14,0.779114,0.570721,0.444657
13,2,8,2,8,2,1,C,6,S,6,S,9,0.778554,0.31536,0.245525
13,3,2,8,9,8,1,I,6,S,1,S,10,0.410269,0.752796,0.308849
13,4,1,9,2,9,1,C,8,L,7,L,9,0.270001,0.841603,0.227234
13,5,8,1,9,1,1,C,7,L,8,L,8,0.776581,0.275237,0.213744
13,6,2,1,9,8,1,C,1,S,1,S,12,0.766639,0.413007,0.316627
13,7,9,8,8,9,1,I,1,S,1,S,15,0.75464,0.479744,0.362034
13,8,9,8,1,8,0,I,1,S,7,L,12,0.460627,0.759202,0.349709
13,9,2,8,8,2,1,I,6,S,6,S,11,0.470873,0.756892,0.3564
13,10,1,9,1,8,1,C,8,L,7,L,8,0.272695,0.780259,0.212773
13,11,9,1,9,2,1,C,8,L,7,L,8,0.784336,0.270961,0.212524
13,12,8,9,1,2,1,C,1,S,1,S,12,0.394375,0.791393,0.312105
13,13,1,2,2,9,1,C,1,S,7,L,10,0.335398,0.799199,0.26805
13,14,1,8,1,8,1,C,7,L,7,L,8,0.264946,0.793292,0.21018
13,15,9,1,1,8,1,I,8,L,7,L,12,0.774557,0.524708,0.406416
13,16,2,8,8,1,1,I,6,S,7,L,12,0.517099,0.765526,0.395853
13,17,2,9,2,9,1,C,7,L,7,L,9,0.276536,0.832805,0.230301
13,18,1,9,8,9,1,C,8,L,1,S,10,0.324317,0.824477,0.267392
13,19,8,2,1,8,1,I,6,S,7,L,15,0.760965,0.599381,0.456108
13,20,8,9,9,8,0,I,1,S,1,S,14,0.759,0.461208,0.350057
13,21,2,8,1,8,1,C,6,S,7,L,8,0.270327,0.78612,0.21251
13,22,9,8,9,2,1,C,1,S,7,L,10,0.761256,0.368378,0.28043
13,23,9,8,9,1,1,C,1,S,8,L,10,0.790428,0.347575,0.274733
13,24,2,8,2,1,1,I,6,S,1,S,10,0.400082,0.759111,0.303706
13,25,2,8,9,2,1,I,6,S,7,L,12,0.51162,0.768981,0.393426
13,26,1,8,8,9,1,C,7,L,1,S,9,0.339683,0.760624,0.258371
13,27,9,8,9,8,1,C,1,S,1,S,12,0.806854,0.377506,0.304593
13,28,8,1,9,8,1,C,7,L,1,S,9,0.792926,0.309597,0.245488
13,29,8,1,2,9,1,I,7,L,7,L,12,0.782386,0.489757,0.38318
13,30,1,2,9,1,1,I,1,S,8,L,19,0.636878,0.762977,0.485923
13,31,9,8,2,1,1,C,1,S,1,S,12,0.792047,0.386955,0.306486
13,32,2,1,9,1,1,C,1,S,8,L,10,0.768924,0.368453,0.283312
13,33,9,8,1,9,0,I,1,S,8,L,12,0.453357,0.767347,0.347882
13,34,2,1,2,8,0,I,1,S,6,S,14,0.489596,0.760398,0.372288
13,35,2,1,1,9,0,I,1,S,8,L,11,0.414338,0.768137,0.318268
13,36,9,1,9,1,1,C,8,L,8,L,8,0.807539,0.254386,0.205427
13,37,2,9,1,2,1,C,7,L,1,S,9,0.280118,0.825694,0.231292
13,38,2,9,2,8,1,C,7,L,6,S,9,0.289129,0.81804,0.236519
13,39,8,1,8,2,1,C,7,L,6,S,9,0.835614,0.275558,0.23026
13,40,8,2,8,9,1,I,6,S,1,S,11,0.799087,0.376255,0.30066
13,41,8,2,1,9,1,I,6,S,8,L,15,0.754652,0.605957,0.457287
13,42,9,1,1,9,1,I,8,L,8,L,12,0.767286,0.532853,0.408851
13,43,8,9,2,8,1,C,1,S,6,S,12,0.405013,0.781155,0.316378
13,44,1,8,2,8,1,C,7,L,6,S,9,0.273544,0.841733,0.230251
13,45,1,2,2,8,1,C,1,S,6,S,10,0.349711,0.781816,0.273409
13,46,8,2,2,1,1,C,6,S,1,S,10,0.815652,0.321998,0.262638
13,47,1,2,8,9,1,C,1,S,1,S,12,0.387531,0.797278,0.30897
13,48,8,1,1,9,1,I,7,L,8,L,13,0.762606,0.562153,0.428701
13,49,2,8,9,1,1,I,6,S,8,L,13,0.544424,0.779298,0.424269
13,50,9,2,8,1,1,C,7,L,7,L,9,0.85663,0.259934,0.222667
13,51,2,9,1,8,1,C,7,L,7,L,8,0.27843,0.772652,0.21513
13,52,1,8,1,2,1,C,7,L,1,S,9,0.264533,0.849388,0.224691
13,53,1,8,2,1,1,I,7,L,1,S,10,0.393584,0.767801,0.302194
13,54,9,1,8,9,1,I,8,L,1,S,9,0.763492,0.343664,0.262385
13,55,8,9,8,9,1,C,1,S,1,S,17,0.438763,0.786525,0.345098
13,56,8,1,8,9,1,I,7,L,1,S,10,0.800028,0.350193,0.280164
13,57,8,1,1,2,1,I,7,L,1,S,12,0.787952,0.480088,0.378286
13,58,8,9,9,1,0,I,1,S,8,L,11,0.778015,0.393659,0.306273
13,59,8,1,8,1,1,C,7,L,7,L,8,0.757249,0.289651,0.219338
13,60,2,9,9,8,1,I,7,L,1,S,11,0.420786,0.785928,0.330708
13,61,8,1,1,8,1,I,7,L,7,L,13,0.769639,0.554452,0.426728
13,62,9,2,8,2,1,C,7,L,6,S,9,0.823916,0.283705,0.233749
13,63,9,2,2,9,1,I,7,L,7,L,12,0.769242,0.499357,0.384126
13,64,2,9,8,2,1,I,7,L,6,S,12,0.488108,0.777971,0.379734
13,65,8,2,8,1,1,C,6,S,7,L,9,0.811268,0.291589,0.236557
13,66,8,9,2,9,1,C,1,S,7,L,12,0.388809,0.801063,0.311461
13,67,8,2,9,1,1,C,6,S,8,L,9,0.833562,0.27518,0.229379
13,68,9,1,8,1,1,C,8,L,7,L,8,0.788208,0.2688,0.21187
13,69,1,9,8,1,1,I,8,L,7,L,12,0.521276,0.757693,0.394967
13,70,1,2,8,1,1,I,1,S,7,L,18,0.632401,0.753392,0.476446
13,71,1,2,9,2,1,I,1,S,7,L,18,0.628003,0.756495,0.475081
13,72,1,2,8,2,1,I,1,S,6,S,17,0.610469,0.754474,0.460583
13,73,8,1,2,1,1,C,7,L,1,S,9,0.78512,0.314273,0.246742
13,74,8,2,2,9,1,I,6,S,7,L,14,0.777846,0.544703,0.423695
13,75,1,9,9,2,1,I,8,L,7,L,12,0.515797,0.761147,0.392598
13,76,8,9,2,1,0,I,1,S,1,S,15,0.770549,0.463226,0.356938
13,77,2,1,8,1,1,C,1,S,7,L,11,0.809711,0.362813,0.293773
13,78,2,8,1,9,1,C,6,S,8,L,8,0.263883,0.793411,0.209368
13,79,9,8,2,9,1,I,1,S,7,L,22,0.752949,0.650963,0.490142
13,80,9,1,1,2,1,I,8,L,1,S,11,0.787049,0.447871,0.352496
13,81,1,9,2,8,1,C,8,L,6,S,9,0.282594,0.826838,0.233659
13,82,2,9,9,2,1,I,7,L,7,L,12,0.523299,0.751391,0.393202
13,83,8,9,1,8,1,C,1,S,7,L,10,0.38256,0.751461,0.287479
13,84,8,1,9,2,1,C,7,L,7,L,8,0.753378,0.291812,0.219845
13,85,2,9,8,1,1,I,7,L,7,L,13,0.532296,0.780681,0.415554
13,86,2,8,8,9,1,C,6,S,1,S,9,0.345736,0.752478,0.260159
13,87,8,9,8,2,0,I,1,S,6,S,12,0.756798,0.430666,0.325927
13,88,2,8,1,2,1,C,6,S,1,S,9,0.270586,0.841242,0.227628
13,89,2,8,2,8,1,C,6,S,6,S,9,0.279597,0.833587,0.233068
13,90,1,2,1,9,1,C,1,S,8,L,9,0.321418,0.775316,0.249201
13,91,2,1,2,9,0,I,1,S,7,L,13,0.467576,0.760105,0.355407
13,92,9,8,2,8,1,I,1,S,6,S,22,0.76219,0.641665,0.489071
13,93,9,8,8,2,1,C,1,S,6,S,11,0.799877,0.364055,0.291199
