ANN,trial,N1,N2,P1,P2,Succ.,Cong,Ndist,Ndist,Pdist,Pdist,rt,a1,a2,x_acc
1,1,8,2,8,1,1,C,6,S,7,L,9,0.813308,0.294861,0.239813
1,2,9,8,9,2,1,C,1,S,7,L,11,0.797734,0.372265,0.296968
1,3,1,2,8,2,0,I,1,S,6,S,11,0.755464,0.418447,0.316122
1,4,2,1,2,9,1,I,1,S,7,L,15,0.758536,0.588886,0.446691
1,5,1,9,9,1,1,I,8,L,8,L,14,0.578716,0.756623,0.43787
1,6,9,1,8,9,1,I,8,L,1,S,9,0.791317,0.316991,0.25084
1,7,1,9,2,1,1,I,8,L,1,S,11,0.38997,0.789711,0.307963
1,8,8,2,8,2,1,C,6,S,6,S,9,0.795142,0.308119,0.244998
1,9,9,2,9,8,1,C,7,L,1,S,9,0.776114,0.329367,0.255626
1,10,2,9,8,2,1,I,7,L,6,S,17,0.621333,0.756616,0.470111
1,11,9,8,1,9,0,I,1,S,8,L,13,0.476012,0.759771,0.361661
1,12,8,1,2,1,1,C,7,L,1,S,10,0.808368,0.336135,0.27172
1,13,1,8,8,1,1,I,7,L,7,L,13,0.553851,0.764055,0.423173
1,14,8,9,2,1,1,I,1,S,1,S,24,0.612875,0.763662,0.468029
1,15,8,1,1,9,1,I,7,L,8,L,13,0.77997,0.528666,0.412344
1,16,2,8,1,2,1,C,6,S,1,S,10,0.381601,0.752082,0.286996
1,17,1,9,8,2,1,I,8,L,6,S,14,0.571551,0.761332,0.43514
1,18,8,2,1,9,1,I,6,S,8,L,14,0.754052,0.573052,0.432111
1,19,1,9,2,8,1,C,8,L,6,S,9,0.321418,0.776507,0.249583
1,20,2,1,8,1,1,C,1,S,7,L,9,0.799419,0.30499,0.243815
1,21,1,8,1,8,1,C,7,L,7,L,9,0.297277,0.811669,0.241291
1,22,2,8,2,8,1,C,6,S,6,S,9,0.325278,0.769177,0.250197
1,23,9,1,9,2,1,C,8,L,7,L,8,0.770588,0.285698,0.220156
1,24,8,9,1,9,1,C,1,S,8,L,11,0.393169,0.774041,0.304329
1,25,9,2,2,1,1,C,7,L,1,S,9,0.752057,0.347445,0.261299
1,26,8,9,8,1,0,I,1,S,7,L,11,0.761697,0.413668,0.315089
1,27,8,1,8,9,1,I,7,L,1,S,10,0.817565,0.327575,0.267814
1,28,2,8,2,1,1,I,6,S,1,S,11,0.395344,0.780316,0.308493
1,29,9,2,8,9,1,I,7,L,1,S,9,0.758523,0.341221,0.258824
1,30,1,8,2,8,1,C,7,L,6,S,9,0.291087,0.817225,0.237884
1,31,2,8,8,2,1,I,6,S,6,S,14,0.577848,0.751382,0.434184
1,32,8,9,9,8,0,I,1,S,1,S,18,0.751446,0.546076,0.410347
1,33,1,8,2,1,1,I,7,L,1,S,10,0.371572,0.775376,0.288108
1,34,1,2,8,1,0,I,1,S,7,L,11,0.776099,0.403163,0.312894
1,35,8,2,2,1,1,C,6,S,1,S,10,0.756362,0.374939,0.283589
1,36,2,8,9,1,1,I,6,S,8,L,15,0.582372,0.774197,0.450871
1,37,1,8,9,2,1,I,7,L,7,L,12,0.513134,0.760434,0.390204
1,38,8,9,1,2,1,C,1,S,1,S,16,0.453891,0.769144,0.349108
1,39,2,8,8,1,1,I,6,S,7,L,15,0.593617,0.764245,0.453669
1,40,8,1,8,2,1,C,7,L,6,S,9,0.840745,0.273708,0.230119
1,41,9,8,8,9,1,I,1,S,1,S,13,0.758707,0.430599,0.326698
1,42,8,9,1,8,1,C,1,S,7,L,12,0.396413,0.796357,0.315686
1,43,9,8,2,1,1,C,1,S,1,S,14,0.793107,0.415372,0.329434
1,44,2,8,9,2,1,I,6,S,7,L,14,0.561827,0.76492,0.429752
1,45,2,1,8,2,1,C,1,S,6,S,9,0.781253,0.318248,0.248632
1,46,1,9,2,9,1,C,8,L,7,L,9,0.301377,0.801815,0.241648
1,47,8,2,9,8,1,C,6,S,1,S,10,0.789581,0.349556,0.276002
1,48,2,1,2,1,1,C,1,S,1,S,11,0.81265,0.35774,0.290717
1,49,2,8,2,9,1,C,6,S,7,L,9,0.305237,0.794486,0.242506
1,50,9,8,9,8,1,C,1,S,1,S,13,0.808455,0.395549,0.319784
1,51,1,8,1,9,1,C,7,L,8,L,9,0.275817,0.838518,0.231277
1,52,8,2,2,9,1,I,6,S,7,L,15,0.77735,0.574413,0.446519
1,53,1,9,8,1,1,I,8,L,7,L,15,0.587318,0.77394,0.454549
1,54,9,8,2,8,0,I,1,S,6,S,15,0.523449,0.757155,0.396332
1,55,2,8,1,9,1,C,6,S,8,L,9,0.310008,0.79047,0.245052
1,56,2,9,2,1,1,I,7,L,1,S,12,0.43582,0.758364,0.33051
1,57,9,2,1,2,1,I,7,L,1,S,10,0.80498,0.351549,0.28299
1,58,9,1,1,2,1,I,8,L,1,S,9,0.765176,0.345589,0.264436
1,59,9,2,2,9,1,I,7,L,7,L,12,0.768254,0.512021,0.393362
1,60,1,9,1,2,1,C,8,L,1,S,10,0.376902,0.760621,0.28668
1,61,1,8,1,2,1,C,7,L,1,S,10,0.342994,0.806449,0.276607
1,62,9,1,8,2,1,C,8,L,6,S,8,0.782335,0.275678,0.215673
1,63,9,8,9,1,1,C,1,S,8,L,10,0.753898,0.380392,0.286776
1,64,2,8,8,9,1,C,6,S,1,S,11,0.40809,0.768867,0.313767
1,65,9,8,8,2,1,C,1,S,6,S,11,0.814681,0.358648,0.292184
1,66,8,2,2,8,1,I,6,S,6,S,14,0.774462,0.546073,0.422913
1,67,9,2,9,2,1,C,7,L,7,L,9,0.849435,0.271461,0.230588
1,68,9,2,8,2,1,C,7,L,6,S,8,0.753312,0.297257,0.223927
1,69,8,2,8,9,1,I,6,S,1,S,10,0.765558,0.366379,0.280485
1,70,9,8,1,8,0,I,1,S,7,L,15,0.530374,0.750505,0.398048
1,71,8,2,9,2,1,C,6,S,7,L,9,0.780887,0.31978,0.249712
1,72,2,8,1,8,1,C,6,S,7,L,9,0.331469,0.763621,0.253116
1,73,8,9,9,1,0,I,1,S,8,L,12,0.789467,0.416494,0.328808
1,74,1,9,1,9,1,C,8,L,8,L,9,0.306147,0.797799,0.244244
1,75,9,1,1,8,1,I,8,L,7,L,10,0.750841,0.43472,0.326405
1,76,1,2,1,2,1,C,1,S,1,S,17,0.477107,0.754079,0.359776
1,77,1,2,9,8,0,I,1,S,1,S,15,0.759205,0.48046,0.364768
1,78,1,2,2,9,1,C,1,S,7,L,11,0.402427,0.768158,0.309127
1,79,8,2,1,2,1,I,6,S,1,S,11,0.790601,0.387031,0.305987
1,80,1,8,9,8,1,I,7,L,1,S,11,0.398346,0.804306,0.320392
1,81,2,9,8,1,1,I,7,L,7,L,18,0.6264,0.768136,0.48116
1,82,2,1,1,9,1,I,1,S,8,L,15,0.762849,0.58543,0.446595
1,83,1,9,9,8,1,I,8,L,1,S,11,0.434606,0.75563,0.328401
1,84,1,9,8,9,1,C,8,L,1,S,11,0.402716,0.778262,0.313418
1,85,2,9,9,8,1,I,7,L,1,S,13,0.492902,0.751943,0.370635
1,86,9,1,2,8,1,I,8,L,6,S,11,0.789777,0.447759,0.35363
1,87,9,2,8,1,1,C,7,L,7,L,8,0.768832,0.285764,0.219705
1,88,9,1,2,9,1,I,8,L,7,L,11,0.765491,0.479127,0.366767
1,89,1,2,9,1,0,I,1,S,8,L,11,0.762712,0.414093,0.315834
1,90,8,9,9,2,0,I,1,S,7,L,12,0.764936,0.435013,0.332757
1,91,8,9,8,2,0,I,1,S,6,S,12,0.782077,0.421083,0.32932
1,92,2,9,1,8,1,C,7,L,7,L,10,0.34023,0.798519,0.271681
1,93,9,1,9,8,1,C,8,L,1,S,9,0.808908,0.305137,0.246828
1,94,9,8,8,1,1,C,1,S,7,L,10,0.766908,0.369845,0.283637
1,95,1,8,8,2,1,I,7,L,6,S,13,0.533727,0.779576,0.416081
1,96,1,2,1,9,1,C,1,S,8,L,11,0.407571,0.763536,0.311195
1,97,1,2,2,8,1,C,1,S,6,S,12,0.407778,0.788649,0.321594
1,98,2,8,9,8,1,I,6,S,1,S,12,0.435831,0.791793,0.345088
1,99,1,9,9,2,1,I,8,L,7,L,14,0.55553,0.774869,0.430463
1,100,2,9,1,9,1,C,7,L,8,L,10,0.315828,0.829768,0.262064
1,101,2,9,9,2,1,I,7,L,7,L,17,0.608553,0.76814,0.467454
1,102,8,1,9,1,1,C,7,L,8,L,9,0.846912,0.270251,0.228879
1,103,8,1,2,9,1,I,7,L,7,L,13,0.775064,0.532944,0.413065
1,104,1,2,8,9,0,C,1,S,1,S,18,0.758135,0.509446,0.386229
1,105,9,2,1,8,1,I,7,L,7,L,11,0.761677,0.467262,0.355903
1,106,2,9,2,9,1,C,7,L,7,L,10,0.310781,0.834231,0.259263
1,107,8,1,8,1,1,C,7,L,7,L,9,0.858911,0.26045,0.223704
1,108,8,1,9,8,1,C,7,L,1,S,9,0.753169,0.343276,0.258544
1,109,2,1,9,8,1,C,1,S,1,S,10,0.773016,0.361466,0.279419
1,110,8,9,2,9,1,C,1,S,7,L,11,0.388025,0.778663,0.30214
1,111,2,1,1,8,1,I,1,S,7,L,14,0.762189,0.553614,0.421958
1,112,2,9,1,2,1,C,7,L,1,S,11,0.408498,0.751295,0.306902
1,113,2,1,9,1,1,C,1,S,8,L,9,0.78742,0.314791,0.247872
1,114,8,9,2,8,1,C,1,S,6,S,12,0.388899,0.803964,0.312661
1,115,2,1,9,2,1,C,1,S,7,L,9,0.766998,0.329909,0.253039
1,116,1,9,1,8,1,C,8,L,7,L,9,0.327608,0.77095,0.25257
1,117,8,2,9,1,1,C,6,S,8,L,9,0.801309,0.304661,0.244128
1,118,2,1,2,8,1,I,1,S,6,S,14,0.754919,0.56079,0.423351
1,119,8,1,2,8,1,I,7,L,6,S,12,0.766839,0.497284,0.381336
1,120,1,2,1,8,1,C,1,S,7,L,12,0.415293,0.781042,0.324361
1,121,8,1,1,2,1,I,7,L,1,S,10,0.779789,0.367208,0.286345
1,122,2,1,1,2,1,I,1,S,1,S,11,0.772111,0.400313,0.309086
1,123,9,1,2,1,1,C,8,L,1,S,9,0.784851,0.323215,0.253676
1,124,9,1,1,9,1,I,8,L,8,L,11,0.770635,0.474504,0.36567
1,125,9,1,8,1,1,C,8,L,7,L,8,0.797855,0.264185,0.210782
1,126,9,8,2,9,0,I,1,S,7,L,13,0.471105,0.764049,0.359948
1,127,1,8,9,1,1,I,7,L,8,L,13,0.54107,0.774875,0.419262
1,128,1,8,8,9,1,C,7,L,1,S,10,0.380769,0.766816,0.29198
1,129,1,2,2,1,1,I,1,S,1,S,29,0.634253,0.77265,0.490056
1,130,2,9,2,8,1,C,7,L,6,S,10,0.333347,0.805158,0.268397
1,131,8,1,1,8,1,I,7,L,7,L,12,0.774353,0.489676,0.379183
1,132,9,8,1,2,1,I,1,S,1,S,16,0.755193,0.490785,0.370637
1,133,8,9,8,9,1,C,1,S,1,S,25,0.62916,0.761633,0.479189
1,134,8,2,1,8,1,I,6,S,7,L,13,0.751277,0.537247,0.403621
1,135,2,1,8,9,1,I,1,S,1,S,11,0.825396,0.346291,0.285827
1,136,9,2,2,8,1,I,7,L,6,S,11,0.754352,0.474593,0.35801
1,137,1,2,9,2,0,I,1,S,7,L,12,0.783816,0.419698,0.328966
1,138,2,9,8,9,1,C,7,L,1,S,13,0.443155,0.786992,0.348759
1,139,2,9,9,1,1,I,7,L,8,L,17,0.62762,0.752271,0.47214
1,140,9,1,9,1,1,C,8,L,8,L,8,0.787542,0.272865,0.214893
1,141,9,2,9,1,1,C,7,L,8,L,8,0.758519,0.294444,0.223341
1,142,9,2,1,9,1,I,7,L,8,L,12,0.77334,0.507482,0.392456
1,143,8,1,9,2,1,C,7,L,7,L,9,0.82649,0.285369,0.235855
1,144,1,8,2,9,1,C,7,L,7,L,9,0.271046,0.842534,0.228365
2,1,1,2,2,9,1,C,1,S,7,L,10,0.353618,0.777695,0.275007
2,2,1,2,2,8,1,C,1,S,6,S,10,0.350403,0.781613,0.273879
2,3,8,1,8,2,1,C,7,L,6,S,9,0.794653,0.303582,0.241242
2,4,2,8,8,2,1,I,6,S,6,S,16,0.586183,0.767112,0.449668
2,5,8,1,8,9,1,I,7,L,1,S,10,0.768187,0.370394,0.284532
2,6,9,2,2,9,1,I,7,L,7,L,14,0.775027,0.547139,0.424047
2,7,1,2,1,2,1,C,1,S,1,S,11,0.38526,0.767892,0.295838
2,8,8,9,8,2,0,I,1,S,6,S,12,0.750371,0.441349,0.331175
2,9,9,8,2,9,1,I,1,S,7,L,19,0.762511,0.627513,0.478485
2,10,2,1,9,8,1,C,1,S,1,S,18,0.752456,0.54082,0.406943
2,11,1,2,9,2,1,I,1,S,7,L,18,0.617091,0.7585,0.468063
2,12,1,8,1,9,1,C,7,L,8,L,9,0.298818,0.806854,0.241103
2,13,1,9,2,1,1,I,8,L,1,S,12,0.47921,0.786443,0.376872
2,14,1,2,9,8,1,I,1,S,1,S,12,0.396515,0.786127,0.311711
2,15,1,8,1,2,1,C,7,L,1,S,10,0.338093,0.799105,0.270172
2,16,1,9,1,9,1,C,8,L,8,L,9,0.26303,0.856122,0.225186
2,17,9,1,8,1,1,C,8,L,7,L,9,0.848975,0.264393,0.224463
2,18,9,8,8,2,1,C,1,S,6,S,10,0.763543,0.363104,0.277246
2,19,8,2,8,2,1,C,6,S,6,S,9,0.773661,0.320673,0.248092
2,20,2,8,9,2,1,I,6,S,7,L,16,0.584971,0.769566,0.450174
2,21,2,1,8,9,1,I,1,S,1,S,16,0.778218,0.453562,0.35297
2,22,9,8,9,1,1,C,1,S,8,L,10,0.829421,0.3183,0.264005
2,23,8,1,9,8,1,C,7,L,1,S,10,0.754639,0.386407,0.291598
2,24,2,1,2,8,0,I,1,S,6,S,14,0.488167,0.765015,0.373455
2,25,1,9,9,8,1,I,8,L,1,S,10,0.328596,0.821732,0.270018
2,26,2,8,1,2,1,C,6,S,1,S,11,0.349771,0.817556,0.285958
2,27,9,2,1,2,1,I,7,L,1,S,12,0.790556,0.433067,0.342364
2,28,8,1,2,8,1,I,7,L,6,S,13,0.774609,0.524363,0.406176
2,29,2,1,2,1,1,C,1,S,1,S,11,0.765769,0.391825,0.300047
2,30,9,8,1,9,1,I,1,S,8,L,20,0.765825,0.63897,0.48934
2,31,8,9,9,8,1,I,1,S,1,S,16,0.435546,0.794042,0.345842
2,32,9,2,9,2,1,C,7,L,7,L,9,0.766611,0.326392,0.250215
2,33,8,9,8,9,1,C,1,S,1,S,18,0.457457,0.778167,0.355978
2,34,9,2,8,9,1,I,7,L,1,S,11,0.803821,0.370754,0.29802
2,35,2,9,8,2,1,I,7,L,6,S,13,0.523266,0.768594,0.402179
2,36,8,1,8,1,1,C,7,L,7,L,9,0.853932,0.262036,0.223761
2,37,2,8,9,8,1,I,6,S,1,S,11,0.389692,0.772851,0.301174
2,38,2,8,2,8,1,C,6,S,6,S,10,0.320826,0.822424,0.263854
2,39,1,9,1,8,1,C,8,L,7,L,9,0.260767,0.858806,0.223948
2,40,1,2,9,1,1,I,1,S,8,L,20,0.644176,0.763403,0.491766
2,41,1,2,8,1,1,I,1,S,7,L,20,0.642855,0.763319,0.490704
2,42,9,2,9,1,1,C,7,L,8,L,9,0.827369,0.283467,0.234531
2,43,9,8,8,9,1,I,1,S,1,S,13,0.783243,0.422277,0.330745
2,44,1,8,8,2,1,I,7,L,6,S,13,0.532953,0.75485,0.4023
2,45,1,9,8,9,1,C,8,L,1,S,10,0.342145,0.805719,0.275672
2,46,1,8,8,1,1,I,7,L,7,L,15,0.598193,0.76187,0.455745
2,47,8,2,2,1,1,C,6,S,1,S,9,0.769522,0.326,0.250864
2,48,8,9,1,9,1,C,1,S,8,L,11,0.390354,0.782748,0.305549
2,49,8,2,8,9,1,I,6,S,1,S,11,0.810631,0.367012,0.297512
2,50,2,1,2,9,0,I,1,S,7,L,14,0.491757,0.760752,0.374105
2,51,8,2,9,1,1,C,6,S,8,L,9,0.832649,0.280843,0.233844
2,52,2,8,8,9,1,C,6,S,1,S,11,0.408846,0.750685,0.306915
2,53,8,9,2,1,0,I,1,S,1,S,13,0.781745,0.437896,0.342323
2,54,1,8,1,8,1,C,7,L,7,L,9,0.296555,0.809538,0.240072
2,55,8,2,1,8,1,I,6,S,7,L,14,0.753894,0.579671,0.437011
2,56,9,8,9,8,1,C,1,S,1,S,14,0.788759,0.449878,0.354845
2,57,1,8,2,9,1,C,7,L,7,L,9,0.318894,0.778626,0.248299
2,58,2,9,1,2,1,C,7,L,1,S,10,0.329957,0.811311,0.267698
2,59,1,9,8,2,1,I,8,L,6,S,12,0.484706,0.780295,0.378213
2,60,1,2,1,8,1,C,1,S,7,L,10,0.328337,0.812836,0.266884
2,61,9,8,9,2,1,C,1,S,7,L,10,0.761451,0.366391,0.278988
2,62,9,2,1,8,1,I,7,L,7,L,15,0.773933,0.581795,0.450271
2,63,9,1,1,8,1,I,8,L,7,L,14,0.772536,0.562703,0.434708
2,64,2,1,1,8,0,I,1,S,7,L,12,0.451059,0.755366,0.340715
2,65,9,2,2,1,1,C,7,L,1,S,9,0.764242,0.328624,0.251148
2,66,1,8,2,1,1,I,7,L,1,S,13,0.527606,0.760888,0.40145
2,67,8,9,9,1,0,I,1,S,8,L,11,0.778589,0.401628,0.312703
2,68,2,8,2,1,1,I,6,S,1,S,16,0.582216,0.772146,0.449555
2,69,2,9,1,8,1,C,7,L,7,L,9,0.289521,0.820138,0.237447
2,70,9,1,1,2,1,I,8,L,1,S,11,0.771198,0.416701,0.321358
2,71,2,8,2,9,1,C,6,S,7,L,10,0.324041,0.818505,0.265229
2,72,1,9,2,9,1,C,8,L,7,L,9,0.283106,0.827894,0.234382
2,73,8,1,1,8,1,I,7,L,7,L,14,0.778858,0.558916,0.435316
2,74,8,1,2,1,1,C,7,L,1,S,9,0.790514,0.308909,0.244197
2,75,8,9,8,1,0,I,1,S,7,L,11,0.778688,0.400126,0.311573
2,76,1,2,1,9,1,C,1,S,8,L,10,0.330794,0.809877,0.267902
2,77,1,2,2,1,1,I,1,S,1,S,18,0.614832,0.760736,0.467725
2,78,1,8,9,1,1,I,7,L,8,L,15,0.598776,0.762688,0.45668
2,79,2,8,1,9,1,C,6,S,8,L,9,0.337709,0.756869,0.255601
2,80,2,9,9,1,1,I,7,L,8,L,15,0.589273,0.775579,0.457028
2,81,1,8,2,8,1,C,7,L,6,S,9,0.316053,0.781979,0.247147
2,82,9,2,2,8,1,I,7,L,6,S,14,0.771438,0.551401,0.425372
2,83,2,1,9,1,1,C,1,S,8,L,10,0.773426,0.363498,0.281139
2,84,8,2,9,2,1,C,6,S,7,L,9,0.771891,0.323768,0.249914
2,85,1,8,9,8,1,I,7,L,1,S,10,0.368596,0.766477,0.28252
2,86,2,1,8,2,1,C,1,S,6,S,11,0.771138,0.385741,0.29746
2,87,9,2,9,8,1,C,7,L,1,S,11,0.784666,0.39292,0.308311
2,88,8,9,2,9,1,C,1,S,7,L,12,0.393037,0.803303,0.315728
2,89,9,8,1,2,1,I,1,S,1,S,16,0.774395,0.538455,0.416976
2,90,2,1,9,2,1,C,1,S,7,L,11,0.768895,0.389094,0.299172
2,91,9,2,1,9,1,I,7,L,8,L,15,0.776291,0.579171,0.449605
2,92,2,1,1,2,1,I,1,S,1,S,22,0.758198,0.62414,0.473222
2,93,2,9,1,9,1,C,7,L,8,L,9,0.291784,0.817454,0.23852
2,94,8,1,9,2,1,C,7,L,7,L,9,0.792883,0.306677,0.243159
2,95,9,1,9,2,1,C,8,L,7,L,9,0.787926,0.309034,0.243496
2,96,2,9,9,8,1,I,7,L,1,S,10,0.36046,0.778683,0.280684
2,97,1,9,2,8,1,C,8,L,6,S,9,0.280266,0.831247,0.23297
2,98,1,9,9,1,1,I,8,L,8,L,13,0.558698,0.762878,0.426218
2,99,1,2,8,9,1,C,1,S,1,S,12,0.422981,0.755747,0.319667
2,100,9,1,1,9,1,I,8,L,8,L,14,0.77501,0.559885,0.433916
2,101,2,9,2,1,1,I,7,L,1,S,13,0.51792,0.774632,0.401197
2,102,9,1,2,1,1,C,8,L,1,S,9,0.785557,0.311266,0.244517
2,103,2,9,2,9,1,C,7,L,7,L,9,0.31186,0.789226,0.246128
2,104,9,1,8,9,1,I,8,L,1,S,10,0.762548,0.373246,0.284618
2,105,1,2,8,2,1,I,1,S,6,S,18,0.617642,0.75661,0.467314
2,106,8,9,2,8,1,C,1,S,6,S,11,0.411622,0.752451,0.309725
2,107,8,1,1,9,1,I,7,L,8,L,13,0.752063,0.555216,0.417558
2,108,9,1,2,8,1,I,8,L,6,S,13,0.768219,0.528065,0.405669
2,109,8,1,1,2,1,I,7,L,1,S,11,0.77729,0.413456,0.321376
2,110,2,8,1,8,1,C,6,S,7,L,9,0.335445,0.759553,0.254789
2,111,9,8,1,8,1,I,1,S,7,L,20,0.764213,0.640583,0.489542
2,112,8,9,9,2,0,I,1,S,7,L,13,0.785013,0.435029,0.341503
2,113,9,2,8,2,1,C,7,L,6,S,9,0.768381,0.323296,0.248415
2,114,8,2,1,2,1,I,6,S,1,S,11,0.751556,0.433883,0.326087
2,115,8,2,8,1,1,C,6,S,7,L,9,0.83294,0.279127,0.232496
2,116,9,8,2,1,1,C,1,S,1,S,10,0.758628,0.368917,0.279871
2,117,2,8,9,1,1,I,6,S,8,L,18,0.627326,0.770714,0.483489
2,118,1,8,8,9,1,C,7,L,1,S,10,0.382144,0.750464,0.286785
2,119,8,2,2,8,1,I,6,S,6,S,14,0.778729,0.546924,0.425906
2,120,9,1,2,9,1,I,8,L,7,L,13,0.771863,0.523654,0.404189
2,121,9,8,2,8,1,I,1,S,6,S,19,0.759843,0.630355,0.478971
2,122,2,1,8,1,1,C,1,S,7,L,10,0.773647,0.361867,0.279958
2,123,9,1,8,2,1,C,8,L,6,S,9,0.789696,0.305939,0.241599
2,124,8,9,1,8,1,C,1,S,7,L,11,0.38779,0.785829,0.304737
2,125,1,9,8,1,1,I,8,L,7,L,13,0.558469,0.761706,0.42539
2,126,2,9,8,1,1,I,7,L,7,L,15,0.58869,0.77476,0.456094
2,127,9,1,9,1,1,C,8,L,8,L,9,0.848684,0.266109,0.225842
2,128,8,1,2,9,1,I,7,L,7,L,13,0.778253,0.519952,0.404654
2,129,2,9,9,2,1,I,7,L,7,L,13,0.521187,0.771765,0.402234
2,130,9,2,8,1,1,C,7,L,7,L,9,0.82766,0.281751,0.233194
2,131,8,9,1,2,1,C,1,S,1,S,14,0.423226,0.79208,0.335229
2,132,1,8,9,2,1,I,7,L,7,L,13,0.530874,0.758022,0.402414
2,133,2,8,8,1,1,I,6,S,7,L,18,0.626265,0.77037,0.482456
2,134,2,1,1,9,0,I,1,S,8,L,12,0.453652,0.752291,0.341278
2,135,8,2,9,8,1,C,6,S,1,S,11,0.791476,0.389179,0.308026
2,136,9,8,8,1,1,C,1,S,7,L,10,0.829643,0.316669,0.262722
2,137,2,9,8,9,1,C,7,L,1,S,10,0.374009,0.76267,0.285245
2,138,8,1,9,1,1,C,7,L,8,L,9,0.853641,0.263752,0.225149
2,139,8,2,1,9,1,I,6,S,8,L,14,0.756369,0.576853,0.436314
2,140,1,9,1,2,1,C,8,L,1,S,9,0.331243,0.765094,0.253432
2,141,1,9,9,2,1,I,8,L,7,L,12,0.482478,0.783602,0.378071
2,142,2,9,2,8,1,C,7,L,6,S,9,0.309019,0.792579,0.244922
2,143,8,2,2,9,1,I,6,S,7,L,13,0.752284,0.541104,0.407064
2,144,9,1,9,8,1,C,8,L,1,S,11,0.811118,0.371996,0.301733
3,1,8,9,2,1,1,I,1,S,1,S,15,0.459381,0.754462,0.346586
3,2,9,1,1,2,1,I,8,L,1,S,13,0.779557,0.511889,0.399047
3,3,8,2,8,9,1,I,6,S,1,S,12,0.752448,0.497444,0.374301
3,4,2,9,2,9,1,C,7,L,7,L,9,0.28233,0.822721,0.232279
3,5,2,9,8,2,1,I,7,L,6,S,12,0.475149,0.755964,0.359196
3,6,9,2,8,2,1,C,7,L,6,S,9,0.7651,0.331505,0.253634
3,7,2,1,9,2,1,C,1,S,7,L,12,0.796695,0.396565,0.315941
3,8,2,8,2,1,1,I,6,S,1,S,11,0.364142,0.807165,0.293923
3,9,8,9,2,9,1,C,1,S,7,L,10,0.365794,0.771031,0.282039
3,10,9,1,8,2,1,C,8,L,6,S,10,0.837276,0.312135,0.261343
3,11,1,2,1,8,1,C,1,S,7,L,10,0.35747,0.785063,0.280636
3,12,8,9,9,1,0,I,1,S,8,L,12,0.754411,0.45115,0.340353
3,13,9,2,1,8,1,I,7,L,7,L,14,0.757933,0.590409,0.447491
3,14,1,9,2,9,1,C,8,L,7,L,8,0.290621,0.755936,0.219691
3,15,9,1,2,8,1,I,8,L,6,S,15,0.776138,0.588721,0.456929
3,16,2,1,9,1,1,C,1,S,8,L,11,0.780524,0.387823,0.302705
3,17,1,9,8,9,1,C,8,L,1,S,9,0.305566,0.794302,0.242711
3,18,1,2,9,2,0,I,1,S,7,L,13,0.751096,0.476069,0.357574
3,19,1,2,8,1,0,I,1,S,7,L,14,0.768943,0.480796,0.369704
3,20,9,2,1,9,1,I,7,L,8,L,14,0.757616,0.590702,0.447525
3,21,2,8,8,2,1,I,6,S,6,S,12,0.475908,0.758361,0.36091
3,22,8,9,8,2,1,I,1,S,6,S,23,0.643408,0.755888,0.486345
3,23,2,9,1,2,1,C,7,L,1,S,9,0.331341,0.755953,0.250478
3,24,1,2,2,9,1,C,1,S,7,L,10,0.370396,0.767234,0.284181
3,25,1,9,9,8,1,I,8,L,1,S,9,0.341157,0.75105,0.256226
3,26,1,9,1,2,1,C,8,L,1,S,9,0.30202,0.799839,0.241567
3,27,2,8,1,2,1,C,6,S,1,S,9,0.332921,0.757458,0.252174
3,28,8,9,8,1,0,I,1,S,7,L,14,0.757372,0.493711,0.373923
3,29,2,1,2,1,1,C,1,S,1,S,20,0.784105,0.462729,0.362828
3,30,8,9,2,8,1,C,1,S,6,S,10,0.366239,0.770559,0.282209
3,31,9,1,9,2,1,C,8,L,7,L,9,0.785669,0.31661,0.24875
3,32,8,9,9,2,0,I,1,S,7,L,14,0.759426,0.494722,0.375705
3,33,1,9,2,1,1,I,8,L,1,S,10,0.352597,0.788243,0.277932
3,34,2,9,9,2,1,I,7,L,7,L,14,0.545003,0.772868,0.421215
3,35,1,2,9,1,0,I,1,S,8,L,12,0.762097,0.443597,0.338064
3,36,2,1,1,2,0,I,1,S,1,S,13,0.438672,0.775676,0.340267
3,37,8,1,8,1,1,C,7,L,7,L,9,0.76479,0.32927,0.251822
3,38,8,2,1,9,1,I,6,S,8,L,15,0.764488,0.602562,0.460652
3,39,9,2,8,9,1,I,7,L,1,S,12,0.774589,0.480933,0.372525
3,40,1,9,9,1,1,I,8,L,8,L,13,0.541804,0.767368,0.415763
3,41,1,2,1,2,1,C,1,S,1,S,11,0.4053,0.752267,0.304894
3,42,1,2,2,8,1,C,1,S,6,S,10,0.370841,0.766763,0.284347
3,43,8,2,1,2,1,I,6,S,1,S,13,0.781298,0.509435,0.39802
3,44,2,8,1,8,1,C,6,S,7,L,9,0.271818,0.841109,0.228629
3,45,9,1,8,9,1,I,8,L,1,S,12,0.750568,0.500013,0.375294
3,46,8,1,1,8,1,I,7,L,7,L,16,0.765414,0.616565,0.471927
3,47,1,9,1,9,1,C,8,L,8,L,8,0.279476,0.771352,0.215574
3,48,9,8,1,9,0,I,1,S,8,L,11,0.383936,0.800007,0.307151
3,49,8,1,8,2,1,C,7,L,6,S,10,0.813895,0.329369,0.268072
3,50,8,9,8,9,1,C,1,S,1,S,12,0.374334,0.814505,0.304897
3,51,8,2,1,8,1,I,6,S,7,L,15,0.764783,0.6023,0.460629
3,52,9,1,2,9,1,I,8,L,7,L,15,0.775761,0.58908,0.456985
3,53,2,1,1,8,0,I,1,S,7,L,11,0.385954,0.794656,0.306701
3,54,2,9,2,8,1,C,7,L,6,S,9,0.282756,0.822274,0.232503
3,55,1,8,9,2,1,I,7,L,7,L,12,0.500029,0.767678,0.383861
3,56,2,8,2,8,1,C,6,S,6,S,9,0.284336,0.823779,0.23423
3,57,1,9,2,8,1,C,8,L,6,S,8,0.291013,0.75554,0.219872
3,58,9,8,2,8,0,I,1,S,6,S,11,0.398096,0.781109,0.310956
3,59,8,2,9,8,1,C,6,S,1,S,11,0.766526,0.422846,0.324123
3,60,1,2,2,1,1,I,1,S,1,S,16,0.444946,0.782968,0.348379
3,61,8,1,9,1,1,C,7,L,8,L,9,0.796692,0.306649,0.244305
3,62,8,1,8,9,1,I,7,L,1,S,13,0.758824,0.523419,0.397183
3,63,9,1,1,9,1,I,8,L,8,L,15,0.763179,0.604668,0.46147
3,64,1,2,8,2,1,I,1,S,6,S,24,0.642275,0.763072,0.490102
3,65,2,8,9,2,1,I,6,S,7,L,14,0.545137,0.775801,0.422918
3,66,8,2,8,2,1,C,6,S,6,S,10,0.839125,0.309544,0.259746
3,67,9,2,9,1,1,C,7,L,8,L,9,0.836406,0.275979,0.23083
3,68,8,9,9,8,1,I,1,S,1,S,13,0.403019,0.794391,0.320155
3,69,2,1,8,2,1,C,1,S,6,S,13,0.784056,0.419267,0.328729
3,70,2,8,8,9,1,C,6,S,1,S,9,0.336466,0.751922,0.252996
3,71,2,8,9,1,1,I,6,S,8,L,15,0.579042,0.773236,0.447736
3,72,2,1,1,9,0,I,1,S,8,L,11,0.38559,0.795021,0.306552
3,73,8,1,2,1,1,C,7,L,1,S,11,0.797823,0.375273,0.299402
3,74,2,9,9,8,1,I,7,L,1,S,10,0.34271,0.788802,0.27033
3,75,8,1,9,2,1,C,7,L,7,L,9,0.765604,0.33161,0.253882
3,76,1,8,2,1,1,I,7,L,1,S,10,0.353434,0.790481,0.279383
3,77,9,1,2,1,1,C,8,L,1,S,10,0.755332,0.380405,0.287332
3,78,1,8,1,8,1,C,7,L,7,L,8,0.281134,0.772663,0.217222
3,79,8,2,2,1,1,C,6,S,1,S,10,0.757181,0.377814,0.286074
3,80,9,8,2,9,0,I,1,S,7,L,11,0.397648,0.781582,0.310794
3,81,8,1,9,8,1,C,7,L,1,S,12,0.784993,0.43944,0.344958
3,82,2,8,1,9,1,C,6,S,8,L,9,0.27146,0.841471,0.228426
3,83,8,1,2,9,1,I,7,L,7,L,15,0.751052,0.608642,0.457122
3,84,2,1,2,8,0,I,1,S,6,S,11,0.39975,0.776123,0.310256
3,85,9,2,2,9,1,I,7,L,7,L,14,0.770756,0.57413,0.442515
3,86,8,1,1,2,1,I,7,L,1,S,13,0.752973,0.532074,0.400637
3,87,8,2,8,1,1,C,6,S,7,L,9,0.786486,0.311805,0.24523
3,88,1,8,8,9,1,C,7,L,1,S,9,0.306672,0.79624,0.244185
3,89,1,8,9,8,1,I,7,L,1,S,9,0.342263,0.752988,0.25772
3,90,1,9,1,8,1,C,8,L,7,L,8,0.279812,0.77102,0.215741
3,91,2,9,2,1,1,I,7,L,1,S,11,0.36307,0.805073,0.292297
3,92,9,2,2,8,1,I,7,L,6,S,14,0.771159,0.573735,0.442441
3,93,8,2,2,8,1,I,6,S,6,S,14,0.750061,0.590136,0.442638
3,94,9,8,1,8,0,I,1,S,7,L,11,0.3843,0.799642,0.307302
3,95,1,8,2,9,1,C,7,L,7,L,8,0.291943,0.757579,0.22117
3,96,1,8,1,2,1,C,7,L,1,S,9,0.303127,0.801776,0.24304
3,97,1,8,8,2,1,I,7,L,6,S,11,0.436324,0.771397,0.336579
3,98,1,9,9,2,1,I,8,L,7,L,12,0.499779,0.764907,0.382284
3,99,9,8,9,2,1,C,1,S,7,L,12,0.793822,0.402749,0.319711
3,100,8,2,2,9,1,I,6,S,7,L,15,0.77707,0.586974,0.45612
3,101,9,8,8,2,1,C,1,S,6,S,13,0.77956,0.426971,0.33285
3,102,8,9,1,2,1,C,1,S,1,S,11,0.399293,0.757717,0.302551
3,103,2,9,1,9,1,C,7,L,8,L,9,0.26988,0.839966,0.22669
3,104,1,8,2,8,1,C,7,L,6,S,8,0.292335,0.757183,0.221351
3,105,2,8,2,9,1,C,6,S,7,L,9,0.28391,0.824226,0.234006
3,106,2,8,9,8,1,I,6,S,1,S,10,0.344067,0.790587,0.272015
3,107,2,8,8,1,1,I,6,S,7,L,14,0.543084,0.77479,0.420776
3,108,9,8,8,9,0,I,1,S,1,S,13,0.440027,0.774724,0.340899
3,109,1,9,8,2,1,I,8,L,6,S,11,0.43578,0.768877,0.335062
3,110,9,8,9,8,0,C,1,S,1,S,16,0.478951,0.772243,0.369866
3,111,1,2,8,9,1,C,1,S,1,S,12,0.38202,0.806952,0.308272
3,112,1,2,1,9,1,C,1,S,8,L,10,0.357104,0.785434,0.280481
3,113,9,1,1,8,1,I,8,L,7,L,15,0.763474,0.604406,0.461448
3,114,8,1,1,9,1,I,7,L,8,L,16,0.765142,0.616797,0.471937
3,115,9,1,9,8,1,C,8,L,1,S,11,0.7646,0.425467,0.325312
3,116,2,9,8,1,1,I,7,L,7,L,14,0.54295,0.771857,0.41908
3,117,9,2,1,2,1,I,7,L,1,S,12,0.769059,0.489289,0.376292
3,118,9,2,2,1,1,C,7,L,1,S,10,0.777546,0.362976,0.282231
3,119,2,1,9,8,0,C,1,S,1,S,16,0.491821,0.757482,0.372546
3,120,9,8,2,1,1,C,1,S,1,S,20,0.753068,0.490118,0.369092
3,121,1,8,1,9,1,C,7,L,8,L,8,0.280797,0.772995,0.217055
3,122,9,2,9,2,1,C,7,L,7,L,9,0.805318,0.30094,0.242353
3,123,9,1,8,1,1,C,8,L,7,L,9,0.784854,0.314269,0.246655
3,124,2,9,1,8,1,C,7,L,7,L,9,0.270238,0.839604,0.226893
3,125,8,1,2,8,1,I,7,L,6,S,15,0.751429,0.608284,0.457082
3,126,1,9,8,1,1,I,8,L,7,L,12,0.498311,0.763238,0.38033
3,127,2,9,8,9,1,C,7,L,1,S,9,0.334886,0.750417,0.251304
3,128,9,2,9,8,1,C,7,L,1,S,11,0.788234,0.406912,0.320742
3,129,9,8,9,1,1,C,1,S,8,L,11,0.77887,0.392809,0.305947
3,130,2,9,9,1,1,I,7,L,8,L,15,0.579193,0.77008,0.446024
3,131,9,2,8,1,1,C,7,L,7,L,9,0.804504,0.2986,0.240225
3,132,2,1,8,1,1,C,1,S,7,L,12,0.795227,0.394896,0.314032
3,133,1,2,9,8,1,I,1,S,1,S,13,0.412603,0.784302,0.323605
3,134,8,9,1,9,1,C,1,S,8,L,10,0.352502,0.789231,0.278205
3,135,1,8,9,1,1,I,7,L,8,L,13,0.541777,0.770355,0.41736
3,136,8,2,9,2,1,C,6,S,7,L,9,0.7873,0.314145,0.247327
3,137,9,8,1,2,0,I,1,S,1,S,13,0.434176,0.783379,0.340125
3,138,9,1,9,1,1,C,8,L,8,L,9,0.816756,0.291648,0.238206
3,139,2,1,8,9,0,I,1,S,1,S,13,0.444523,0.76702,0.340958
3,140,8,9,1,8,1,C,1,S,7,L,10,0.352868,0.788859,0.278363
3,141,1,8,8,1,1,I,7,L,7,L,12,0.498561,0.766009,0.381902
3,142,9,8,8,1,1,C,1,S,7,L,12,0.792355,0.40108,0.317797
3,143,8,2,9,1,1,C,6,S,8,L,9,0.818388,0.289184,0.236665
3,144,2,1,2,9,0,I,1,S,7,L,11,0.399302,0.776596,0.310096
4,1,2,9,1,8,1,C,7,L,7,L,9,0.316889,0.783772,0.248369
4,2,2,1,9,1,1,C,1,S,8,L,10,0.837688,0.30898,0.258829
4,3,8,1,1,8,1,I,7,L,7,L,11,0.790802,0.450685,0.356402
4,4,2,8,9,8,1,I,6,S,1,S,12,0.41377,0.79894,0.330577
4,5,8,2,1,9,1,I,6,S,8,L,14,0.769062,0.564582,0.434199
4,6,2,9,8,9,1,C,7,L,1,S,10,0.378556,0.755132,0.285859
4,7,1,9,8,1,1,I,8,L,7,L,13,0.532592,0.777898,0.414303
4,8,8,9,9,1,0,I,1,S,8,L,10,0.802812,0.336398,0.270064
4,9,2,1,1,9,1,I,1,S,8,L,17,0.770602,0.609241,0.469482
4,10,1,8,9,8,1,I,7,L,1,S,11,0.391253,0.796035,0.311451
4,11,8,9,8,9,0,C,1,S,1,S,13,0.799644,0.413134,0.33036
4,12,1,2,9,2,1,I,1,S,7,L,15,0.579855,0.757678,0.439343
4,13,8,2,9,1,1,C,6,S,8,L,9,0.801543,0.302408,0.242393
4,14,2,9,8,1,1,I,7,L,7,L,14,0.564523,0.766357,0.432626
4,15,9,2,8,2,1,C,7,L,6,S,9,0.783583,0.314966,0.246802
4,16,8,9,1,8,0,C,1,S,7,L,18,0.765618,0.617548,0.472806
4,17,8,1,8,9,1,I,7,L,1,S,9,0.773317,0.334417,0.258611
4,18,1,9,2,8,1,C,8,L,6,S,9,0.319058,0.782926,0.249799
4,19,9,1,9,2,1,C,8,L,7,L,8,0.763164,0.287545,0.219444
4,20,9,1,2,8,1,I,8,L,6,S,10,0.774177,0.403147,0.312107
4,21,8,9,2,1,0,I,1,S,1,S,11,0.778297,0.381152,0.296649
4,22,9,2,9,8,1,C,7,L,1,S,10,0.781783,0.354598,0.277218
4,23,2,1,8,1,1,C,1,S,7,L,10,0.842899,0.305222,0.257271
4,24,8,9,2,8,0,C,1,S,6,S,16,0.751939,0.58632,0.440877
4,25,1,2,9,1,1,I,1,S,8,L,16,0.596653,0.767909,0.458175
4,26,1,9,9,8,1,I,8,L,1,S,10,0.38944,0.758243,0.29529
4,27,1,2,1,9,1,C,1,S,8,L,9,0.331356,0.764838,0.253434
4,28,9,2,2,1,1,C,7,L,1,S,10,0.802861,0.338087,0.271437
4,29,2,1,1,8,1,I,1,S,7,L,16,0.764212,0.594298,0.45417
4,30,9,2,2,8,1,I,7,L,6,S,12,0.757032,0.487325,0.368921
4,31,2,9,2,1,1,I,7,L,1,S,11,0.433631,0.754634,0.327233
4,32,8,2,2,8,1,I,6,S,6,S,12,0.763759,0.482292,0.368355
4,33,8,2,9,8,1,C,6,S,1,S,10,0.78782,0.350154,0.275858
4,34,2,8,1,2,1,C,6,S,1,S,10,0.365568,0.766333,0.280147
4,35,9,2,8,9,1,I,7,L,1,S,11,0.808023,0.369537,0.298594
4,36,2,8,2,8,1,C,6,S,6,S,10,0.32579,0.816808,0.266108
4,37,1,8,1,9,1,C,7,L,8,L,9,0.288708,0.821588,0.237199
4,38,2,1,2,1,1,C,1,S,1,S,11,0.82046,0.348882,0.286244
4,39,8,1,2,1,1,C,7,L,1,S,9,0.815981,0.297137,0.242458
4,40,9,8,9,8,1,C,1,S,1,S,11,0.779295,0.380618,0.296614
4,41,2,8,9,1,1,I,6,S,8,L,15,0.579134,0.769449,0.445614
4,42,2,9,9,8,1,I,7,L,1,S,11,0.405435,0.776427,0.314791
4,43,8,9,1,2,0,C,1,S,1,S,14,0.763203,0.49811,0.380159
4,44,1,9,8,9,1,C,8,L,1,S,10,0.350752,0.794046,0.278514
4,45,9,1,9,8,1,C,8,L,1,S,9,0.79761,0.311318,0.248311
4,46,8,1,8,1,1,C,7,L,7,L,8,0.784115,0.272569,0.213726
4,47,9,8,1,8,1,I,1,S,7,L,17,0.774879,0.599242,0.46434
4,48,1,9,2,1,1,I,8,L,1,S,11,0.403626,0.796248,0.321387
4,49,2,8,8,2,1,I,6,S,6,S,14,0.565367,0.752922,0.425677
4,50,2,8,8,9,1,C,6,S,1,S,11,0.372252,0.797597,0.296907
4,51,8,1,8,2,1,C,7,L,6,S,8,0.770062,0.282433,0.217491
4,52,8,9,1,9,0,C,1,S,8,L,19,0.772814,0.625263,0.483212
4,53,8,2,8,9,1,I,6,S,1,S,11,0.814549,0.364717,0.29708
4,54,1,9,9,1,1,I,8,L,8,L,13,0.526978,0.782132,0.412166
4,55,1,2,8,9,1,C,1,S,1,S,11,0.392679,0.770718,0.302645
4,56,8,1,2,9,1,I,7,L,7,L,10,0.751817,0.434088,0.326355
4,57,8,2,2,1,1,C,6,S,1,S,10,0.808898,0.333643,0.269883
4,58,8,1,2,8,1,I,7,L,6,S,10,0.777422,0.400794,0.311586
4,59,9,1,2,9,1,I,8,L,7,L,11,0.794264,0.442935,0.351807
4,60,2,9,1,2,1,C,7,L,1,S,10,0.347054,0.791919,0.274838
4,61,8,2,8,1,1,C,6,S,7,L,9,0.80615,0.299068,0.241094
4,62,9,1,2,1,1,C,8,L,1,S,9,0.812867,0.29936,0.24334
4,63,8,2,2,9,1,I,6,S,7,L,13,0.767015,0.526861,0.40411
4,64,8,1,9,1,1,C,7,L,8,L,8,0.78033,0.275373,0.214882
4,65,9,1,8,1,1,C,8,L,7,L,8,0.781283,0.274581,0.214525
4,66,8,9,2,9,0,C,1,S,7,L,18,0.772162,0.608936,0.470197
4,67,2,1,1,2,1,I,1,S,1,S,13,0.779984,0.461656,0.360084
4,68,1,8,1,8,1,C,7,L,7,L,9,0.305445,0.79959,0.244231
4,69,2,9,2,9,1,C,7,L,7,L,9,0.32201,0.775878,0.24984
4,70,1,9,1,9,1,C,8,L,8,L,9,0.275567,0.840083,0.2315
4,71,9,8,2,8,1,I,1,S,6,S,15,0.761751,0.560071,0.426635
4,72,2,8,1,8,1,C,6,S,7,L,9,0.332778,0.762104,0.253612
4,73,8,1,9,2,1,C,7,L,7,L,8,0.765996,0.285534,0.218717
4,74,2,9,9,1,1,I,7,L,8,L,14,0.559099,0.770536,0.430806
4,75,2,1,8,2,1,C,1,S,6,S,10,0.823045,0.318947,0.262508
4,76,1,2,8,1,1,I,1,S,7,L,16,0.601491,0.764028,0.459556
4,77,8,9,9,2,0,I,1,S,7,L,10,0.782139,0.350758,0.274342
4,78,8,1,1,9,1,I,7,L,8,L,11,0.77073,0.477278,0.367853
4,79,9,1,1,2,1,I,8,L,1,S,10,0.813954,0.352673,0.28706
4,80,2,8,8,1,1,I,6,S,7,L,15,0.584287,0.765394,0.44721
4,81,1,9,1,8,1,C,8,L,7,L,9,0.292305,0.818085,0.23913
4,82,9,1,1,8,1,I,8,L,7,L,11,0.787544,0.453096,0.356834
4,83,9,1,9,1,1,C,8,L,8,L,8,0.777498,0.277384,0.215666
4,84,9,2,2,9,1,I,7,L,7,L,13,0.760324,0.531961,0.404463
4,85,1,8,2,8,1,C,7,L,6,S,9,0.332198,0.764432,0.253943
4,86,2,9,2,8,1,C,7,L,6,S,10,0.307276,0.842394,0.258847
4,87,8,1,9,8,1,C,7,L,1,S,9,0.800724,0.309096,0.2475
4,88,9,2,1,2,1,I,7,L,1,S,11,0.765357,0.41996,0.321419
4,89,8,2,9,2,1,C,6,S,7,L,9,0.783688,0.314863,0.246754
4,90,9,8,1,9,1,I,1,S,8,L,17,0.756995,0.620405,0.469644
4,91,2,8,9,2,1,I,6,S,7,L,14,0.558549,0.758135,0.423456
4,92,1,8,8,9,1,C,7,L,1,S,10,0.365503,0.773292,0.282641
4,93,2,8,1,9,1,C,6,S,8,L,9,0.316041,0.784102,0.247808
4,94,9,2,1,9,1,I,7,L,8,L,14,0.762575,0.569632,0.434387
4,95,2,8,2,1,1,I,6,S,1,S,12,0.450003,0.771477,0.347167
4,96,1,8,1,2,1,C,7,L,1,S,10,0.334001,0.810079,0.270568
4,97,1,8,8,2,1,I,7,L,6,S,13,0.527015,0.771862,0.406783
4,98,1,9,8,2,1,I,8,L,6,S,12,0.507142,0.760047,0.385452
4,99,8,2,1,2,1,I,6,S,1,S,11,0.771884,0.41514,0.32044
4,100,2,1,2,8,1,I,1,S,6,S,15,0.776847,0.54819,0.425859
4,101,1,2,2,8,1,C,1,S,6,S,10,0.343955,0.793241,0.272839
4,102,1,8,2,9,1,C,7,L,7,L,9,0.310566,0.791696,0.245874
4,103,9,8,2,9,1,I,1,S,7,L,16,0.756933,0.596181,0.451269
4,104,1,2,2,1,1,I,1,S,1,S,13,0.469087,0.781924,0.36679
4,105,2,8,2,9,1,C,6,S,7,L,9,0.337899,0.75421,0.254847
4,106,9,8,8,1,1,C,1,S,7,L,10,0.831954,0.31382,0.261084
4,107,9,8,1,2,1,I,1,S,1,S,13,0.76477,0.473263,0.361937
4,108,2,1,9,8,1,C,1,S,1,S,11,0.792264,0.370675,0.293673
4,109,8,1,1,2,1,I,7,L,1,S,9,0.750791,0.360657,0.270778
4,110,2,1,2,9,1,I,1,S,7,L,16,0.77139,0.584565,0.450928
4,111,1,8,8,1,1,I,7,L,7,L,13,0.54909,0.755846,0.415028
4,112,8,2,1,8,1,I,6,S,7,L,13,0.759586,0.537624,0.408372
4,113,9,8,2,1,1,C,1,S,1,S,11,0.807491,0.358825,0.289748
4,114,2,9,9,2,1,I,7,L,7,L,13,0.535098,0.756983,0.40506
4,115,8,2,8,2,1,C,6,S,6,S,9,0.78883,0.311059,0.245373
4,116,9,2,8,1,1,C,7,L,7,L,9,0.800903,0.302975,0.242654
4,117,9,2,9,1,1,C,7,L,8,L,9,0.796296,0.306315,0.243917
4,118,1,2,9,8,1,I,1,S,1,S,12,0.435743,0.770037,0.335538
4,119,9,2,9,2,1,C,7,L,7,L,9,0.778441,0.31877,0.248143
4,120,9,1,1,9,1,I,8,L,8,L,11,0.767473,0.47969,0.368149
4,121,1,8,2,1,1,I,7,L,1,S,11,0.419449,0.774242,0.324755
4,122,2,9,1,9,1,C,7,L,8,L,9,0.300152,0.80577,0.241853
4,123,8,9,9,8,0,I,1,S,1,S,11,0.750101,0.402945,0.302249
4,124,8,9,8,1,0,I,1,S,7,L,10,0.808023,0.332639,0.26878
4,125,9,1,8,9,1,I,8,L,1,S,9,0.770203,0.33664,0.259281
4,126,1,8,9,1,1,I,7,L,8,L,13,0.543475,0.76008,0.413085
4,127,2,9,8,2,1,I,7,L,6,S,13,0.542071,0.751761,0.407508
4,128,9,2,1,8,1,I,7,L,7,L,13,0.752894,0.542725,0.408615
4,129,9,8,8,2,1,C,1,S,6,S,10,0.8121,0.327545,0.266
4,130,1,9,9,2,1,I,8,L,7,L,12,0.500209,0.76515,0.382735
4,131,9,8,8,9,1,I,1,S,1,S,12,0.781213,0.409906,0.320224
4,132,8,9,8,2,0,I,1,S,6,S,10,0.788169,0.346365,0.272994
4,133,1,2,1,2,1,C,1,S,1,S,11,0.350014,0.821141,0.287411
4,134,1,8,9,2,1,I,7,L,7,L,13,0.520042,0.777085,0.404116
4,135,9,8,9,1,1,C,1,S,8,L,10,0.826743,0.317578,0.262556
4,136,9,1,8,2,1,C,8,L,6,S,8,0.76723,0.284444,0.218234
4,137,9,8,9,2,1,C,1,S,7,L,10,0.80607,0.331939,0.267566
4,138,1,2,8,2,1,I,1,S,6,S,15,0.586382,0.752579,0.441299
4,139,1,2,2,9,1,C,1,S,7,L,10,0.318351,0.826534,0.263128
4,140,2,1,9,2,1,C,1,S,7,L,10,0.817015,0.323341,0.264174
4,141,2,1,8,9,1,I,1,S,1,S,12,0.795636,0.398947,0.317416
4,142,1,9,1,2,1,C,8,L,1,S,10,0.31925,0.830833,0.265244
4,143,1,2,1,8,1,C,1,S,7,L,10,0.312326,0.835769,0.261032
4,144,1,9,2,9,1,C,8,L,7,L,9,0.297425,0.810191,0.240971
5,1,2,8,1,2,1,C,6,S,1,S,10,0.347984,0.79366,0.276181
5,2,9,2,1,2,1,I,7,L,1,S,10,0.79861,0.357543,0.285537
5,3,8,1,9,8,1,C,7,L,1,S,11,0.790547,0.379392,0.299927
5,4,8,9,2,9,1,C,1,S,7,L,11,0.366432,0.79931,0.292893
5,5,2,1,1,8,1,I,1,S,7,L,18,0.756996,0.629718,0.476694
5,6,2,9,9,8,1,I,7,L,1,S,12,0.393178,0.798241,0.313851
5,7,1,2,2,9,1,C,1,S,7,L,11,0.392095,0.770308,0.302033
5,8,9,1,1,8,1,I,8,L,7,L,12,0.778074,0.503465,0.391733
5,9,2,1,8,2,1,C,1,S,6,S,10,0.78524,0.349502,0.274443
5,10,8,2,9,1,1,C,6,S,8,L,9,0.765351,0.325836,0.249378
5,11,8,2,9,8,1,C,6,S,1,S,11,0.800041,0.370914,0.296746
5,12,8,2,2,8,1,I,6,S,6,S,14,0.774742,0.542337,0.420172
5,13,8,1,2,9,1,I,7,L,7,L,14,0.765862,0.550211,0.421386
5,14,2,1,8,9,1,I,1,S,1,S,13,0.781446,0.439416,0.34338
5,15,8,9,8,9,1,C,1,S,1,S,13,0.417026,0.780112,0.325327
5,16,9,1,2,1,1,C,8,L,1,S,9,0.758311,0.341771,0.259168
5,17,1,9,9,2,1,I,8,L,7,L,12,0.507596,0.759766,0.385654
5,18,1,2,9,1,0,I,1,S,8,L,14,0.754126,0.501109,0.377899
5,19,2,1,9,1,1,C,1,S,8,L,10,0.788774,0.344257,0.271541
5,20,1,8,1,9,1,C,7,L,8,L,8,0.285703,0.771022,0.220283
5,21,2,8,8,9,1,C,6,S,1,S,10,0.357787,0.783856,0.280454
5,22,2,9,8,2,1,I,7,L,6,S,16,0.593372,0.760843,0.451462
5,23,8,9,9,2,1,I,1,S,7,L,22,0.637524,0.76924,0.49041
5,24,2,8,2,1,1,I,6,S,1,S,11,0.375614,0.809298,0.303984
5,25,9,8,8,2,1,C,1,S,6,S,12,0.79814,0.39554,0.315696
5,26,8,2,9,2,1,C,6,S,7,L,9,0.769969,0.322768,0.248521
5,27,2,9,9,2,1,I,7,L,7,L,16,0.601145,0.752672,0.452465
5,28,1,2,2,1,1,I,1,S,1,S,18,0.532431,0.767018,0.408384
5,29,8,9,1,2,1,C,1,S,1,S,13,0.395577,0.804864,0.318386
5,30,9,8,8,9,1,I,1,S,1,S,25,0.755357,0.628031,0.474388
5,31,8,9,8,1,1,I,1,S,7,L,21,0.644308,0.754644,0.486223
5,32,9,1,8,1,1,C,8,L,7,L,9,0.835721,0.278102,0.232416
5,33,2,1,8,1,1,C,1,S,7,L,10,0.779385,0.353482,0.275498
5,34,9,8,2,9,0,I,1,S,7,L,13,0.439112,0.779847,0.34244
5,35,8,2,1,9,1,I,6,S,8,L,15,0.774876,0.576086,0.446395
5,36,1,2,9,8,1,I,1,S,1,S,15,0.462653,0.756592,0.350039
5,37,2,9,2,1,1,I,7,L,1,S,12,0.427361,0.767908,0.328174
5,38,9,1,8,9,1,I,8,L,1,S,10,0.804285,0.351997,0.283106
5,39,8,1,9,1,1,C,7,L,8,L,9,0.758138,0.332819,0.252323
5,40,2,8,9,8,1,I,6,S,1,S,10,0.374929,0.762866,0.286021
5,41,8,9,2,8,1,C,1,S,6,S,11,0.365834,0.800083,0.292697
5,42,8,1,9,2,1,C,7,L,7,L,9,0.762756,0.329751,0.25152
5,43,8,1,8,1,1,C,7,L,7,L,9,0.750212,0.341104,0.255901
5,44,2,8,8,2,1,I,6,S,6,S,13,0.521468,0.775778,0.404543
5,45,1,9,8,9,1,C,8,L,1,S,10,0.339925,0.809245,0.275082
5,46,9,8,2,1,1,C,1,S,1,S,16,0.795872,0.431612,0.343508
5,47,1,8,9,1,1,I,7,L,8,L,11,0.45791,0.778431,0.356451
5,48,2,8,1,9,1,C,6,S,8,L,9,0.295399,0.812965,0.240149
5,49,1,9,9,8,1,I,8,L,1,S,10,0.357067,0.788254,0.28146
5,50,9,8,9,1,1,C,1,S,8,L,12,0.801905,0.390241,0.312936
5,51,9,1,9,1,1,C,8,L,8,L,9,0.843647,0.269817,0.22763
5,52,8,9,9,1,1,I,1,S,8,L,22,0.63382,0.772154,0.489406
5,53,1,9,8,2,1,I,8,L,6,S,12,0.497652,0.769302,0.382844
5,54,8,2,8,1,1,C,6,S,7,L,9,0.757425,0.334121,0.253071
5,55,8,2,1,8,1,I,6,S,7,L,15,0.774454,0.576588,0.446541
5,56,9,8,1,9,0,I,1,S,8,L,12,0.4211,0.780456,0.32865
5,57,9,1,1,2,1,I,8,L,1,S,10,0.794482,0.361801,0.287444
5,58,9,2,2,1,1,C,7,L,1,S,9,0.762243,0.337651,0.257372
5,59,1,8,2,8,1,C,7,L,6,S,9,0.267205,0.85543,0.228575
5,60,9,8,8,1,1,C,1,S,7,L,12,0.791227,0.400341,0.316761
5,61,1,8,8,1,1,I,7,L,7,L,11,0.447595,0.788261,0.352822
5,62,2,9,2,9,1,C,7,L,7,L,10,0.334449,0.80306,0.268583
5,63,1,9,2,8,1,C,8,L,6,S,9,0.299913,0.807623,0.242217
5,64,8,1,2,1,1,C,7,L,1,S,11,0.815477,0.35735,0.291411
5,65,9,8,9,2,1,C,1,S,7,L,11,0.752823,0.40817,0.30728
5,66,9,2,8,9,1,I,7,L,1,S,10,0.808413,0.347739,0.281117
5,67,8,9,8,2,1,I,1,S,6,S,21,0.648786,0.751061,0.487278
5,68,2,9,1,9,1,C,7,L,8,L,10,0.310478,0.836166,0.259611
5,69,9,2,1,9,1,I,7,L,8,L,12,0.782455,0.498739,0.390241
5,70,1,2,8,1,0,I,1,S,7,L,15,0.753366,0.526456,0.396614
5,71,1,2,1,9,1,C,1,S,8,L,11,0.365901,0.806359,0.295048
5,72,8,1,1,9,1,I,7,L,8,L,15,0.765921,0.584439,0.447634
5,73,9,1,2,9,1,I,8,L,7,L,11,0.767207,0.460229,0.353091
5,74,2,8,9,1,1,I,6,S,8,L,13,0.525003,0.770683,0.404611
5,75,9,8,9,8,1,C,1,S,1,S,18,0.760269,0.472019,0.358861
5,76,2,1,2,9,1,I,1,S,7,L,17,0.757073,0.608627,0.460775
5,77,2,9,9,1,1,I,7,L,8,L,16,0.595549,0.756859,0.450746
5,78,8,2,2,9,1,I,6,S,7,L,14,0.77539,0.541528,0.419896
5,79,1,8,1,2,1,C,7,L,1,S,9,0.324739,0.785032,0.254931
5,80,9,2,9,1,1,C,7,L,8,L,9,0.847579,0.265697,0.225199
5,81,2,9,1,2,1,C,7,L,1,S,11,0.379604,0.781573,0.296688
5,82,1,9,1,8,1,C,8,L,7,L,9,0.279122,0.836077,0.233367
5,83,1,9,2,1,1,I,8,L,1,S,10,0.375052,0.772578,0.289757
5,84,8,1,1,8,1,I,7,L,7,L,15,0.765499,0.584941,0.447772
5,85,9,8,1,2,1,I,1,S,1,S,26,0.751521,0.644541,0.484387
5,86,2,8,2,8,1,C,6,S,6,S,9,0.315819,0.784984,0.247913
5,87,1,8,9,8,1,I,7,L,1,S,9,0.343589,0.763138,0.262206
5,88,9,2,9,2,1,C,7,L,7,L,9,0.852197,0.262629,0.223812
5,89,9,1,9,8,1,C,8,L,1,S,10,0.821427,0.331006,0.271898
5,90,9,8,1,8,0,I,1,S,7,L,12,0.420651,0.781025,0.328538
5,91,8,9,9,8,1,I,1,S,1,S,14,0.43904,0.77402,0.339826
5,92,1,9,8,1,1,I,8,L,7,L,12,0.490739,0.774103,0.379882
5,93,2,8,1,8,1,C,6,S,7,L,9,0.295028,0.813437,0.239986
5,94,9,2,2,9,1,I,7,L,7,L,11,0.771315,0.455968,0.351695
5,95,1,8,2,1,1,I,7,L,1,S,9,0.356409,0.752267,0.268115
5,96,2,1,1,2,1,I,1,S,1,S,13,0.759997,0.464169,0.352767
5,97,1,2,1,8,1,C,1,S,7,L,11,0.365463,0.806921,0.2949
5,98,2,8,9,2,1,I,6,S,7,L,13,0.531232,0.766317,0.407092
5,99,8,9,1,8,1,C,1,S,7,L,10,0.37132,0.760875,0.282528
5,100,8,9,1,9,1,C,1,S,8,L,10,0.371732,0.760345,0.282645
5,101,9,8,2,8,0,I,1,S,6,S,13,0.438463,0.780672,0.342296
5,102,1,8,9,2,1,I,7,L,7,L,11,0.463821,0.774452,0.359207
5,103,8,1,2,8,1,I,7,L,6,S,14,0.765215,0.55102,0.421649
5,104,1,9,2,9,1,C,8,L,7,L,9,0.30038,0.807045,0.24242
5,105,2,9,1,8,1,C,7,L,7,L,10,0.310066,0.836696,0.259431
5,106,2,1,9,2,1,C,1,S,7,L,10,0.794161,0.340671,0.270547
5,107,1,2,8,2,0,I,1,S,6,S,14,0.750969,0.505895,0.379911
5,108,8,1,8,9,1,I,7,L,1,S,11,0.766139,0.40829,0.312807
5,109,9,2,8,2,1,C,7,L,6,S,9,0.844575,0.270627,0.228565
5,110,8,2,8,9,1,I,6,S,1,S,11,0.775632,0.399812,0.310107
5,111,2,8,8,1,1,I,6,S,7,L,13,0.514439,0.780758,0.401652
5,112,2,8,2,9,1,C,6,S,7,L,9,0.316286,0.784405,0.248096
5,113,2,9,8,1,1,I,7,L,7,L,16,0.586996,0.765663,0.449441
5,114,1,2,1,2,1,C,1,S,1,S,13,0.435413,0.756073,0.329204
5,115,2,9,2,8,1,C,7,L,6,S,10,0.333907,0.803752,0.268379
5,116,8,2,2,1,1,C,6,S,1,S,10,0.751639,0.378061,0.284165
5,117,1,9,1,2,1,C,8,L,1,S,10,0.330122,0.819049,0.270386
5,118,9,1,8,2,1,C,8,L,6,S,9,0.840643,0.274747,0.230964
5,119,8,9,2,1,1,I,1,S,1,S,15,0.491977,0.753891,0.370897
5,120,9,2,9,8,1,C,7,L,1,S,10,0.825555,0.326749,0.269749
5,121,1,9,1,9,1,C,8,L,8,L,9,0.279494,0.835604,0.233546
5,122,8,1,8,2,1,C,7,L,6,S,9,0.755133,0.33775,0.255046
5,123,9,1,9,2,1,C,8,L,7,L,9,0.848265,0.266749,0.226274
5,124,1,8,1,8,1,C,7,L,7,L,8,0.285385,0.771412,0.220149
5,125,8,2,1,2,1,I,6,S,1,S,11,0.762536,0.413579,0.315369
5,126,8,1,1,2,1,I,7,L,1,S,11,0.753043,0.422057,0.317827
5,127,1,8,2,9,1,C,7,L,7,L,9,0.267672,0.854852,0.22882
5,128,2,1,9,8,1,C,1,S,1,S,12,0.76953,0.41441,0.318901
5,129,2,1,2,1,1,C,1,S,1,S,12,0.803713,0.384076,0.308687
5,130,2,9,8,9,1,C,7,L,1,S,11,0.3927,0.767805,0.301517
5,131,9,1,2,8,1,I,8,L,6,S,11,0.766609,0.461002,0.353408
5,132,1,8,8,9,1,C,7,L,1,S,9,0.331905,0.778247,0.258304
5,133,1,2,2,8,1,C,1,S,6,S,11,0.391496,0.771081,0.301875
5,134,1,2,9,2,0,I,1,S,7,L,14,0.760241,0.496723,0.377629
5,135,9,2,8,1,1,C,7,L,7,L,9,0.839653,0.273982,0.23005
5,136,8,2,8,2,1,C,6,S,6,S,9,0.762346,0.330766,0.252158
5,137,9,2,1,8,1,I,7,L,7,L,12,0.782006,0.499308,0.390462
5,138,2,1,2,8,1,I,1,S,6,S,17,0.756497,0.609303,0.460936
5,139,9,1,1,9,1,I,8,L,8,L,12,0.778523,0.502896,0.391517
5,140,9,2,2,8,1,I,7,L,6,S,11,0.770717,0.456741,0.352018
5,141,1,2,8,9,1,C,1,S,1,S,14,0.424155,0.786454,0.333578
5,142,1,8,8,2,1,I,7,L,6,S,11,0.454127,0.783792,0.355941
5,143,2,1,1,9,1,I,1,S,8,L,18,0.757347,0.629323,0.476616
5,144,1,9,9,1,1,I,8,L,8,L,12,0.501417,0.764002,0.383084
6,1,8,2,2,9,1,I,6,S,7,L,14,0.76788,0.549339,0.421827
6,2,1,9,1,8,1,C,8,L,7,L,9,0.301585,0.802538,0.242033
6,3,9,2,1,8,1,I,7,L,7,L,14,0.77046,0.55785,0.429802
6,4,1,8,2,8,1,C,7,L,6,S,9,0.305843,0.797554,0.243926
6,5,8,1,1,2,1,I,7,L,1,S,10,0.782336,0.368568,0.288344
6,6,2,1,1,9,1,I,1,S,8,L,17,0.757742,0.614266,0.465455
6,7,1,9,9,2,1,I,8,L,7,L,14,0.579033,0.760037,0.440087
6,8,9,2,8,9,1,I,7,L,1,S,11,0.816084,0.363186,0.29639
6,9,8,2,8,2,1,C,6,S,6,S,9,0.758036,0.333922,0.253125
6,10,9,8,9,1,1,C,1,S,8,L,12,0.760457,0.450203,0.34236
6,11,9,8,8,1,1,C,1,S,7,L,15,0.758264,0.519991,0.394291
6,12,8,1,2,1,1,C,7,L,1,S,9,0.752225,0.345414,0.259829
6,13,9,2,9,8,1,C,7,L,1,S,10,0.832149,0.31507,0.262185
6,14,9,2,1,2,1,I,7,L,1,S,11,0.776938,0.403188,0.313252
6,15,8,9,1,8,1,C,1,S,7,L,11,0.385412,0.782235,0.301483
6,16,1,8,1,2,1,C,7,L,1,S,10,0.330678,0.811949,0.268494
6,17,1,9,1,2,1,C,8,L,1,S,10,0.349719,0.788181,0.275642
6,18,1,8,8,9,1,C,7,L,1,S,10,0.359545,0.783497,0.281702
6,19,8,2,1,2,1,I,6,S,1,S,12,0.801008,0.410149,0.328532
6,20,1,8,2,1,1,I,7,L,1,S,10,0.382348,0.761654,0.291217
6,21,2,8,2,8,1,C,6,S,6,S,9,0.30643,0.793848,0.243259
6,22,1,8,9,2,1,I,7,L,7,L,13,0.558824,0.754547,0.421659
6,23,1,9,1,9,1,C,8,L,8,L,9,0.300695,0.804864,0.242018
6,24,9,1,8,1,1,C,8,L,7,L,9,0.847487,0.267533,0.226731
6,25,8,9,9,1,0,I,1,S,8,L,12,0.782864,0.427107,0.334367
6,26,2,8,9,8,1,I,6,S,1,S,11,0.446602,0.755461,0.337391
6,27,9,8,8,2,1,C,1,S,6,S,14,0.752531,0.502194,0.377917
6,28,8,2,9,1,1,C,6,S,8,L,9,0.79729,0.306434,0.244317
6,29,9,8,2,8,0,I,1,S,6,S,11,0.394616,0.765535,0.302092
6,30,2,9,1,9,1,C,7,L,8,L,9,0.301254,0.801143,0.241347
6,31,2,8,8,1,1,I,6,S,7,L,12,0.504417,0.753475,0.380065
6,32,8,2,9,8,1,C,6,S,1,S,10,0.807644,0.332725,0.268724
6,33,1,2,8,1,0,I,1,S,7,L,14,0.763125,0.490354,0.374201
6,34,1,2,9,1,0,I,1,S,8,L,12,0.769846,0.442414,0.340591
6,35,9,8,8,9,0,I,1,S,1,S,15,0.455415,0.764235,0.348044
6,36,9,1,2,8,1,I,8,L,6,S,11,0.777131,0.451512,0.350884
6,37,2,8,1,2,1,C,6,S,1,S,10,0.33166,0.807747,0.267897
6,38,8,9,8,2,0,I,1,S,6,S,13,0.764606,0.46049,0.352093
6,39,2,9,1,2,1,C,7,L,1,S,10,0.350714,0.783879,0.274917
6,40,1,9,9,1,1,I,8,L,8,L,14,0.57702,0.761078,0.439157
6,41,9,1,1,9,1,I,8,L,8,L,12,0.7872,0.493995,0.388873
6,42,2,8,2,1,1,I,6,S,1,S,10,0.383329,0.757452,0.290354
6,43,9,2,2,1,1,C,7,L,1,S,10,0.771292,0.364987,0.281512
6,44,8,1,8,1,1,C,7,L,7,L,9,0.833081,0.277431,0.231123
6,45,2,9,2,9,1,C,7,L,7,L,9,0.322585,0.775219,0.250074
6,46,1,9,9,8,1,I,8,L,1,S,12,0.46749,0.776523,0.363017
6,47,2,1,1,8,1,I,1,S,7,L,17,0.759425,0.6114,0.464312
6,48,1,8,8,2,1,I,7,L,6,S,12,0.505427,0.756966,0.382592
6,49,9,8,2,1,0,C,1,S,1,S,18,0.553368,0.750395,0.415245
6,50,2,1,8,2,1,C,1,S,6,S,10,0.805382,0.329192,0.265126
6,51,8,2,1,9,1,I,6,S,8,L,15,0.768927,0.579896,0.445897
6,52,1,2,2,9,1,C,1,S,7,L,11,0.400512,0.763436,0.305765
6,53,9,2,1,9,1,I,7,L,8,L,14,0.768792,0.560925,0.431234
6,54,1,2,2,1,1,I,1,S,1,S,19,0.567954,0.755227,0.428934
6,55,8,2,2,8,1,I,6,S,6,S,14,0.770084,0.545481,0.420066
6,56,2,8,1,8,1,C,6,S,7,L,9,0.284951,0.819948,0.233645
6,57,9,2,2,8,1,I,7,L,6,S,13,0.767903,0.522586,0.401295
6,58,2,1,2,9,1,I,1,S,7,L,16,0.757169,0.592559,0.448667
6,59,2,8,9,1,1,I,6,S,8,L,13,0.558679,0.750591,0.41934
6,60,1,2,1,2,1,C,1,S,1,S,14,0.406846,0.805137,0.327567
6,61,9,1,2,9,1,I,8,L,7,L,11,0.775453,0.454914,0.352764
6,62,2,8,2,9,1,C,6,S,7,L,9,0.305392,0.796349,0.243199
6,63,8,1,2,8,1,I,7,L,6,S,11,0.761228,0.462801,0.352297
6,64,9,8,2,9,0,I,1,S,7,L,11,0.392938,0.768937,0.302145
6,65,9,8,1,2,0,I,1,S,1,S,13,0.43087,0.756592,0.325993
6,66,8,9,9,2,0,I,1,S,7,L,12,0.784877,0.426164,0.334486
6,67,2,9,8,9,1,C,7,L,1,S,10,0.37958,0.755427,0.286745
6,68,2,9,2,1,1,I,7,L,1,S,11,0.387379,0.793501,0.307386
6,69,1,9,2,9,1,C,8,L,7,L,9,0.322026,0.778939,0.250839
6,70,8,9,9,8,0,I,1,S,1,S,16,0.752842,0.528663,0.398
6,71,1,8,1,8,1,C,7,L,7,L,9,0.284364,0.823654,0.234217
6,72,1,2,8,2,0,I,1,S,6,S,14,0.765876,0.48884,0.374391
6,73,9,2,8,1,1,C,7,L,7,L,9,0.776924,0.319494,0.248223
6,74,9,1,1,2,1,I,8,L,1,S,10,0.79782,0.357792,0.285453
6,75,9,2,8,2,1,C,7,L,6,S,9,0.778822,0.318757,0.248255
6,76,9,1,9,2,1,C,8,L,7,L,8,0.776288,0.278611,0.216282
6,77,8,2,8,1,1,C,6,S,7,L,9,0.756139,0.334659,0.253049
6,78,8,1,9,2,1,C,7,L,7,L,8,0.763695,0.287256,0.219376
6,79,2,9,9,8,1,I,7,L,1,S,12,0.469234,0.771454,0.361992
6,80,8,1,2,9,1,I,7,L,7,L,11,0.75955,0.466203,0.354105
6,81,2,1,9,1,1,C,1,S,8,L,9,0.757466,0.333606,0.252695
6,82,8,1,1,9,1,I,7,L,8,L,12,0.771389,0.505477,0.389919
6,83,9,1,1,8,1,I,8,L,7,L,11,0.750656,0.484933,0.364018
6,84,2,1,8,1,1,C,1,S,7,L,10,0.803152,0.330159,0.265168
6,85,2,9,8,2,1,I,7,L,6,S,13,0.531711,0.760454,0.404342
6,86,2,9,8,1,1,I,7,L,7,L,13,0.528977,0.761895,0.403025
6,87,2,8,8,2,1,I,6,S,6,S,12,0.507068,0.752149,0.381391
6,88,8,2,8,9,1,I,6,S,1,S,11,0.789012,0.382709,0.301962
6,89,9,1,9,8,1,C,8,L,1,S,9,0.81122,0.297925,0.241683
6,90,1,8,9,1,1,I,7,L,8,L,13,0.556797,0.755551,0.420688
6,91,9,2,2,9,1,I,7,L,7,L,13,0.76581,0.526406,0.403127
6,92,1,8,2,9,1,C,7,L,7,L,9,0.304805,0.800056,0.243861
6,93,9,1,8,9,1,I,8,L,1,S,9,0.750631,0.351017,0.263484
6,94,1,9,8,9,1,C,8,L,1,S,10,0.378586,0.759729,0.287623
6,95,8,1,9,8,1,C,7,L,1,S,9,0.796814,0.307823,0.245278
6,96,2,8,8,9,1,C,6,S,1,S,10,0.360527,0.779294,0.280956
6,97,8,9,2,8,1,C,1,S,6,S,12,0.385201,0.80929,0.31174
6,98,2,1,8,9,1,I,1,S,1,S,12,0.790583,0.397958,0.314618
6,99,1,9,2,8,1,C,8,L,6,S,9,0.323064,0.776438,0.250839
6,100,9,8,1,8,0,I,1,S,7,L,11,0.368141,0.798957,0.294128
6,101,1,8,8,1,1,I,7,L,7,L,12,0.502776,0.758292,0.381251
6,102,9,8,9,8,0,C,1,S,1,S,23,0.635982,0.766085,0.487216
6,103,9,1,8,2,1,C,8,L,6,S,9,0.849385,0.266796,0.226612
6,104,8,9,1,2,1,C,1,S,1,S,14,0.428132,0.778762,0.333413
6,105,1,9,8,1,1,I,8,L,7,L,13,0.526955,0.767152,0.404254
6,106,1,2,1,9,1,C,1,S,8,L,11,0.374377,0.796348,0.298134
6,107,1,9,2,1,1,I,8,L,1,S,11,0.385981,0.798258,0.308112
6,108,2,9,2,8,1,C,7,L,6,S,9,0.323623,0.772717,0.250069
6,109,8,9,8,9,1,C,1,S,1,S,16,0.471952,0.754653,0.35616
6,110,2,9,9,2,1,I,7,L,7,L,14,0.581268,0.754692,0.438678
6,111,8,1,8,2,1,C,7,L,6,S,9,0.834978,0.276694,0.231034
6,112,1,2,9,2,0,I,1,S,7,L,12,0.771859,0.44147,0.340753
6,113,1,8,9,8,1,I,7,L,1,S,11,0.445264,0.760033,0.338415
6,114,8,2,2,1,1,C,6,S,1,S,11,0.820937,0.35255,0.289422
6,115,8,1,9,1,1,C,7,L,8,L,8,0.76226,0.287682,0.219288
6,116,1,9,8,2,1,I,8,L,6,S,13,0.529689,0.765711,0.405589
6,117,2,1,2,1,1,C,1,S,1,S,11,0.763842,0.391348,0.298928
6,118,2,1,9,8,1,C,1,S,1,S,10,0.758395,0.366162,0.277696
6,119,1,2,9,8,1,I,1,S,1,S,23,0.65015,0.751653,0.488688
6,120,8,1,1,8,1,I,7,L,7,L,12,0.772882,0.502449,0.388334
6,121,1,2,2,8,1,C,1,S,6,S,11,0.402189,0.760034,0.305677
6,122,9,8,1,9,0,I,1,S,8,L,11,0.366803,0.801849,0.29412
6,123,8,9,2,9,1,C,1,S,7,L,11,0.410209,0.752216,0.308566
6,124,8,2,9,2,1,C,6,S,7,L,9,0.798962,0.305842,0.244356
6,125,2,8,9,2,1,I,6,S,7,L,14,0.560992,0.778891,0.436951
6,126,1,2,1,8,1,C,1,S,7,L,11,0.375714,0.793456,0.298113
6,127,2,8,1,9,1,C,6,S,8,L,9,0.284061,0.822274,0.233576
6,128,2,9,1,8,1,C,7,L,7,L,9,0.302144,0.798817,0.241358
6,129,1,2,8,9,1,C,1,S,1,S,16,0.442253,0.79333,0.350852
6,130,8,1,8,9,1,I,7,L,1,S,10,0.811202,0.340116,0.275903
6,131,9,1,9,1,1,C,8,L,8,L,8,0.774854,0.279037,0.216213
6,132,2,9,9,1,1,I,7,L,8,L,14,0.579255,0.755733,0.437762
6,133,9,2,9,2,1,C,7,L,7,L,9,0.819748,0.290678,0.238283
6,134,8,9,1,9,1,C,1,S,8,L,11,0.384074,0.785127,0.301547
6,135,1,8,1,9,1,C,7,L,8,L,9,0.283474,0.82598,0.234144
6,136,9,8,9,2,1,C,1,S,7,L,12,0.76247,0.44926,0.342547
6,137,9,2,9,1,1,C,7,L,8,L,9,0.818076,0.29127,0.238281
6,138,2,1,2,8,1,I,1,S,6,S,16,0.759434,0.588833,0.44718
6,139,8,9,2,1,1,I,1,S,1,S,21,0.594962,0.755622,0.449566
6,140,2,1,9,2,1,C,1,S,7,L,9,0.759138,0.333014,0.252804
6,141,9,1,2,1,1,C,8,L,1,S,9,0.766631,0.335516,0.257217
6,142,2,1,1,2,1,I,1,S,1,S,13,0.781651,0.443367,0.346558
6,143,8,9,8,1,0,I,1,S,7,L,13,0.761872,0.46193,0.351932
6,144,8,2,1,8,1,I,6,S,7,L,15,0.770626,0.576869,0.44455
7,1,8,1,8,2,1,C,7,L,6,S,9,0.820553,0.292916,0.240353
7,2,8,9,8,9,0,C,1,S,1,S,15,0.785221,0.473956,0.372161
7,3,9,2,9,8,1,C,7,L,1,S,10,0.783058,0.359047,0.281154
7,4,8,2,2,9,1,I,6,S,7,L,13,0.758071,0.535974,0.406306
7,5,9,1,2,8,1,I,8,L,6,S,12,0.774869,0.518859,0.402047
7,6,8,2,2,1,1,C,6,S,1,S,10,0.76935,0.363407,0.279587
7,7,8,1,9,2,1,C,7,L,7,L,8,0.775437,0.281308,0.218137
7,8,2,8,1,2,1,C,6,S,1,S,9,0.336391,0.760998,0.255993
7,9,8,9,8,1,0,I,1,S,7,L,11,0.825145,0.346922,0.286261
7,10,9,1,8,1,1,C,8,L,7,L,8,0.753549,0.294718,0.222085
7,11,9,1,9,1,1,C,8,L,8,L,8,0.802207,0.258995,0.207767
7,12,9,8,9,2,1,C,1,S,7,L,10,0.795101,0.345672,0.274844
7,13,8,1,2,1,1,C,7,L,1,S,9,0.760779,0.337676,0.256897
7,14,8,9,8,2,0,I,1,S,6,S,11,0.790492,0.375876,0.297127
7,15,2,1,1,8,0,I,1,S,7,L,11,0.419478,0.759614,0.318641
7,16,1,9,1,8,1,C,8,L,7,L,9,0.274349,0.842101,0.23103
7,17,8,2,1,9,1,I,6,S,8,L,14,0.779262,0.549725,0.42838
7,18,8,9,1,8,0,C,1,S,7,L,22,0.770573,0.647931,0.499278
7,19,9,2,9,1,1,C,7,L,8,L,8,0.750831,0.296009,0.222253
7,20,8,1,1,8,1,I,7,L,7,L,12,0.752677,0.539515,0.406081
7,21,2,1,8,2,1,C,1,S,6,S,12,0.78825,0.400061,0.315348
7,22,9,2,1,8,1,I,7,L,7,L,14,0.76702,0.577811,0.443193
7,23,2,1,1,2,1,I,1,S,1,S,23,0.751035,0.638543,0.479568
7,24,1,2,9,2,1,I,1,S,7,L,21,0.64347,0.770692,0.495917
7,25,8,1,2,8,1,I,7,L,6,S,12,0.757812,0.531903,0.403083
7,26,9,8,2,9,1,I,1,S,7,L,21,0.772709,0.630103,0.486886
7,27,8,2,9,2,1,C,6,S,7,L,9,0.823261,0.289256,0.238133
7,28,8,2,2,8,1,I,6,S,6,S,15,0.772873,0.588268,0.454657
7,29,9,8,1,2,1,I,1,S,1,S,17,0.764327,0.561238,0.42897
7,30,1,8,2,8,1,C,7,L,6,S,9,0.262517,0.854575,0.22434
7,31,1,2,2,1,1,I,1,S,1,S,14,0.466119,0.765708,0.356911
7,32,2,8,8,9,1,C,6,S,1,S,10,0.329432,0.821461,0.270616
7,33,8,1,8,9,1,I,7,L,1,S,10,0.807645,0.351616,0.283981
7,34,2,9,8,9,1,C,7,L,1,S,10,0.344827,0.802718,0.276799
7,35,2,8,9,2,1,I,6,S,7,L,13,0.54633,0.772747,0.422175
7,36,2,9,9,8,1,I,7,L,1,S,10,0.367694,0.776267,0.285428
7,37,2,8,2,8,1,C,6,S,6,S,8,0.286654,0.761461,0.218276
7,38,8,9,9,1,0,I,1,S,8,L,10,0.812565,0.333195,0.270742
7,39,2,1,2,1,1,C,1,S,1,S,14,0.751322,0.446646,0.335574
7,40,1,9,8,1,1,I,8,L,7,L,13,0.528652,0.766714,0.405325
7,41,2,1,9,1,1,C,1,S,8,L,10,0.767302,0.370526,0.284305
7,42,1,9,8,2,1,I,8,L,6,S,12,0.488145,0.763057,0.372483
7,43,1,2,9,1,1,I,1,S,8,L,21,0.649144,0.763702,0.495753
7,44,2,8,9,1,1,I,6,S,8,L,13,0.560333,0.759458,0.42555
7,45,1,2,1,9,1,C,1,S,8,L,10,0.363418,0.770348,0.279958
7,46,1,8,9,2,1,I,7,L,7,L,13,0.562937,0.751797,0.423214
7,47,2,8,8,2,1,I,6,S,6,S,11,0.448694,0.767521,0.344382
7,48,2,9,1,8,1,C,7,L,7,L,8,0.295428,0.753048,0.222471
7,49,9,2,8,9,1,I,7,L,1,S,10,0.760191,0.385498,0.293052
7,50,8,2,8,9,1,I,6,S,1,S,11,0.795222,0.388394,0.30886
7,51,2,8,2,9,1,C,6,S,7,L,9,0.284338,0.82516,0.234625
7,52,8,9,1,9,0,C,1,S,8,L,21,0.772667,0.635263,0.490846
7,53,2,1,9,2,1,C,1,S,7,L,10,0.752223,0.384197,0.289002
7,54,9,1,2,9,1,I,8,L,7,L,11,0.780404,0.455707,0.355636
7,55,9,8,2,8,1,I,1,S,6,S,22,0.767713,0.646231,0.49612
7,56,1,9,2,8,1,C,8,L,6,S,9,0.278651,0.835213,0.232733
7,57,1,9,1,2,1,C,8,L,1,S,10,0.337579,0.80662,0.272298
7,58,8,2,8,1,1,C,6,S,7,L,9,0.779568,0.31807,0.247957
7,59,1,9,8,9,1,C,8,L,1,S,10,0.362808,0.77908,0.282656
7,60,2,9,2,9,1,C,7,L,7,L,9,0.298548,0.808083,0.241252
7,61,2,8,9,8,1,I,6,S,1,S,10,0.352299,0.795009,0.280081
7,62,9,1,9,2,1,C,8,L,7,L,8,0.78972,0.270866,0.213908
7,63,9,2,9,2,1,C,7,L,7,L,9,0.84601,0.272243,0.230321
7,64,9,1,1,9,1,I,8,L,8,L,11,0.772157,0.467821,0.361232
7,65,2,9,1,9,1,C,7,L,8,L,9,0.29215,0.817595,0.238861
7,66,1,9,9,8,1,I,8,L,1,S,10,0.385675,0.752628,0.29027
7,67,8,1,2,9,1,I,7,L,7,L,11,0.763084,0.468676,0.357639
7,68,8,9,9,8,0,I,1,S,1,S,13,0.772698,0.427269,0.33015
7,69,9,8,1,9,1,I,1,S,8,L,21,0.766347,0.638117,0.48902
7,70,8,1,8,1,1,C,7,L,7,L,9,0.845707,0.270247,0.22855
7,71,2,8,2,1,1,I,6,S,1,S,10,0.364476,0.780197,0.284363
7,72,8,2,9,1,1,C,6,S,8,L,9,0.837468,0.276238,0.23134
7,73,2,9,9,1,1,I,7,L,8,L,14,0.575302,0.770761,0.44342
7,74,9,2,8,1,1,C,7,L,7,L,9,0.802317,0.301057,0.241543
7,75,2,9,2,8,1,C,7,L,6,S,9,0.262533,0.856167,0.224772
7,76,1,9,9,2,1,I,8,L,7,L,14,0.581768,0.759271,0.441719
7,77,8,2,8,2,1,C,6,S,6,S,9,0.754414,0.340739,0.257058
7,78,9,8,8,1,1,C,1,S,7,L,11,0.822277,0.346056,0.284554
7,79,2,1,2,8,0,I,1,S,6,S,11,0.424482,0.751991,0.319207
7,80,8,9,2,1,0,I,1,S,1,S,13,0.806435,0.393847,0.317612
7,81,9,1,8,9,1,I,8,L,1,S,9,0.75297,0.355908,0.267988
7,82,8,1,1,2,1,I,7,L,1,S,10,0.782416,0.379156,0.296658
7,83,1,2,8,2,1,I,1,S,6,S,18,0.618189,0.752444,0.465152
7,84,9,2,2,8,1,I,7,L,6,S,14,0.772089,0.570641,0.440585
7,85,2,1,9,8,1,C,1,S,1,S,16,0.799266,0.428925,0.342825
7,86,1,2,1,2,1,C,1,S,1,S,12,0.376249,0.812087,0.305547
7,87,2,9,9,2,1,I,7,L,7,L,13,0.562311,0.753996,0.42398
7,88,1,2,8,9,1,C,1,S,1,S,12,0.418634,0.76203,0.319011
7,89,2,9,8,1,1,I,7,L,7,L,12,0.505319,0.757943,0.383003
7,90,9,8,8,9,1,I,1,S,1,S,15,0.779895,0.475089,0.37052
7,91,1,2,1,8,1,C,1,S,7,L,10,0.326088,0.820508,0.267558
7,92,1,9,1,9,1,C,8,L,8,L,9,0.308268,0.79664,0.245579
7,93,2,9,1,2,1,C,7,L,1,S,10,0.319599,0.830259,0.26535
7,94,1,8,8,1,1,I,7,L,7,L,12,0.505813,0.755829,0.382308
7,95,1,8,2,9,1,C,7,L,7,L,9,0.298532,0.806491,0.240764
7,96,1,8,1,9,1,C,7,L,8,L,9,0.292134,0.816003,0.238382
7,97,8,2,1,8,1,I,6,S,7,L,15,0.767949,0.595111,0.457015
7,98,1,2,8,1,1,I,1,S,7,L,19,0.634433,0.752182,0.477209
7,99,1,8,8,2,1,I,7,L,6,S,12,0.468864,0.786486,0.368755
7,100,1,2,9,8,1,I,1,S,1,S,13,0.444171,0.759621,0.337402
7,101,8,2,1,2,1,I,6,S,1,S,11,0.761932,0.426209,0.324742
7,102,8,9,9,2,0,I,1,S,7,L,10,0.797486,0.346866,0.27662
7,103,9,1,9,8,1,C,8,L,1,S,9,0.768704,0.336975,0.259034
7,104,9,8,2,1,1,C,1,S,1,S,13,0.802308,0.393928,0.316052
7,105,8,2,9,8,1,C,6,S,1,S,10,0.757173,0.378218,0.286377
7,106,9,1,2,1,1,C,8,L,1,S,9,0.776865,0.32596,0.253227
7,107,1,9,2,9,1,C,8,L,7,L,9,0.314666,0.787128,0.247683
7,108,9,8,1,8,1,I,1,S,7,L,22,0.764306,0.650864,0.497459
7,109,9,1,8,2,1,C,8,L,6,S,9,0.836639,0.281201,0.235263
7,110,9,2,1,9,1,I,7,L,8,L,13,0.777144,0.527083,0.409619
7,111,2,8,8,1,1,I,6,S,7,L,12,0.489115,0.777329,0.380203
7,112,2,8,1,8,1,C,6,S,7,L,8,0.282945,0.767501,0.217161
7,113,2,8,1,9,1,C,6,S,8,L,9,0.27794,0.834672,0.231989
7,114,2,1,2,9,0,I,1,S,7,L,13,0.464464,0.760424,0.35319
7,115,2,1,1,9,0,I,1,S,8,L,13,0.455463,0.77313,0.352132
7,116,1,2,2,8,1,C,1,S,6,S,10,0.330821,0.813104,0.268992
7,117,8,9,2,8,0,C,1,S,6,S,21,0.750902,0.65935,0.495107
7,118,1,8,2,1,1,I,7,L,1,S,10,0.380036,0.759643,0.288692
7,119,9,8,9,1,1,C,1,S,8,L,10,0.81018,0.332001,0.26898
7,120,1,8,1,8,1,C,7,L,7,L,8,0.295239,0.751706,0.221933
7,121,2,9,8,2,1,I,7,L,6,S,12,0.46837,0.788599,0.369356
7,122,8,1,1,9,1,I,7,L,8,L,11,0.754838,0.48079,0.362918
7,123,9,8,9,8,1,C,1,S,1,S,13,0.768571,0.42735,0.328449
7,124,1,8,9,8,1,I,7,L,1,S,10,0.367859,0.774454,0.28489
7,125,9,1,1,2,1,I,8,L,1,S,10,0.799473,0.366609,0.293094
7,126,9,8,8,2,1,C,1,S,6,S,11,0.787625,0.37501,0.295367
7,127,1,8,8,9,1,C,7,L,1,S,10,0.344992,0.800906,0.276306
7,128,2,9,2,1,1,I,7,L,1,S,10,0.379871,0.761455,0.289254
7,129,9,2,1,2,1,I,7,L,1,S,11,0.789659,0.405577,0.320267
7,130,1,9,9,1,1,I,8,L,8,L,15,0.590631,0.774482,0.457433
7,131,9,1,1,8,1,I,8,L,7,L,12,0.769734,0.526471,0.405243
7,132,2,1,8,1,1,C,1,S,7,L,11,0.763531,0.397063,0.30317
7,133,1,9,2,1,1,I,8,L,1,S,11,0.38134,0.799026,0.304701
7,134,8,1,9,1,1,C,7,L,8,L,8,0.787924,0.269437,0.212296
7,135,8,1,9,8,1,C,7,L,1,S,9,0.752618,0.348691,0.262431
7,136,9,2,2,1,1,C,7,L,1,S,10,0.795234,0.344235,0.273747
7,137,2,1,8,9,1,I,1,S,1,S,20,0.752365,0.578274,0.435073
7,138,9,2,8,2,1,C,7,L,6,S,9,0.777163,0.323726,0.251588
7,139,9,2,2,9,1,I,7,L,7,L,12,0.752323,0.510682,0.384197
7,140,1,2,2,9,1,C,1,S,7,L,10,0.370873,0.759278,0.281596
7,141,8,9,2,9,0,C,1,S,7,L,20,0.75604,0.640773,0.48445
7,142,8,9,1,2,0,C,1,S,1,S,17,0.770379,0.559248,0.430832
7,143,1,8,1,2,1,C,7,L,1,S,10,0.319764,0.828446,0.264907
7,144,1,8,9,1,1,I,7,L,8,L,14,0.576037,0.768507,0.442688
8,1,2,8,2,8,1,C,6,S,6,S,9,0.339166,0.750879,0.254673
8,2,9,2,2,8,1,I,7,L,6,S,13,0.770625,0.533829,0.411382
8,3,9,8,1,2,0,I,1,S,1,S,15,0.496448,0.762267,0.378426
8,4,9,2,2,9,1,I,7,L,7,L,13,0.782887,0.520289,0.407328
8,5,1,9,2,1,1,I,8,L,1,S,10,0.332463,0.82289,0.273581
8,6,8,9,2,9,1,C,1,S,7,L,13,0.457025,0.766249,0.350195
8,7,8,9,1,9,1,C,1,S,8,L,12,0.440079,0.760337,0.334608
8,8,2,1,2,1,1,C,1,S,1,S,14,0.774778,0.435699,0.33757
8,9,1,8,1,2,1,C,7,L,1,S,9,0.322356,0.774823,0.249769
8,10,9,2,8,9,1,I,7,L,1,S,10,0.77128,0.372303,0.28715
8,11,9,8,2,9,0,I,1,S,7,L,13,0.450714,0.778204,0.350747
8,12,1,8,8,1,1,I,7,L,7,L,12,0.509139,0.756029,0.384924
8,13,1,9,1,2,1,C,8,L,1,S,9,0.291246,0.815746,0.237582
8,14,9,2,2,1,1,C,7,L,1,S,10,0.782263,0.36068,0.282147
8,15,9,1,9,1,1,C,8,L,8,L,9,0.781832,0.318331,0.248881
8,16,8,2,9,1,1,C,6,S,8,L,9,0.852718,0.264994,0.225965
8,17,2,1,1,2,1,I,1,S,1,S,21,0.759923,0.629994,0.478747
8,18,1,9,8,1,1,I,8,L,7,L,11,0.467735,0.76331,0.357027
8,19,2,9,9,8,1,I,7,L,1,S,10,0.342518,0.795336,0.272417
8,20,1,8,2,9,1,C,7,L,7,L,9,0.296078,0.812777,0.240645
8,21,2,8,2,1,1,I,6,S,1,S,11,0.410824,0.75222,0.30903
8,22,1,2,1,9,1,C,1,S,8,L,11,0.374518,0.796369,0.298254
8,23,1,2,2,8,1,C,1,S,6,S,11,0.380053,0.78658,0.298942
8,24,8,9,2,8,1,C,1,S,6,S,12,0.446021,0.750223,0.334615
8,25,1,2,8,2,1,I,1,S,6,S,25,0.638774,0.770406,0.492115
8,26,1,2,9,2,0,I,1,S,7,L,16,0.754738,0.530401,0.400313
8,27,9,8,1,8,0,I,1,S,7,L,12,0.426289,0.780875,0.332878
8,28,9,1,8,2,1,C,8,L,6,S,10,0.833115,0.311695,0.259678
8,29,2,9,9,2,1,I,7,L,7,L,12,0.473623,0.771464,0.365383
8,30,9,2,9,8,1,C,7,L,1,S,11,0.806782,0.383217,0.309172
8,31,1,2,1,8,1,C,1,S,7,L,11,0.36482,0.806874,0.294363
8,32,2,8,9,2,1,I,6,S,7,L,14,0.540002,0.758366,0.409519
8,33,8,1,1,2,1,I,7,L,1,S,11,0.77116,0.43782,0.337629
8,34,9,1,2,8,1,I,8,L,6,S,14,0.766256,0.560857,0.42976
8,35,1,2,2,1,1,I,1,S,1,S,17,0.46839,0.776926,0.363905
8,36,2,8,8,2,1,I,6,S,6,S,14,0.531715,0.763221,0.405816
8,37,8,1,9,2,1,C,7,L,7,L,9,0.794624,0.307007,0.243956
8,38,9,1,8,1,1,C,8,L,7,L,9,0.77769,0.31997,0.248838
8,39,8,1,8,1,1,C,7,L,7,L,9,0.826822,0.282033,0.233191
8,40,1,9,2,8,1,C,8,L,6,S,8,0.291731,0.754861,0.220217
8,41,2,8,1,9,1,C,6,S,8,L,9,0.334997,0.758929,0.254239
8,42,1,9,9,1,1,I,8,L,8,L,11,0.473092,0.760764,0.359912
8,43,9,8,8,9,1,I,1,S,1,S,18,0.750254,0.513003,0.384882
8,44,1,9,9,8,1,I,8,L,1,S,9,0.328488,0.772799,0.253855
8,45,2,9,1,8,1,C,7,L,7,L,9,0.281634,0.824834,0.232301
8,46,9,8,1,9,0,I,1,S,8,L,12,0.435989,0.770479,0.33592
8,47,2,8,1,8,1,C,6,S,7,L,9,0.326201,0.768171,0.250578
8,48,8,2,9,2,1,C,6,S,7,L,9,0.816379,0.291608,0.238063
8,49,2,9,8,2,1,I,7,L,6,S,12,0.466203,0.775479,0.361531
8,50,1,2,8,9,1,C,1,S,1,S,15,0.454144,0.760922,0.345568
8,51,8,1,8,2,1,C,7,L,6,S,9,0.790237,0.30892,0.24412
8,52,8,2,1,8,1,I,6,S,7,L,12,0.769336,0.513106,0.39475
8,53,2,9,8,1,1,I,7,L,7,L,13,0.525582,0.769378,0.404371
8,54,9,8,9,8,1,C,1,S,1,S,23,0.757641,0.624161,0.47289
8,55,8,1,9,1,1,C,7,L,8,L,9,0.830964,0.280394,0.232997
8,56,2,9,1,9,1,C,7,L,8,L,9,0.29043,0.815593,0.236872
8,57,2,8,8,9,1,C,6,S,1,S,11,0.395366,0.768402,0.3038
8,58,1,8,9,8,1,I,7,L,1,S,10,0.332005,0.813837,0.270198
8,59,9,2,1,9,1,I,7,L,8,L,13,0.764448,0.543985,0.415848
8,60,9,2,1,2,1,I,7,L,1,S,12,0.788582,0.459953,0.362711
8,61,8,9,9,8,0,I,1,S,1,S,23,0.770793,0.60844,0.468981
8,62,1,9,2,9,1,C,8,L,7,L,9,0.264968,0.8537,0.226203
8,63,8,9,8,2,0,I,1,S,6,S,12,0.770592,0.406349,0.313129
8,64,2,8,1,2,1,C,6,S,1,S,10,0.345914,0.785975,0.27188
8,65,1,8,8,9,1,C,7,L,1,S,10,0.355269,0.790035,0.280675
8,66,1,9,8,9,1,C,8,L,1,S,9,0.345331,0.756205,0.261141
8,67,1,2,2,9,1,C,1,S,7,L,11,0.392172,0.772957,0.303132
8,68,2,8,8,1,1,I,6,S,7,L,16,0.583288,0.775853,0.452545
8,69,9,1,8,9,1,I,8,L,1,S,11,0.803796,0.375041,0.301457
8,70,9,1,2,9,1,I,8,L,7,L,14,0.77816,0.547992,0.426425
8,71,8,1,2,8,1,I,7,L,6,S,12,0.760943,0.510421,0.388401
8,72,9,2,9,2,1,C,7,L,7,L,9,0.773586,0.324385,0.250939
8,73,8,9,8,9,0,C,1,S,1,S,18,0.76794,0.493669,0.379109
8,74,2,9,2,9,1,C,7,L,7,L,9,0.305038,0.796406,0.242934
8,75,8,2,8,1,1,C,6,S,7,L,9,0.848576,0.266634,0.226259
8,76,1,2,1,2,1,C,1,S,1,S,12,0.402785,0.779245,0.313868
8,77,9,8,2,1,1,C,1,S,1,S,16,0.764752,0.461152,0.352667
8,78,1,8,1,8,1,C,7,L,7,L,9,0.272673,0.841205,0.229374
8,79,2,9,8,9,1,C,7,L,1,S,10,0.365782,0.771534,0.282213
8,80,1,2,9,1,0,I,1,S,8,L,13,0.765651,0.462927,0.35444
8,81,8,9,8,1,0,I,1,S,7,L,11,0.76439,0.394142,0.301278
8,82,2,1,9,2,1,C,1,S,7,L,11,0.757099,0.397726,0.301118
8,83,8,1,9,8,1,C,7,L,1,S,10,0.771164,0.377233,0.290909
8,84,9,2,8,1,1,C,7,L,7,L,9,0.805783,0.29941,0.24126
8,85,2,1,1,9,0,I,1,S,8,L,14,0.521176,0.750523,0.391154
8,86,2,1,2,8,1,I,1,S,6,S,23,0.770602,0.641278,0.49417
8,87,8,1,1,8,1,I,7,L,7,L,13,0.778267,0.53424,0.415782
8,88,2,1,2,9,1,I,1,S,7,L,22,0.753644,0.652453,0.491717
8,89,2,9,2,1,1,I,7,L,1,S,10,0.376765,0.759911,0.286308
8,90,9,1,9,2,1,C,8,L,7,L,10,0.838628,0.309031,0.259162
8,91,1,9,9,2,1,I,8,L,7,L,11,0.423112,0.796617,0.337058
8,92,2,8,9,8,1,I,6,S,1,S,11,0.363949,0.801726,0.291788
8,93,8,2,1,2,1,I,6,S,1,S,11,0.795316,0.420281,0.334256
8,94,8,2,2,1,1,C,6,S,1,S,9,0.751791,0.347757,0.261441
8,95,8,2,1,9,1,I,6,S,8,L,12,0.779035,0.502709,0.391628
8,96,9,1,1,9,1,I,8,L,8,L,14,0.759992,0.570855,0.433845
8,97,9,1,9,8,1,C,8,L,1,S,11,0.77238,0.408365,0.315413
8,98,9,1,1,2,1,I,8,L,1,S,12,0.753292,0.486139,0.366205
8,99,8,2,2,8,1,I,6,S,6,S,12,0.784978,0.492596,0.386677
8,100,2,9,2,8,1,C,7,L,6,S,9,0.294599,0.807542,0.237901
8,101,9,8,8,2,1,C,1,S,6,S,12,0.766502,0.41649,0.319241
8,102,2,1,9,8,1,C,1,S,1,S,18,0.774429,0.550062,0.425984
8,103,9,2,1,8,1,I,7,L,7,L,13,0.754975,0.553939,0.41821
8,104,8,2,2,9,1,I,6,S,7,L,11,0.759208,0.472748,0.358915
8,105,9,1,2,1,1,C,8,L,1,S,10,0.750226,0.383958,0.288055
8,106,9,1,1,8,1,I,8,L,7,L,14,0.750915,0.58015,0.435643
8,107,2,1,9,1,1,C,1,S,8,L,11,0.80708,0.361873,0.29206
8,108,1,8,9,1,1,I,7,L,8,L,12,0.51482,0.753156,0.38774
8,109,1,9,8,2,1,I,8,L,6,S,10,0.415352,0.750627,0.311775
8,110,8,9,1,2,1,C,1,S,1,S,16,0.52056,0.755638,0.393355
8,111,8,1,2,9,1,I,7,L,7,L,12,0.773301,0.496577,0.384003
8,112,8,1,1,9,1,I,7,L,8,L,12,0.755,0.520535,0.393004
8,113,9,2,9,1,1,C,7,L,8,L,9,0.809925,0.297771,0.241172
8,114,8,9,2,1,0,I,1,S,1,S,16,0.779057,0.443708,0.345674
8,115,9,8,9,1,1,C,1,S,8,L,11,0.767456,0.400133,0.307084
8,116,2,1,8,9,1,I,1,S,1,S,15,0.775482,0.457922,0.355111
8,117,2,1,8,2,1,C,1,S,6,S,11,0.75053,0.401113,0.301047
8,118,1,8,2,8,1,C,7,L,6,S,9,0.285638,0.823913,0.235341
8,119,2,1,1,8,0,I,1,S,7,L,14,0.512099,0.759818,0.389102
8,120,9,8,2,8,0,I,1,S,6,S,12,0.441931,0.760365,0.336029
8,121,2,8,2,9,1,C,6,S,7,L,10,0.314244,0.832052,0.261467
8,122,1,8,9,2,1,I,7,L,7,L,11,0.458411,0.750669,0.344115
8,123,2,1,8,1,1,C,1,S,7,L,11,0.801723,0.364419,0.292163
8,124,1,9,1,9,1,C,8,L,8,L,8,0.288467,0.761535,0.219678
8,125,1,9,1,8,1,C,8,L,7,L,8,0.280624,0.769306,0.215885
8,126,8,9,1,8,1,C,1,S,7,L,12,0.430379,0.770734,0.331707
8,127,9,8,8,1,1,C,1,S,7,L,11,0.762099,0.402679,0.306881
8,128,1,2,9,8,1,I,1,S,1,S,14,0.415994,0.793847,0.330236
8,129,9,8,9,2,1,C,1,S,7,L,12,0.773922,0.412475,0.319223
8,130,2,9,1,2,1,C,7,L,1,S,9,0.331316,0.758452,0.251288
8,131,1,2,8,1,0,I,1,S,7,L,13,0.759821,0.46603,0.354099
8,132,2,9,9,1,1,I,7,L,8,L,13,0.531412,0.766275,0.407208
8,133,9,2,8,2,1,C,7,L,6,S,9,0.769198,0.326298,0.250988
8,134,8,9,9,2,0,I,1,S,7,L,12,0.778012,0.402334,0.31302
8,135,8,2,8,2,1,C,6,S,6,S,9,0.811991,0.293521,0.238336
8,136,8,2,8,9,1,I,6,S,1,S,10,0.817899,0.336677,0.275368
8,137,1,8,8,2,1,I,7,L,6,S,11,0.451842,0.754056,0.340714
8,138,1,8,1,9,1,C,7,L,8,L,9,0.281469,0.831964,0.234172
8,139,2,8,9,1,1,I,6,S,8,L,16,0.588907,0.772535,0.454951
8,140,8,9,9,1,0,I,1,S,8,L,11,0.769747,0.391595,0.301429
8,141,8,1,2,1,1,C,7,L,1,S,10,0.805411,0.341808,0.275296
8,142,8,2,9,8,1,C,6,S,1,S,10,0.794635,0.360479,0.286449
8,143,1,8,2,1,1,I,7,L,1,S,10,0.366252,0.778412,0.285095
8,144,8,1,8,9,1,I,7,L,1,S,10,0.794428,0.353431,0.280775
9,1,9,1,8,2,1,C,8,L,6,S,9,0.793158,0.305365,0.242203
9,2,2,8,9,8,1,I,6,S,1,S,11,0.407603,0.752085,0.306552
9,3,1,9,8,9,1,C,8,L,1,S,11,0.384337,0.804941,0.309368
9,4,1,9,8,1,1,I,8,L,7,L,14,0.559877,0.777688,0.43541
9,5,1,9,2,1,1,I,8,L,1,S,11,0.42328,0.766826,0.324582
9,6,8,2,1,9,1,I,6,S,8,L,12,0.759661,0.515346,0.391488
9,7,9,8,8,9,1,I,1,S,1,S,13,0.803893,0.395712,0.31811
9,8,8,2,9,8,1,C,6,S,1,S,10,0.801344,0.344987,0.276453
9,9,9,8,8,1,1,C,1,S,7,L,10,0.77303,0.359459,0.277873
9,10,1,8,9,2,1,I,7,L,7,L,13,0.541128,0.768408,0.415807
9,11,8,2,1,8,1,I,6,S,7,L,13,0.759912,0.561064,0.426359
9,12,2,8,8,9,1,C,6,S,1,S,12,0.430429,0.774764,0.333481
9,13,9,8,1,8,0,I,1,S,7,L,13,0.494368,0.757415,0.374442
9,14,9,1,1,2,1,I,8,L,1,S,11,0.769485,0.418185,0.321787
9,15,8,1,8,9,1,I,7,L,1,S,10,0.829175,0.322518,0.267424
9,16,2,8,1,8,1,C,6,S,7,L,9,0.311344,0.789205,0.245714
9,17,8,2,8,2,1,C,6,S,6,S,9,0.821836,0.288885,0.237416
9,18,9,8,2,9,1,I,1,S,7,L,21,0.758216,0.636148,0.482337
9,19,9,8,9,8,1,C,1,S,1,S,14,0.795951,0.414622,0.330019
9,20,8,2,1,2,1,I,6,S,1,S,11,0.80363,0.397336,0.319311
9,21,1,2,1,9,1,C,1,S,8,L,10,0.333601,0.806337,0.268995
9,22,2,9,1,9,1,C,7,L,8,L,10,0.326436,0.81547,0.266199
9,23,8,9,8,1,0,I,1,S,7,L,9,0.770826,0.326278,0.251503
9,24,1,8,2,1,1,I,7,L,1,S,11,0.40815,0.786925,0.321183
9,25,9,1,1,9,1,I,8,L,8,L,13,0.757815,0.541729,0.410531
9,26,1,8,1,9,1,C,7,L,8,L,9,0.281846,0.829699,0.233847
9,27,8,1,9,1,1,C,7,L,8,L,8,0.767628,0.281618,0.216178
9,28,1,9,8,2,1,I,8,L,6,S,13,0.520043,0.77812,0.404656
9,29,9,1,2,8,1,I,8,L,6,S,14,0.772027,0.558915,0.431497
9,30,2,1,1,2,1,I,1,S,1,S,20,0.765684,0.601918,0.460879
9,31,8,9,2,8,0,C,1,S,6,S,16,0.755568,0.609139,0.460246
9,32,1,8,8,9,1,C,7,L,1,S,10,0.383784,0.76472,0.293487
9,33,9,2,1,8,1,I,7,L,7,L,14,0.751425,0.587754,0.441653
9,34,9,8,2,8,1,I,1,S,6,S,22,0.753825,0.652622,0.491963
9,35,2,9,8,2,1,I,7,L,6,S,17,0.606432,0.762759,0.462562
9,36,9,2,1,2,1,I,7,L,1,S,11,0.765266,0.423015,0.323719
9,37,2,8,8,2,1,I,6,S,6,S,15,0.583398,0.752748,0.439152
9,38,1,2,8,9,1,C,1,S,1,S,13,0.462094,0.76283,0.352499
9,39,8,1,9,2,1,C,7,L,7,L,9,0.854743,0.260999,0.223087
9,40,9,1,2,1,1,C,8,L,1,S,10,0.822775,0.314881,0.259076
9,41,9,2,8,9,1,I,7,L,1,S,10,0.790054,0.350095,0.276594
9,42,8,1,1,9,1,I,7,L,8,L,12,0.762462,0.511654,0.390117
9,43,9,8,9,2,1,C,1,S,7,L,10,0.770828,0.35922,0.276897
9,44,1,9,9,2,1,I,8,L,7,L,14,0.556983,0.778308,0.433505
9,45,8,1,2,8,1,I,7,L,6,S,13,0.779648,0.532277,0.414989
9,46,1,8,9,8,1,I,7,L,1,S,10,0.358923,0.783346,0.281161
9,47,9,8,9,1,1,C,1,S,8,L,10,0.798363,0.339357,0.27093
9,48,2,8,9,1,1,I,6,S,8,L,17,0.624802,0.758804,0.474102
9,49,8,1,1,2,1,I,7,L,1,S,10,0.752237,0.399997,0.300893
9,50,1,9,1,2,1,C,8,L,1,S,10,0.321098,0.823126,0.264304
9,51,2,9,2,9,1,C,7,L,7,L,10,0.349047,0.781279,0.272703
9,52,8,2,8,9,1,I,6,S,1,S,10,0.826205,0.326361,0.269641
9,53,1,2,1,2,1,C,1,S,1,S,11,0.373569,0.784961,0.293238
9,54,2,9,9,1,1,I,7,L,8,L,19,0.632184,0.769728,0.48661
9,55,1,2,2,8,1,C,1,S,6,S,10,0.318491,0.822825,0.262063
9,56,2,1,2,8,0,I,1,S,6,S,14,0.506283,0.760572,0.385065
9,57,1,8,1,8,1,C,7,L,7,L,8,0.291771,0.756245,0.22065
9,58,8,9,2,9,0,C,1,S,7,L,15,0.770262,0.562613,0.43336
9,59,9,2,9,1,1,C,7,L,8,L,9,0.845141,0.267419,0.226007
9,60,1,8,1,2,1,C,7,L,1,S,9,0.339442,0.753694,0.255835
9,61,8,2,2,8,1,I,6,S,6,S,13,0.777108,0.535769,0.41635
9,62,8,1,2,1,1,C,7,L,1,S,9,0.766778,0.326578,0.250413
9,63,1,9,2,9,1,C,8,L,7,L,9,0.313899,0.783462,0.245928
9,64,9,2,2,9,1,I,7,L,7,L,13,0.781838,0.506232,0.395791
9,65,2,1,9,2,1,C,1,S,7,L,10,0.760664,0.367908,0.279854
9,66,9,8,2,1,1,C,1,S,1,S,12,0.790686,0.38438,0.303924
9,67,2,8,8,1,1,I,6,S,7,L,16,0.613833,0.750961,0.460965
9,68,2,9,8,9,1,C,7,L,1,S,13,0.451613,0.776821,0.350822
9,69,8,9,1,2,0,C,1,S,1,S,13,0.779861,0.470089,0.366604
9,70,8,1,1,8,1,I,7,L,7,L,13,0.762453,0.557572,0.425122
9,71,2,8,1,9,1,C,6,S,8,L,9,0.3391,0.751903,0.25497
9,72,2,9,9,2,1,I,7,L,7,L,18,0.624625,0.762626,0.476356
9,73,1,8,9,1,1,I,7,L,8,L,14,0.567998,0.776916,0.441287
9,74,8,2,2,9,1,I,6,S,7,L,12,0.786675,0.475706,0.374226
9,75,8,9,9,2,0,I,1,S,7,L,9,0.768897,0.325801,0.250508
9,76,2,1,1,9,1,I,1,S,8,L,23,0.759991,0.651157,0.494874
9,77,2,9,1,2,1,C,7,L,1,S,11,0.365035,0.796156,0.290625
9,78,2,1,9,8,1,C,1,S,1,S,14,0.769705,0.434599,0.334513
9,79,1,8,2,9,1,C,7,L,7,L,9,0.301035,0.800568,0.240999
9,80,2,8,2,8,1,C,6,S,6,S,9,0.325114,0.766709,0.249268
9,81,1,2,1,8,1,C,1,S,7,L,9,0.336769,0.757957,0.255257
9,82,8,2,8,1,1,C,6,S,7,L,9,0.85389,0.265213,0.226463
9,83,2,1,8,9,1,I,1,S,1,S,13,0.781619,0.413042,0.322841
9,84,8,9,1,8,0,C,1,S,7,L,17,0.764988,0.622484,0.476192
9,85,8,1,8,1,1,C,7,L,7,L,9,0.856672,0.261475,0.223999
9,86,8,9,2,1,0,I,1,S,1,S,10,0.758456,0.366023,0.277612
9,87,9,2,8,1,1,C,7,L,7,L,9,0.821611,0.28615,0.235104
9,88,9,1,9,8,1,C,8,L,1,S,10,0.769238,0.363993,0.279997
9,89,8,9,9,1,0,I,1,S,8,L,9,0.794355,0.307547,0.244301
9,90,1,2,8,2,1,I,1,S,6,S,18,0.608862,0.773378,0.47088
9,91,9,1,9,1,1,C,8,L,8,L,9,0.848741,0.262963,0.223187
9,92,8,2,2,1,1,C,6,S,1,S,9,0.763996,0.330316,0.25236
9,93,9,1,9,2,1,C,8,L,7,L,9,0.823282,0.281217,0.231521
9,94,9,1,8,9,1,I,8,L,1,S,10,0.794099,0.345366,0.274255
9,95,8,9,8,2,0,I,1,S,6,S,10,0.831173,0.314532,0.261431
9,96,8,9,9,8,0,I,1,S,1,S,11,0.768799,0.393496,0.302519
9,97,9,8,1,2,1,I,1,S,1,S,19,0.772827,0.585242,0.452291
9,98,2,9,2,1,1,I,7,L,1,S,14,0.512765,0.756728,0.388024
9,99,9,1,1,8,1,I,8,L,7,L,14,0.755002,0.583387,0.440459
9,100,2,1,2,9,1,I,1,S,7,L,22,0.755524,0.643303,0.486031
9,101,8,1,9,8,1,C,7,L,1,S,10,0.804314,0.341144,0.274387
9,102,2,8,2,9,1,C,6,S,7,L,10,0.324938,0.812095,0.263881
9,103,1,2,2,9,1,C,1,S,7,L,10,0.356212,0.772146,0.275047
9,104,9,2,2,8,1,I,7,L,6,S,14,0.76845,0.563281,0.432853
9,105,2,8,2,1,1,I,6,S,1,S,13,0.479874,0.766685,0.367912
9,106,2,9,1,8,1,C,7,L,7,L,9,0.331074,0.764943,0.253253
9,107,1,2,9,2,1,I,1,S,7,L,18,0.634875,0.750061,0.476195
9,108,9,2,1,9,1,I,7,L,8,L,13,0.753888,0.546347,0.411885
9,109,9,2,2,1,1,C,7,L,1,S,10,0.818731,0.319609,0.261674
9,110,1,2,9,1,1,I,1,S,8,L,19,0.641867,0.758086,0.48659
9,111,1,9,9,1,1,I,8,L,8,L,14,0.583226,0.757817,0.441979
9,112,8,9,8,9,0,C,1,S,1,S,11,0.80278,0.367006,0.294625
9,113,9,1,2,9,1,I,8,L,7,L,12,0.751724,0.497719,0.374147
9,114,2,9,8,1,1,I,7,L,7,L,18,0.627781,0.761521,0.478068
9,115,2,1,9,1,1,C,1,S,8,L,10,0.788199,0.348045,0.274329
9,116,2,8,9,2,1,I,6,S,7,L,16,0.610778,0.751867,0.459224
9,117,1,2,9,8,1,I,1,S,1,S,12,0.425003,0.757606,0.321985
9,118,2,1,2,1,1,C,1,S,1,S,12,0.772759,0.398754,0.308141
9,119,9,1,8,1,1,C,8,L,7,L,9,0.825211,0.281694,0.232457
9,120,1,9,9,8,1,I,8,L,1,S,10,0.373174,0.764274,0.285208
9,121,8,1,2,9,1,I,7,L,7,L,12,0.789476,0.472014,0.372644
9,122,1,9,2,8,1,C,8,L,6,S,9,0.280723,0.827398,0.23227
9,123,2,1,8,1,1,C,1,S,7,L,10,0.762866,0.368147,0.280847
9,124,1,8,2,8,1,C,7,L,6,S,9,0.26786,0.844504,0.226209
9,125,9,2,8,2,1,C,7,L,6,S,9,0.789558,0.309822,0.244622
9,126,2,9,2,8,1,C,7,L,6,S,10,0.311326,0.831958,0.25901
9,127,9,8,8,2,1,C,1,S,6,S,11,0.80994,0.355961,0.288307
9,128,1,8,8,2,1,I,7,L,6,S,12,0.500513,0.764781,0.382783
9,129,1,9,1,8,1,C,8,L,7,L,9,0.266952,0.849895,0.226882
9,130,9,2,9,2,1,C,7,L,7,L,9,0.819683,0.285674,0.234162
9,131,8,2,9,2,1,C,6,S,7,L,9,0.851961,0.264737,0.225545
9,132,8,9,1,9,0,C,1,S,8,L,16,0.768779,0.596106,0.458273
9,133,8,1,8,2,1,C,7,L,6,S,9,0.824618,0.285147,0.235137
9,134,1,2,2,1,1,I,1,S,1,S,15,0.523391,0.772308,0.404219
9,135,9,2,9,8,1,C,7,L,1,S,10,0.765194,0.368721,0.282143
9,136,1,2,8,1,1,I,1,S,7,L,19,0.626493,0.772436,0.483926
9,137,2,1,8,2,1,C,1,S,6,S,11,0.796177,0.367369,0.292491
9,138,9,8,1,9,1,I,1,S,8,L,22,0.761255,0.646832,0.492404
9,139,2,9,9,8,1,I,7,L,1,S,12,0.415336,0.770482,0.320009
9,140,1,9,1,9,1,C,8,L,8,L,9,0.294709,0.812593,0.239478
9,141,2,8,1,2,1,C,6,S,1,S,10,0.372796,0.751494,0.280154
9,142,1,8,8,1,1,I,7,L,7,L,13,0.543906,0.767969,0.417703
9,143,2,1,1,8,0,I,1,S,7,L,12,0.460274,0.75561,0.347788
9,144,8,2,9,1,1,C,6,S,8,L,8,0.76525,0.285103,0.218175
10,1,8,9,9,1,1,I,1,S,8,L,23,0.642446,0.769103,0.494107
10,2,1,2,9,8,1,I,1,S,1,S,12,0.404492,0.790501,0.319751
10,3,2,8,1,2,1,C,6,S,1,S,11,0.36621,0.80981,0.29656
10,4,8,1,1,8,1,I,7,L,7,L,13,0.769172,0.51635,0.397162
10,5,1,2,8,9,1,C,1,S,1,S,11,0.366501,0.79722,0.292182
10,6,8,2,2,9,1,I,6,S,7,L,20,0.765624,0.641475,0.491129
10,7,9,1,9,1,1,C,8,L,8,L,9,0.83356,0.277787,0.231552
10,8,2,8,2,1,1,I,6,S,1,S,12,0.46453,0.765185,0.355451
10,9,8,9,8,2,0,I,1,S,6,S,13,0.750953,0.493594,0.370666
10,10,8,2,2,1,1,C,6,S,1,S,11,0.789489,0.368479,0.29091
10,11,1,8,1,9,1,C,7,L,8,L,9,0.267824,0.851341,0.228009
10,12,1,2,1,2,1,C,1,S,1,S,12,0.386966,0.807296,0.312396
10,13,2,9,9,1,1,I,7,L,8,L,14,0.561306,0.767457,0.430778
10,14,8,9,2,9,1,C,1,S,7,L,10,0.345375,0.790137,0.272894
10,15,2,1,2,9,0,I,1,S,7,L,12,0.451497,0.763739,0.344826
10,16,9,2,2,8,1,I,7,L,6,S,14,0.756166,0.546414,0.41318
10,17,2,9,8,9,1,C,7,L,1,S,10,0.342214,0.793152,0.271428
10,18,2,9,2,9,1,C,7,L,7,L,9,0.274436,0.834882,0.229121
10,19,1,2,8,1,1,I,1,S,7,L,18,0.638585,0.759764,0.485174
10,20,8,2,9,8,1,C,6,S,1,S,12,0.760307,0.420811,0.319946
10,21,9,8,9,8,1,C,1,S,1,S,14,0.773277,0.437644,0.33842
10,22,9,2,2,1,1,C,7,L,1,S,10,0.773723,0.354972,0.27465
10,23,1,2,1,8,1,C,1,S,7,L,10,0.341908,0.794701,0.271715
10,24,8,1,1,2,1,I,7,L,1,S,11,0.81031,0.365663,0.296301
10,25,2,8,9,2,1,I,6,S,7,L,13,0.525879,0.758864,0.399071
10,26,8,2,8,9,1,I,6,S,1,S,14,0.751275,0.503091,0.37796
10,27,9,8,2,1,1,C,1,S,1,S,12,0.790198,0.39065,0.308691
10,28,1,9,1,8,1,C,8,L,7,L,9,0.310296,0.788317,0.244612
10,29,8,1,9,2,1,C,7,L,7,L,9,0.762593,0.328841,0.250772
10,30,8,2,2,8,1,I,6,S,6,S,17,0.75043,0.604803,0.453862
10,31,1,9,1,2,1,C,8,L,1,S,10,0.359407,0.779942,0.280317
10,32,9,2,9,2,1,C,7,L,7,L,10,0.816918,0.323899,0.264599
10,33,9,8,1,2,1,I,1,S,1,S,15,0.78506,0.445117,0.349443
10,34,2,1,1,8,1,I,1,S,7,L,23,0.769447,0.638512,0.491301
10,35,2,1,2,1,1,C,1,S,1,S,12,0.782799,0.394885,0.309115
10,36,9,8,1,9,0,I,1,S,8,L,12,0.455748,0.766093,0.349145
10,37,9,2,1,9,1,I,7,L,8,L,17,0.765502,0.623848,0.477557
10,38,2,1,1,2,1,I,1,S,1,S,15,0.77211,0.453246,0.349956
10,39,9,8,9,1,1,C,1,S,8,L,10,0.752006,0.379659,0.285506
10,40,8,1,9,1,1,C,7,L,8,L,9,0.799402,0.302035,0.241447
10,41,2,9,8,1,1,I,7,L,7,L,15,0.602496,0.759993,0.457893
10,42,2,9,9,8,1,I,7,L,1,S,11,0.364487,0.812944,0.296307
10,43,8,2,9,1,1,C,6,S,8,L,10,0.800803,0.33798,0.270656
10,44,2,9,9,2,1,I,7,L,7,L,13,0.511286,0.774077,0.395775
10,45,8,2,1,2,1,I,6,S,1,S,13,0.795922,0.413641,0.329226
10,46,1,8,8,1,1,I,7,L,7,L,15,0.59428,0.774067,0.460013
10,47,1,9,9,8,1,I,8,L,1,S,10,0.368569,0.771371,0.284304
10,48,2,9,2,8,1,C,7,L,6,S,9,0.328984,0.759801,0.249962
10,49,9,1,2,9,1,I,8,L,7,L,14,0.776405,0.567626,0.440708
10,50,8,9,2,1,1,I,1,S,1,S,20,0.612382,0.759892,0.465344
10,51,9,2,8,1,1,C,7,L,7,L,9,0.807289,0.299726,0.241966
10,52,2,1,2,8,1,I,1,S,6,S,22,0.752318,0.644942,0.485202
10,53,1,9,2,1,1,I,8,L,1,S,11,0.431209,0.763374,0.329173
10,54,1,2,2,9,1,C,1,S,7,L,9,0.321624,0.776729,0.249815
10,55,9,8,9,2,1,C,1,S,7,L,11,0.776364,0.384945,0.298858
10,56,9,1,1,2,1,I,8,L,1,S,10,0.782854,0.36045,0.28218
10,57,2,9,1,9,1,C,7,L,8,L,9,0.272317,0.840592,0.228907
10,58,2,1,8,9,1,I,1,S,1,S,19,0.752242,0.592602,0.44578
10,59,9,1,9,2,1,C,8,L,7,L,9,0.796751,0.304593,0.242685
10,60,1,2,9,2,1,I,1,S,7,L,16,0.577277,0.773942,0.446779
10,61,2,8,8,1,1,I,6,S,7,L,16,0.608979,0.772795,0.470616
10,62,8,9,9,8,1,I,1,S,1,S,15,0.441696,0.78926,0.348613
10,63,8,1,2,8,1,I,7,L,6,S,13,0.775896,0.504486,0.391429
10,64,2,9,2,1,1,I,7,L,1,S,12,0.449799,0.780726,0.35117
10,65,8,1,1,9,1,I,7,L,8,L,15,0.760247,0.601149,0.457022
10,66,1,2,2,8,1,C,1,S,6,S,10,0.346285,0.785735,0.272089
10,67,8,2,8,2,1,C,6,S,6,S,10,0.820838,0.323021,0.265148
10,68,1,8,2,8,1,C,7,L,6,S,9,0.324491,0.770551,0.250037
10,69,2,8,8,2,1,I,6,S,6,S,15,0.591631,0.765544,0.452919
10,70,8,2,1,8,1,I,6,S,7,L,18,0.767763,0.608377,0.46709
10,71,8,9,8,1,0,I,1,S,7,L,12,0.760969,0.458961,0.349255
10,72,8,1,8,9,1,I,7,L,1,S,11,0.763595,0.417276,0.31863
10,73,8,9,1,8,1,C,1,S,7,L,11,0.37537,0.783001,0.293915
10,74,8,9,2,8,1,C,1,S,6,S,11,0.380719,0.772673,0.294171
10,75,1,8,9,2,1,I,7,L,7,L,12,0.500063,0.753956,0.377026
10,76,8,1,2,1,1,C,7,L,1,S,10,0.816592,0.321357,0.262417
10,77,1,9,2,9,1,C,8,L,7,L,9,0.259047,0.856047,0.221757
10,78,1,8,8,2,1,I,7,L,6,S,14,0.572812,0.766101,0.438831
10,79,1,2,1,9,1,C,1,S,8,L,9,0.319505,0.782438,0.249993
10,80,9,1,8,2,1,C,8,L,6,S,9,0.851737,0.264174,0.225006
10,81,1,9,1,9,1,C,8,L,8,L,8,0.293902,0.752115,0.221048
10,82,9,2,8,9,1,I,7,L,1,S,12,0.761815,0.447835,0.341167
10,83,8,1,9,8,1,C,7,L,1,S,10,0.753303,0.379291,0.285721
10,84,8,1,2,9,1,I,7,L,7,L,15,0.763691,0.594738,0.454196
10,85,8,2,1,9,1,I,6,S,8,L,20,0.762419,0.647164,0.49341
10,86,8,9,1,9,1,C,1,S,8,L,10,0.34282,0.796326,0.272997
10,87,9,2,2,9,1,I,7,L,7,L,17,0.768907,0.617726,0.474974
10,88,9,8,2,8,1,I,1,S,6,S,22,0.765423,0.635417,0.486363
10,89,8,9,9,2,1,I,1,S,7,L,22,0.63118,0.769585,0.485747
10,90,9,1,8,9,1,I,8,L,1,S,11,0.804999,0.387684,0.312086
10,91,1,9,8,2,1,I,8,L,6,S,14,0.561547,0.77691,0.436272
10,92,8,1,8,1,1,C,7,L,7,L,9,0.843162,0.270723,0.228263
10,93,2,8,9,8,1,I,6,S,1,S,11,0.378946,0.797721,0.302293
10,94,9,1,2,8,1,I,8,L,6,S,12,0.783418,0.470283,0.368428
10,95,2,9,1,8,1,C,7,L,7,L,9,0.325684,0.767153,0.24985
10,96,1,2,8,2,1,I,1,S,6,S,17,0.628904,0.751664,0.472724
10,97,9,8,8,9,1,I,1,S,1,S,19,0.76725,0.582326,0.44679
10,98,2,1,1,9,0,I,1,S,8,L,12,0.44835,0.770327,0.345376
10,99,2,9,1,2,1,C,7,L,1,S,10,0.376752,0.755936,0.2848
10,100,1,8,1,8,1,C,7,L,7,L,9,0.321191,0.777902,0.249855
10,101,8,9,8,9,1,C,1,S,1,S,12,0.415691,0.75325,0.313119
10,102,9,1,2,1,1,C,8,L,1,S,9,0.762661,0.329562,0.251344
10,103,1,9,9,1,1,I,8,L,8,L,13,0.540831,0.763498,0.412923
10,104,9,2,1,2,1,I,7,L,1,S,11,0.762456,0.402738,0.30707
10,105,9,8,2,9,0,I,1,S,7,L,12,0.458895,0.759504,0.348533
10,106,8,2,8,1,1,C,6,S,7,L,9,0.76138,0.335798,0.25567
10,107,9,2,1,8,1,I,7,L,7,L,15,0.777184,0.557914,0.433602
10,108,2,9,8,2,1,I,7,L,6,S,14,0.580921,0.751765,0.436716
10,109,2,1,8,2,1,C,1,S,6,S,10,0.767699,0.366652,0.281478
10,110,1,8,2,9,1,C,7,L,7,L,9,0.269942,0.845632,0.228272
10,111,9,8,1,8,1,I,1,S,7,L,22,0.759504,0.644339,0.489378
10,112,9,1,1,8,1,I,8,L,7,L,12,0.777277,0.481585,0.374325
10,113,1,9,2,8,1,C,8,L,6,S,9,0.313596,0.780966,0.244907
10,114,9,8,8,2,1,C,1,S,6,S,10,0.772041,0.364699,0.281563
10,115,1,8,8,9,1,C,7,L,1,S,10,0.336562,0.80551,0.271104
10,116,1,2,9,1,1,I,1,S,8,L,17,0.612926,0.76518,0.468998
10,117,2,8,1,8,1,C,6,S,7,L,9,0.338141,0.754996,0.255295
10,118,2,1,9,8,1,C,1,S,1,S,14,0.762029,0.444574,0.338778
10,119,2,8,2,9,1,C,6,S,7,L,9,0.286892,0.822725,0.236034
10,120,9,1,9,8,1,C,8,L,1,S,10,0.792016,0.351879,0.278694
10,121,1,8,2,1,1,I,7,L,1,S,11,0.443278,0.751187,0.332985
10,122,9,2,9,8,1,C,7,L,1,S,11,0.775192,0.390648,0.302828
10,123,1,2,2,1,1,I,1,S,1,S,14,0.518457,0.764117,0.396162
10,124,2,1,9,2,1,C,1,S,7,L,11,0.770652,0.387942,0.298968
10,125,1,9,8,1,1,I,8,L,7,L,14,0.587246,0.757293,0.444717
10,126,9,2,9,1,1,C,7,L,8,L,9,0.763529,0.331039,0.252757
10,127,1,8,9,8,1,I,7,L,1,S,10,0.380262,0.759723,0.288893
10,128,2,8,1,9,1,C,6,S,8,L,9,0.284773,0.828435,0.235916
10,129,8,1,8,2,1,C,7,L,6,S,9,0.817579,0.288422,0.235807
10,130,2,8,9,1,1,I,6,S,8,L,14,0.575437,0.753036,0.433325
10,131,9,1,8,1,1,C,8,L,7,L,8,0.765589,0.284864,0.218089
10,132,2,8,2,8,1,C,6,S,6,S,10,0.304773,0.841938,0.2566
10,133,8,2,9,2,1,C,6,S,7,L,10,0.757906,0.368882,0.279578
10,134,9,2,8,2,1,C,7,L,6,S,9,0.781705,0.317425,0.248133
10,135,1,8,1,2,1,C,7,L,1,S,10,0.371099,0.768294,0.285113
10,136,2,8,8,9,1,C,6,S,1,S,10,0.355923,0.779049,0.277281
10,137,1,8,9,1,1,I,7,L,8,L,13,0.552613,0.751881,0.415499
10,138,1,9,8,9,1,C,8,L,1,S,10,0.32487,0.817158,0.26547
10,139,2,1,8,1,1,C,1,S,7,L,10,0.795045,0.347487,0.276268
10,140,9,1,1,9,1,I,8,L,8,L,14,0.773,0.574152,0.443819
10,141,8,9,1,2,1,C,1,S,1,S,14,0.430639,0.777799,0.334951
10,142,1,9,9,2,1,I,8,L,7,L,12,0.487988,0.766082,0.373838
10,143,9,8,8,1,1,C,1,S,7,L,10,0.799387,0.345535,0.276216
10,144,2,1,9,1,1,C,1,S,8,L,11,0.81762,0.354029,0.289461
11,1,1,9,9,8,1,I,8,L,1,S,12,0.475463,0.774945,0.368458
11,2,8,2,8,9,1,I,6,S,1,S,12,0.791987,0.431644,0.341857
11,3,1,2,2,1,1,I,1,S,1,S,12,0.408826,0.769149,0.314448
11,4,9,8,1,9,1,I,1,S,8,L,19,0.76061,0.634458,0.482575
11,5,1,9,1,2,1,C,8,L,1,S,11,0.376894,0.81185,0.305982
11,6,2,1,2,1,1,C,1,S,1,S,21,0.765561,0.606758,0.464511
11,7,1,2,9,8,1,I,1,S,1,S,20,0.625749,0.762348,0.477038
11,8,8,9,9,8,0,I,1,S,1,S,12,0.791965,0.394086,0.312102
11,9,8,2,2,8,1,I,6,S,6,S,15,0.770771,0.581916,0.448524
11,10,2,1,2,8,0,I,1,S,6,S,12,0.456782,0.752364,0.343666
11,11,8,2,1,9,1,I,6,S,8,L,14,0.756376,0.569615,0.430844
11,12,9,8,2,9,1,I,1,S,7,L,19,0.754116,0.640727,0.483182
11,13,8,1,9,8,1,C,7,L,1,S,9,0.750631,0.339441,0.254795
11,14,8,9,2,1,0,I,1,S,1,S,22,0.772535,0.609652,0.470978
11,15,9,8,2,1,1,C,1,S,1,S,15,0.777276,0.506,0.393302
11,16,2,9,9,2,1,I,7,L,7,L,17,0.619079,0.774078,0.479215
11,17,2,9,9,8,1,I,7,L,1,S,13,0.51871,0.753565,0.390882
11,18,2,9,8,2,1,I,7,L,6,S,15,0.568034,0.775487,0.440503
11,19,1,9,8,1,1,I,8,L,7,L,12,0.495938,0.759869,0.376848
11,20,9,2,1,9,1,I,7,L,8,L,12,0.785007,0.497391,0.390455
11,21,2,1,1,2,1,I,1,S,1,S,14,0.778389,0.430031,0.334732
11,22,8,1,1,9,1,I,7,L,8,L,14,0.773759,0.556737,0.43078
11,23,9,1,2,8,1,I,8,L,6,S,12,0.781756,0.50597,0.395545
11,24,8,1,9,1,1,C,7,L,8,L,9,0.835069,0.276682,0.231048
11,25,1,8,2,1,1,I,7,L,1,S,9,0.334854,0.765926,0.256474
11,26,1,9,8,2,1,I,8,L,6,S,13,0.526673,0.77367,0.407472
11,27,2,8,9,1,1,I,6,S,8,L,14,0.577287,0.766628,0.442565
11,28,2,1,9,8,1,C,1,S,1,S,12,0.798563,0.388438,0.310192
11,29,1,9,2,9,1,C,8,L,7,L,9,0.293881,0.818711,0.240604
11,30,1,8,8,9,1,C,7,L,1,S,9,0.331848,0.772301,0.256287
11,31,2,8,2,9,1,C,6,S,7,L,9,0.282947,0.828461,0.234411
11,32,2,1,1,8,0,I,1,S,7,L,13,0.471224,0.766558,0.361221
11,33,9,1,9,1,1,C,8,L,8,L,8,0.791334,0.26797,0.212053
11,34,8,1,9,2,1,C,7,L,7,L,9,0.846312,0.268538,0.227267
11,35,8,1,2,9,1,I,7,L,7,L,14,0.764494,0.56692,0.433407
11,36,8,9,1,8,1,C,1,S,7,L,13,0.462562,0.773726,0.357896
11,37,9,1,1,9,1,I,8,L,8,L,11,0.7579,0.483625,0.366539
11,38,1,9,1,8,1,C,8,L,7,L,9,0.298647,0.81383,0.243048
11,39,2,1,8,9,1,I,1,S,1,S,21,0.752076,0.625195,0.470194
11,40,1,2,1,9,1,C,1,S,8,L,10,0.374855,0.760203,0.284966
11,41,8,2,2,1,1,C,6,S,1,S,11,0.752566,0.425362,0.320113
11,42,9,1,8,2,1,C,8,L,6,S,9,0.854431,0.265184,0.226581
11,43,2,8,1,8,1,C,6,S,7,L,9,0.287713,0.82358,0.236955
11,44,2,8,1,2,1,C,6,S,1,S,10,0.383294,0.759985,0.291298
11,45,1,9,2,1,1,I,8,L,1,S,10,0.339292,0.80556,0.27332
11,46,8,2,8,2,1,C,6,S,6,S,9,0.768589,0.324635,0.249511
11,47,2,1,1,9,0,I,1,S,8,L,13,0.475604,0.761197,0.362028
11,48,9,2,2,8,1,I,7,L,6,S,12,0.771478,0.513226,0.395943
11,49,2,9,1,8,1,C,7,L,7,L,9,0.327439,0.772351,0.252897
11,50,9,1,2,1,1,C,8,L,1,S,10,0.795217,0.365634,0.290759
11,51,1,8,9,1,1,I,7,L,8,L,13,0.550354,0.775211,0.426641
11,52,1,8,1,2,1,C,7,L,1,S,10,0.358771,0.796805,0.285871
11,53,2,1,8,2,1,C,1,S,6,S,11,0.778781,0.385331,0.300088
11,54,8,1,8,9,1,I,7,L,1,S,11,0.76313,0.424557,0.323992
11,55,2,1,9,1,1,C,1,S,8,L,10,0.7731,0.365969,0.28293
11,56,1,8,8,2,1,I,7,L,6,S,11,0.47827,0.751238,0.359295
11,57,1,8,2,8,1,C,7,L,6,S,8,0.295431,0.755165,0.223099
11,58,9,1,8,1,1,C,8,L,7,L,9,0.835683,0.279637,0.233688
11,59,8,9,1,2,0,C,1,S,1,S,14,0.767459,0.438782,0.336747
11,60,2,8,9,2,1,I,6,S,7,L,14,0.588223,0.757946,0.445841
11,61,1,2,8,9,1,C,1,S,1,S,12,0.400368,0.783114,0.313534
11,62,2,8,8,2,1,I,6,S,6,S,12,0.51104,0.75093,0.383756
11,63,9,2,1,2,1,I,7,L,1,S,9,0.759995,0.342038,0.259948
11,64,1,8,1,8,1,C,7,L,7,L,9,0.265781,0.856942,0.227759
11,65,1,2,8,2,1,I,1,S,6,S,21,0.644538,0.758487,0.488874
11,66,1,8,1,9,1,C,7,L,8,L,9,0.269414,0.852428,0.229656
11,67,2,8,1,9,1,C,6,S,8,L,9,0.291346,0.819066,0.238632
11,68,9,8,9,1,1,C,1,S,8,L,10,0.832129,0.315329,0.262394
11,69,8,9,2,8,1,C,1,S,6,S,12,0.450184,0.758011,0.341244
11,70,2,8,8,9,1,C,6,S,1,S,10,0.323005,0.825013,0.266483
11,71,8,9,2,9,1,C,1,S,7,L,12,0.45401,0.753266,0.341991
11,72,2,8,2,8,1,C,6,S,6,S,9,0.279671,0.83256,0.232843
11,73,9,8,2,8,1,I,1,S,6,S,19,0.751424,0.64364,0.483647
11,74,9,2,8,9,1,I,7,L,1,S,10,0.780498,0.380959,0.297337
11,75,1,2,1,2,1,C,1,S,1,S,15,0.481369,0.768756,0.370055
11,76,1,9,9,2,1,I,8,L,7,L,15,0.595028,0.775638,0.461526
11,77,2,8,9,8,1,I,6,S,1,S,12,0.463486,0.786304,0.364441
11,78,1,9,2,8,1,C,8,L,6,S,9,0.290605,0.822809,0.239112
11,79,9,1,9,2,1,C,8,L,7,L,8,0.801315,0.260717,0.208917
11,80,9,2,1,8,1,I,7,L,7,L,12,0.78062,0.502859,0.392542
11,81,9,2,8,1,1,C,7,L,7,L,9,0.826204,0.285901,0.236212
11,82,8,9,8,9,0,C,1,S,1,S,22,0.759753,0.626913,0.476299
11,83,2,1,8,1,1,C,1,S,7,L,11,0.75334,0.404314,0.304586
11,84,9,8,1,8,1,I,1,S,7,L,19,0.757462,0.637885,0.483174
11,85,8,2,9,1,1,C,6,S,8,L,9,0.821643,0.286057,0.235037
11,86,8,2,1,2,1,I,6,S,1,S,10,0.75552,0.375494,0.283693
11,87,9,1,9,8,1,C,8,L,1,S,9,0.823048,0.289365,0.238161
11,88,9,8,8,9,1,I,1,S,1,S,15,0.763936,0.526721,0.402381
11,89,2,9,2,1,1,I,7,L,1,S,10,0.373007,0.7568,0.282292
11,90,1,2,2,8,1,C,1,S,6,S,10,0.362117,0.775241,0.280728
11,91,2,9,1,2,1,C,7,L,1,S,11,0.414344,0.758044,0.314091
11,92,1,2,2,9,1,C,1,S,7,L,10,0.3657,0.770711,0.281849
11,93,1,2,9,2,0,I,1,S,7,L,12,0.753084,0.474995,0.357711
11,94,2,9,8,9,1,C,7,L,1,S,10,0.368408,0.765313,0.281948
11,95,2,9,2,8,1,C,7,L,6,S,9,0.319397,0.78133,0.249554
11,96,9,1,1,2,1,I,8,L,1,S,9,0.769475,0.335775,0.25837
11,97,9,1,1,8,1,I,8,L,7,L,11,0.753622,0.48902,0.368536
11,98,8,9,1,9,1,C,1,S,8,L,13,0.466942,0.768365,0.358782
11,99,9,2,9,2,1,C,7,L,7,L,8,0.792944,0.266198,0.21108
11,100,9,8,1,2,1,I,1,S,1,S,12,0.77941,0.403187,0.314248
11,101,8,9,8,2,0,I,1,S,6,S,11,0.773907,0.389631,0.301538
11,102,8,1,2,1,1,C,7,L,1,S,11,0.769594,0.413453,0.318191
11,103,8,2,9,8,1,C,6,S,1,S,10,0.828716,0.314049,0.260257
11,104,2,1,2,9,0,I,1,S,7,L,13,0.466026,0.771957,0.359752
11,105,8,1,2,8,1,I,7,L,6,S,14,0.760803,0.571314,0.434657
11,106,9,2,2,9,1,I,7,L,7,L,12,0.775305,0.50848,0.394227
11,107,2,9,8,1,1,I,7,L,7,L,14,0.542025,0.768606,0.416604
11,108,8,1,1,2,1,I,7,L,1,S,10,0.771114,0.364661,0.281195
11,109,9,8,8,1,1,C,1,S,7,L,10,0.750231,0.375375,0.281618
11,110,2,8,2,1,1,I,6,S,1,S,10,0.327604,0.816499,0.267488
11,111,8,9,9,2,0,I,1,S,7,L,10,0.781513,0.360418,0.281671
11,112,8,9,8,1,0,I,1,S,7,L,12,0.81244,0.37901,0.307923
11,113,1,9,9,1,1,I,8,L,8,L,14,0.588366,0.756616,0.445167
11,114,2,9,1,9,1,C,7,L,8,L,9,0.331072,0.767836,0.254209
11,115,9,8,9,8,1,C,1,S,1,S,11,0.813404,0.352918,0.287065
11,116,9,2,9,1,1,C,7,L,8,L,8,0.782964,0.273451,0.214102
11,117,2,8,8,1,1,I,6,S,7,L,12,0.483961,0.771228,0.373245
11,118,8,9,9,1,0,I,1,S,8,L,10,0.769587,0.369146,0.28409
11,119,9,2,8,2,1,C,7,L,6,S,9,0.844952,0.271447,0.22936
11,120,1,9,1,9,1,C,8,L,8,L,9,0.302281,0.809315,0.24464
11,121,1,8,9,8,1,I,7,L,1,S,11,0.434248,0.783929,0.34042
11,122,8,2,9,2,1,C,6,S,7,L,9,0.832886,0.277913,0.23147
11,123,8,1,1,8,1,I,7,L,7,L,14,0.769479,0.561868,0.432346
11,124,2,1,9,2,1,C,1,S,7,L,10,0.785025,0.357241,0.280443
11,125,1,8,8,1,1,I,7,L,7,L,11,0.452829,0.770221,0.348778
11,126,9,1,2,9,1,I,8,L,7,L,12,0.785583,0.501225,0.393753
11,127,8,2,8,1,1,C,6,S,7,L,10,0.844573,0.302172,0.255206
11,128,9,2,9,8,1,C,7,L,1,S,9,0.813568,0.295628,0.240514
11,129,8,2,2,9,1,I,6,S,7,L,15,0.774306,0.577799,0.447393
11,130,2,9,2,9,1,C,7,L,7,L,9,0.322673,0.777232,0.250792
11,131,9,8,8,2,1,C,1,S,6,S,10,0.772828,0.358371,0.276959
11,132,1,2,9,1,0,I,1,S,8,L,13,0.756568,0.501304,0.37927
11,133,9,2,2,1,1,C,7,L,1,S,10,0.785097,0.372445,0.292405
11,134,8,1,8,1,1,C,7,L,7,L,9,0.763267,0.329714,0.251659
11,135,8,1,8,2,1,C,7,L,6,S,9,0.782015,0.31526,0.246538
11,136,8,2,1,8,1,I,6,S,7,L,14,0.752097,0.574746,0.432265
11,137,9,1,8,9,1,I,8,L,1,S,10,0.790618,0.374148,0.295808
11,138,1,8,2,9,1,C,7,L,7,L,8,0.298276,0.751721,0.22422
11,139,9,8,9,2,1,C,1,S,7,L,9,0.757658,0.338275,0.256297
11,140,1,2,8,1,1,I,1,S,7,L,21,0.628093,0.772817,0.485401
11,141,1,9,8,9,1,C,8,L,1,S,10,0.334693,0.814073,0.272465
11,142,1,2,1,8,1,C,1,S,7,L,10,0.370825,0.76529,0.283789
11,143,2,9,9,1,1,I,7,L,8,L,16,0.618495,0.757095,0.468259
11,144,1,8,9,2,1,I,7,L,7,L,13,0.561864,0.766258,0.430533
12,1,9,1,8,9,1,I,8,L,1,S,10,0.785347,0.362449,0.284648
12,2,9,2,2,8,1,I,7,L,6,S,10,0.752142,0.409802,0.308229
12,3,9,1,9,1,1,C,8,L,8,L,9,0.806463,0.296562,0.239167
12,4,8,1,2,8,1,I,7,L,6,S,12,0.763944,0.47016,0.359176
12,5,8,9,2,8,1,C,1,S,6,S,11,0.348889,0.819249,0.285827
12,6,9,8,8,2,1,C,1,S,6,S,11,0.773886,0.382519,0.296026
12,7,8,1,2,1,1,C,7,L,1,S,10,0.768192,0.364953,0.280354
12,8,2,9,2,9,1,C,7,L,7,L,9,0.338572,0.752322,0.254715
12,9,8,2,1,9,1,I,6,S,8,L,14,0.750916,0.589676,0.442797
12,10,1,8,9,2,1,I,7,L,7,L,11,0.460529,0.751634,0.346149
12,11,2,8,2,9,1,C,6,S,7,L,10,0.331502,0.805894,0.267156
12,12,1,2,2,9,1,C,1,S,7,L,13,0.431959,0.771355,0.333194
12,13,8,2,8,9,1,I,6,S,1,S,11,0.806147,0.37709,0.30399
12,14,8,9,8,9,1,C,1,S,1,S,12,0.379395,0.809942,0.307288
12,15,1,8,1,8,1,C,7,L,7,L,8,0.291544,0.758276,0.221071
12,16,8,2,8,2,1,C,6,S,6,S,9,0.753651,0.339209,0.255645
12,17,8,1,8,1,1,C,7,L,7,L,10,0.83187,0.313454,0.260753
12,18,2,9,8,1,1,I,7,L,7,L,12,0.472321,0.774074,0.365612
12,19,2,8,1,2,1,C,6,S,1,S,9,0.326044,0.76821,0.25047
12,20,2,9,2,8,1,C,7,L,6,S,10,0.308549,0.839505,0.259028
12,21,8,2,2,1,1,C,6,S,1,S,10,0.78868,0.350641,0.276544
12,22,2,1,9,2,1,C,1,S,7,L,11,0.803227,0.359228,0.288542
12,23,1,8,2,8,1,C,7,L,6,S,9,0.326073,0.77237,0.251849
12,24,2,1,2,9,1,I,1,S,7,L,18,0.76082,0.599669,0.456241
12,25,1,8,2,9,1,C,7,L,7,L,9,0.321233,0.776793,0.249531
12,26,9,1,8,2,1,C,8,L,6,S,9,0.790664,0.310289,0.245335
12,27,2,1,2,8,1,I,1,S,6,S,18,0.767833,0.5923,0.454788
12,28,9,8,1,8,1,I,1,S,7,L,22,0.766046,0.6491,0.497241
12,29,9,1,9,2,1,C,8,L,7,L,9,0.802777,0.299318,0.240286
12,30,9,8,9,2,1,C,1,S,7,L,11,0.792127,0.367492,0.2911
12,31,2,1,8,2,1,C,1,S,6,S,11,0.784987,0.374255,0.293785
12,32,8,1,1,2,1,I,7,L,1,S,14,0.766109,0.558111,0.427574
12,33,8,9,2,1,1,I,1,S,1,S,13,0.454006,0.770429,0.349779
12,34,9,2,9,1,1,C,7,L,8,L,9,0.820092,0.287463,0.235746
12,35,1,8,1,2,1,C,7,L,1,S,9,0.283683,0.826549,0.234478
12,36,1,2,8,1,0,I,1,S,7,L,13,0.76116,0.446971,0.340216
12,37,2,9,1,9,1,C,7,L,8,L,9,0.268895,0.846456,0.227608
12,38,8,9,2,9,1,C,1,S,7,L,11,0.342159,0.82648,0.282788
12,39,1,9,8,2,1,I,8,L,6,S,11,0.421014,0.795894,0.335082
12,40,1,9,2,9,1,C,8,L,7,L,9,0.302749,0.802756,0.243033
12,41,1,9,9,1,1,I,8,L,8,L,11,0.444533,0.777052,0.345425
12,42,2,8,8,2,1,I,6,S,6,S,13,0.501372,0.769748,0.38593
12,43,1,8,8,1,1,I,7,L,7,L,11,0.448337,0.7622,0.341722
12,44,2,8,8,9,1,C,6,S,1,S,11,0.356718,0.815085,0.290756
12,45,9,8,8,1,1,C,1,S,7,L,11,0.779935,0.378058,0.294861
12,46,8,1,1,8,1,I,7,L,7,L,15,0.758361,0.601492,0.456148
12,47,9,1,1,8,1,I,8,L,7,L,13,0.764601,0.555201,0.424507
12,48,1,9,2,1,1,I,8,L,1,S,10,0.361329,0.794165,0.286955
12,49,9,8,2,9,1,I,1,S,7,L,19,0.766051,0.606063,0.464275
12,50,8,2,1,8,1,I,6,S,7,L,14,0.752615,0.588578,0.442972
12,51,9,8,1,2,1,I,1,S,1,S,21,0.767159,0.635768,0.487735
12,52,8,9,9,1,1,I,1,S,8,L,16,0.590662,0.752209,0.444301
12,53,2,9,9,2,1,I,7,L,7,L,12,0.485742,0.762676,0.370464
12,54,1,2,1,9,1,C,1,S,8,L,11,0.377569,0.799828,0.301991
12,55,9,2,1,9,1,I,7,L,8,L,13,0.777669,0.545677,0.424356
12,56,9,1,1,2,1,I,8,L,1,S,12,0.768366,0.502159,0.385842
12,57,2,8,1,9,1,C,6,S,8,L,9,0.293917,0.812588,0.238833
12,58,8,1,9,2,1,C,7,L,7,L,10,0.842238,0.304075,0.256104
12,59,1,8,9,8,1,I,7,L,1,S,10,0.366688,0.7793,0.28576
12,60,9,2,8,1,1,C,7,L,7,L,9,0.808231,0.298142,0.240968
12,61,2,8,9,1,1,I,6,S,8,L,14,0.530292,0.779169,0.413187
12,62,2,1,2,1,1,C,1,S,1,S,12,0.770953,0.405753,0.312816
12,63,8,9,8,1,1,I,1,S,7,L,16,0.572296,0.767911,0.439473
12,64,9,8,1,9,1,I,1,S,8,L,22,0.765481,0.64889,0.496713
12,65,8,1,2,9,1,I,7,L,7,L,12,0.756529,0.478451,0.361962
12,66,1,2,9,1,0,I,1,S,8,L,13,0.781139,0.430736,0.336465
12,67,9,2,1,8,1,I,7,L,7,L,13,0.779513,0.544396,0.424364
12,68,2,1,9,8,1,C,1,S,1,S,13,0.802648,0.398818,0.32011
12,69,9,1,8,1,1,C,8,L,7,L,9,0.794602,0.307242,0.244135
12,70,1,8,8,9,1,C,7,L,1,S,10,0.337096,0.809558,0.272899
12,71,9,2,9,2,1,C,7,L,7,L,9,0.816406,0.290219,0.236936
12,72,8,9,1,8,1,C,1,S,7,L,9,0.334674,0.762031,0.255032
12,73,8,2,9,8,1,C,6,S,1,S,10,0.773808,0.364015,0.281678
12,74,9,1,9,8,1,C,8,L,1,S,10,0.814939,0.332191,0.270715
12,75,8,1,8,2,1,C,7,L,6,S,10,0.826825,0.317247,0.262307
12,76,2,1,1,2,1,I,1,S,1,S,20,0.76042,0.636521,0.484024
12,77,9,8,9,1,1,C,1,S,8,L,11,0.797406,0.363676,0.289998
12,78,1,9,1,8,1,C,8,L,7,L,8,0.275508,0.780614,0.215065
12,79,8,9,1,9,1,C,1,S,8,L,9,0.332599,0.763591,0.253969
12,80,1,2,9,8,1,I,1,S,1,S,30,0.644191,0.75511,0.486435
12,81,1,8,1,9,1,C,7,L,8,L,8,0.28957,0.759672,0.219978
12,82,1,9,1,2,1,C,8,L,1,S,9,0.265199,0.852512,0.226085
12,83,1,2,1,2,1,C,1,S,1,S,12,0.396799,0.799773,0.317349
12,84,8,9,9,2,1,I,1,S,7,L,16,0.585071,0.756556,0.442639
12,85,9,8,9,8,1,C,1,S,1,S,13,0.786367,0.410584,0.322869
12,86,2,1,8,9,1,I,1,S,1,S,14,0.765513,0.465508,0.356352
12,87,9,2,1,2,1,I,7,L,1,S,12,0.783638,0.491351,0.385041
12,88,9,2,2,1,1,C,7,L,1,S,9,0.761137,0.337332,0.256756
12,89,8,2,2,8,1,I,6,S,6,S,12,0.787012,0.453657,0.357034
12,90,1,2,1,8,1,C,1,S,7,L,11,0.379626,0.798271,0.303044
12,91,8,2,8,1,1,C,6,S,7,L,9,0.757589,0.336161,0.254672
12,92,1,9,8,9,1,C,8,L,1,S,9,0.343349,0.756714,0.259817
12,93,8,9,1,2,1,C,1,S,1,S,10,0.333693,0.805123,0.268664
12,94,8,1,9,1,1,C,7,L,8,L,9,0.751716,0.337919,0.254019
12,95,8,1,8,9,1,I,7,L,1,S,11,0.783884,0.392763,0.30788
12,96,2,1,9,1,1,C,1,S,8,L,11,0.808506,0.355413,0.287353
12,97,2,8,2,8,1,C,6,S,6,S,10,0.337345,0.80002,0.269883
12,98,2,8,2,1,1,I,6,S,1,S,11,0.41864,0.754568,0.315893
12,99,1,2,2,1,0,I,1,S,1,S,18,0.771742,0.486495,0.375449
12,100,8,9,9,8,1,I,1,S,1,S,12,0.436016,0.751859,0.327823
12,101,2,9,9,8,1,I,7,L,1,S,10,0.386116,0.751893,0.290318
12,102,2,1,8,1,1,C,1,S,7,L,11,0.791035,0.369795,0.29252
12,103,2,1,1,8,1,I,1,S,7,L,21,0.758469,0.65255,0.494939
12,104,1,9,9,8,1,I,8,L,1,S,10,0.346457,0.807539,0.279777
12,105,9,2,2,9,1,I,7,L,7,L,11,0.79614,0.416076,0.331255
12,106,1,8,8,2,1,I,7,L,6,S,11,0.442289,0.766661,0.339085
12,107,9,8,8,9,1,I,1,S,1,S,15,0.783742,0.467736,0.366585
12,108,1,2,8,9,1,C,1,S,1,S,17,0.450097,0.784691,0.353187
12,109,1,8,9,1,1,I,7,L,8,L,12,0.469961,0.78799,0.370324
12,110,8,1,1,9,1,I,7,L,8,L,15,0.756817,0.602398,0.455905
12,111,2,8,8,1,1,I,6,S,7,L,13,0.508637,0.7644,0.388802
12,112,9,1,2,8,1,I,8,L,6,S,11,0.787596,0.419404,0.330321
12,113,8,1,9,8,1,C,7,L,1,S,10,0.753319,0.378327,0.285001
12,114,8,2,9,2,1,C,6,S,7,L,9,0.765764,0.328238,0.251353
12,115,9,8,2,8,1,I,1,S,6,S,19,0.772562,0.599418,0.463088
12,116,2,9,8,2,1,I,7,L,6,S,12,0.465512,0.779062,0.362663
12,117,2,8,9,2,1,I,6,S,7,L,13,0.52263,0.752549,0.393305
12,118,9,1,2,9,1,I,8,L,7,L,11,0.780866,0.426634,0.333144
12,119,1,9,2,8,1,C,8,L,6,S,9,0.307589,0.798333,0.245559
12,120,1,9,9,2,1,I,8,L,7,L,11,0.439254,0.780868,0.342999
12,121,9,2,9,8,1,C,7,L,1,S,9,0.750637,0.346851,0.260359
12,122,1,8,2,1,1,I,7,L,1,S,10,0.381561,0.765926,0.292247
12,123,1,2,8,2,0,I,1,S,6,S,13,0.753895,0.45232,0.341001
12,124,2,9,2,1,1,I,7,L,1,S,11,0.387095,0.797771,0.308813
12,125,2,8,1,8,1,C,6,S,7,L,9,0.295991,0.811029,0.240057
12,126,8,2,1,2,1,I,6,S,1,S,13,0.758705,0.540278,0.409911
12,127,1,9,1,9,1,C,8,L,8,L,8,0.273534,0.782009,0.213906
12,128,8,2,2,9,1,I,6,S,7,L,12,0.779598,0.461948,0.360134
12,129,2,9,1,2,1,C,7,L,1,S,9,0.301022,0.802078,0.241443
12,130,2,8,9,8,1,I,6,S,1,S,11,0.397974,0.772865,0.30758
12,131,1,2,9,2,0,I,1,S,7,L,13,0.775153,0.435121,0.337285
12,132,9,1,2,1,1,C,8,L,1,S,10,0.829811,0.318817,0.264558
12,133,2,1,1,9,1,I,1,S,8,L,21,0.757792,0.652461,0.49443
12,134,2,9,9,1,1,I,7,L,8,L,12,0.491499,0.758508,0.372806
12,135,2,9,1,8,1,C,7,L,7,L,9,0.27097,0.844896,0.228941
12,136,1,2,2,8,1,C,1,S,6,S,13,0.439812,0.762417,0.33532
12,137,9,1,1,9,1,I,8,L,8,L,13,0.762757,0.556482,0.424461
12,138,2,9,8,9,1,C,7,L,1,S,10,0.356524,0.782151,0.278856
12,139,9,8,2,1,1,C,1,S,1,S,12,0.75713,0.415865,0.314864
12,140,9,2,8,9,1,I,7,L,1,S,10,0.800117,0.352448,0.282
12,141,8,2,9,1,1,C,6,S,8,L,9,0.76945,0.325482,0.250442
12,142,8,9,8,2,1,I,1,S,6,S,16,0.565208,0.773411,0.437138
12,143,9,2,8,2,1,C,7,L,6,S,9,0.804294,0.301189,0.242245
12,144,1,9,8,1,1,I,8,L,7,L,11,0.427062,0.791434,0.337991
13,1,1,9,1,8,1,C,8,L,7,L,9,0.283873,0.821356,0.233161
13,2,9,1,2,1,1,C,8,L,1,S,9,0.826026,0.282349,0.233228
13,3,9,8,1,9,0,I,1,S,8,L,11,0.383759,0.782359,0.300237
13,4,2,8,2,8,1,C,6,S,6,S,9,0.307974,0.793253,0.244302
13,5,2,1,8,2,1,C,1,S,6,S,11,0.789976,0.379417,0.29973
13,6,8,1,9,8,1,C,7,L,1,S,10,0.796477,0.337918,0.269144
13,7,1,2,1,2,1,C,1,S,1,S,11,0.360385,0.803063,0.289412
13,8,1,9,8,9,1,C,8,L,1,S,10,0.350765,0.793242,0.278242
13,9,2,1,9,2,1,C,1,S,7,L,11,0.80693,0.365852,0.295217
13,10,2,9,9,1,1,I,7,L,8,L,15,0.602401,0.766528,0.461757
13,11,8,1,9,2,1,C,7,L,7,L,9,0.801144,0.299916,0.240276
13,12,8,1,1,2,1,I,7,L,1,S,11,0.776742,0.403385,0.313326
13,13,1,2,8,2,1,I,1,S,6,S,16,0.589945,0.769018,0.453678
13,14,8,2,2,8,1,I,6,S,6,S,17,0.766217,0.591608,0.4533
13,15,8,9,9,8,1,I,1,S,1,S,21,0.611406,0.757634,0.463222
13,16,1,8,1,2,1,C,7,L,1,S,9,0.335996,0.758474,0.254844
13,17,1,9,2,9,1,C,8,L,7,L,9,0.298602,0.803669,0.239977
13,18,1,8,9,1,1,I,7,L,8,L,13,0.567407,0.75593,0.42892
13,19,9,8,2,9,0,I,1,S,7,L,12,0.386295,0.803815,0.31051
13,20,2,8,8,9,1,C,6,S,1,S,10,0.350662,0.796808,0.27941
13,21,1,9,1,2,1,C,8,L,1,S,10,0.324417,0.819876,0.265982
13,22,1,9,1,9,1,C,8,L,8,L,9,0.276623,0.832855,0.230387
13,23,8,9,9,2,0,I,1,S,7,L,13,0.761585,0.471172,0.358837
13,24,9,8,2,1,1,C,1,S,1,S,13,0.781809,0.439754,0.343804
13,25,1,8,8,9,1,C,7,L,1,S,10,0.332596,0.81678,0.271658
13,26,2,1,1,2,1,I,1,S,1,S,20,0.769762,0.587644,0.452346
13,27,1,9,9,2,1,I,8,L,7,L,13,0.530564,0.775989,0.411712
13,28,9,1,2,8,1,I,8,L,6,S,11,0.751727,0.461399,0.346846
13,29,1,9,9,1,1,I,8,L,8,L,14,0.585274,0.762162,0.446073
13,30,1,2,1,8,1,C,1,S,7,L,10,0.305916,0.836354,0.255854
13,31,1,8,2,8,1,C,7,L,6,S,9,0.290995,0.811674,0.236193
13,32,8,9,2,8,1,C,1,S,6,S,11,0.402072,0.750096,0.301593
13,33,2,9,2,9,1,C,7,L,7,L,9,0.318522,0.781779,0.249014
13,34,9,2,9,1,1,C,7,L,8,L,9,0.823868,0.28668,0.236187
13,35,1,2,1,9,1,C,1,S,8,L,9,0.334304,0.755066,0.252422
13,36,9,8,1,2,0,I,1,S,1,S,14,0.430908,0.774661,0.333808
13,37,2,8,1,2,1,C,6,S,1,S,10,0.324314,0.823442,0.267054
13,38,2,1,2,8,1,I,1,S,6,S,23,0.759861,0.645473,0.49047
13,39,1,2,9,1,1,I,1,S,8,L,18,0.630145,0.768181,0.484065
13,40,9,8,1,8,0,I,1,S,7,L,11,0.392901,0.768338,0.301881
13,41,8,1,1,9,1,I,7,L,8,L,14,0.767288,0.56027,0.429888
13,42,1,8,1,9,1,C,7,L,8,L,9,0.259903,0.854411,0.222064
13,43,8,9,8,9,1,C,1,S,1,S,15,0.427285,0.79308,0.338871
13,44,9,2,2,9,1,I,7,L,7,L,14,0.757689,0.555805,0.421127
13,45,8,2,9,1,1,C,6,S,8,L,9,0.774513,0.322928,0.250112
13,46,9,8,8,1,1,C,1,S,7,L,11,0.77516,0.404354,0.313439
13,47,2,8,2,1,1,I,6,S,1,S,12,0.509587,0.757406,0.385964
13,48,8,9,1,9,1,C,1,S,8,L,11,0.362318,0.805338,0.291788
13,49,9,1,1,8,1,I,8,L,7,L,12,0.759377,0.508994,0.386518
13,50,8,1,2,9,1,I,7,L,7,L,13,0.766217,0.521638,0.399688
13,51,2,9,9,2,1,I,7,L,7,L,13,0.553209,0.750862,0.415384
13,52,1,2,2,8,1,C,1,S,6,S,10,0.333611,0.799278,0.266648
13,53,9,1,9,1,1,C,8,L,8,L,8,0.777132,0.27631,0.21473
13,54,2,8,8,1,1,I,6,S,7,L,14,0.576627,0.773257,0.445881
13,55,1,9,2,1,1,I,8,L,1,S,12,0.510368,0.753225,0.384422
13,56,9,2,9,2,1,C,7,L,7,L,9,0.771892,0.324975,0.250846
13,57,8,1,8,9,1,I,7,L,1,S,11,0.812202,0.366052,0.297308
13,58,9,2,8,2,1,C,7,L,6,S,9,0.758092,0.33632,0.254961
13,59,1,2,9,2,1,I,1,S,7,L,16,0.604341,0.756427,0.457139
13,60,9,2,8,1,1,C,7,L,7,L,9,0.815662,0.293463,0.239366
13,61,1,2,8,1,1,I,1,S,7,L,18,0.624975,0.773212,0.483238
13,62,2,1,1,9,0,I,1,S,8,L,13,0.475613,0.762425,0.362619
13,63,2,1,9,1,1,C,1,S,8,L,10,0.795475,0.349996,0.278413
13,64,8,9,9,1,0,I,1,S,8,L,11,0.762259,0.420148,0.320262
13,65,1,2,2,1,1,I,1,S,1,S,16,0.589522,0.766742,0.452011
13,66,1,8,1,8,1,C,7,L,7,L,9,0.267154,0.842912,0.225187
13,67,1,9,9,8,1,I,8,L,1,S,11,0.391412,0.799961,0.313115
13,68,2,9,8,2,1,I,7,L,6,S,13,0.536101,0.764898,0.410062
13,69,9,8,2,8,0,I,1,S,6,S,12,0.399981,0.783765,0.313491
13,70,8,1,1,8,1,I,7,L,7,L,14,0.777145,0.546221,0.424493
13,71,2,9,1,8,1,C,7,L,7,L,9,0.303793,0.799466,0.242872
13,72,2,9,8,9,1,C,7,L,1,S,10,0.372452,0.768723,0.286312
13,73,8,2,8,9,1,I,6,S,1,S,12,0.752942,0.431559,0.324939
13,74,9,2,2,8,1,I,7,L,6,S,14,0.772328,0.535219,0.413364
13,75,2,9,1,2,1,C,7,L,1,S,10,0.346104,0.795357,0.275276
13,76,8,1,9,1,1,C,7,L,8,L,9,0.85312,0.26162,0.223194
13,77,2,1,2,1,1,C,1,S,1,S,11,0.791279,0.375444,0.297081
13,78,8,2,9,8,1,C,6,S,1,S,11,0.769928,0.38309,0.294952
13,79,8,9,1,2,1,C,1,S,1,S,13,0.423811,0.765465,0.324412
13,80,2,8,8,2,1,I,6,S,6,S,12,0.508481,0.761155,0.387032
13,81,2,9,1,9,1,C,7,L,8,L,9,0.296543,0.810964,0.240486
13,82,8,2,2,1,1,C,6,S,1,S,10,0.79378,0.338909,0.269019
13,83,9,8,8,2,1,C,1,S,6,S,13,0.781014,0.443191,0.346138
13,84,2,8,9,2,1,I,6,S,7,L,13,0.529501,0.780361,0.413202
13,85,8,2,1,8,1,I,6,S,7,L,18,0.761048,0.618836,0.470963
13,86,2,1,2,9,0,I,1,S,7,L,16,0.555144,0.75015,0.416442
13,87,8,2,1,2,1,I,6,S,1,S,14,0.782026,0.471804,0.368963
13,88,1,9,8,1,1,I,8,L,7,L,14,0.577927,0.768752,0.444283
13,89,8,9,2,1,0,I,1,S,1,S,14,0.76197,0.491714,0.374671
13,90,9,1,8,1,1,C,8,L,7,L,8,0.769709,0.282537,0.217471
