ANN,trial,N1,N2,P1,P2,Succ.,Cong,Ndist,Ndist,Pdist,Pdist,rt,a1,a2,x_acc
1,1,8,1,9,2,1,C,7,L,7,L,10,0.83996,0.308375,0.259023
1,2,9,1,9,2,1,C,8,L,7,L,9,0.815903,0.295605,0.241185
1,3,2,1,8,1,1,C,1,S,7,L,9,0.7556,0.340316,0.257142
1,4,9,2,8,1,1,C,7,L,7,L,9,0.810169,0.301022,0.243879
1,5,1,9,9,8,1,I,8,L,1,S,13,0.466244,0.772146,0.360009
1,6,2,8,1,8,1,C,6,S,7,L,10,0.335565,0.80599,0.270462
1,7,1,8,1,8,1,C,7,L,7,L,9,0.340457,0.755526,0.257224
1,8,1,2,8,1,0,I,1,S,7,L,11,0.781034,0.391651,0.305893
1,9,8,2,9,8,1,C,6,S,1,S,11,0.78134,0.383479,0.299627
1,10,8,1,2,9,1,I,7,L,7,L,14,0.756848,0.569049,0.430684
1,11,8,9,9,2,0,I,1,S,7,L,15,0.762667,0.505928,0.385855
1,12,2,1,9,8,1,C,1,S,1,S,11,0.825241,0.351039,0.289692
1,13,8,1,2,8,1,I,7,L,6,S,14,0.771959,0.549006,0.42381
1,14,8,9,1,8,1,C,1,S,7,L,12,0.388486,0.804823,0.312662
1,15,9,8,2,1,1,C,1,S,1,S,16,0.795762,0.433989,0.345352
1,16,2,1,9,2,1,C,1,S,7,L,10,0.815997,0.327261,0.267044
1,17,1,2,1,2,0,C,1,S,1,S,22,0.766133,0.614205,0.470562
1,18,9,8,1,9,0,I,1,S,8,L,13,0.458859,0.769081,0.3529
1,19,9,2,1,8,1,I,7,L,7,L,12,0.77122,0.489371,0.377413
1,20,9,2,2,8,1,I,7,L,6,S,12,0.752594,0.512005,0.385332
1,21,2,8,8,2,1,I,6,S,6,S,14,0.531013,0.765975,0.406743
1,22,9,1,1,8,1,I,8,L,7,L,11,0.772113,0.454179,0.350677
1,23,2,9,9,8,1,I,7,L,1,S,16,0.541775,0.755674,0.409405
1,24,2,1,2,9,1,I,1,S,7,L,15,0.756957,0.589727,0.446398
1,25,9,2,8,9,1,I,7,L,1,S,10,0.759513,0.388383,0.294982
1,26,2,8,9,8,1,I,6,S,1,S,12,0.448155,0.761952,0.341473
1,27,8,1,9,8,1,C,7,L,1,S,10,0.771643,0.365107,0.281732
1,28,9,8,2,9,0,I,1,S,7,L,12,0.447194,0.755449,0.337832
1,29,9,2,1,2,1,I,7,L,1,S,11,0.801946,0.391772,0.31418
1,30,1,2,9,1,0,I,1,S,8,L,11,0.79573,0.381392,0.303485
1,31,1,8,9,8,1,I,7,L,1,S,11,0.418871,0.766506,0.321068
1,32,2,9,8,1,1,I,7,L,7,L,21,0.644193,0.762996,0.491517
1,33,9,2,9,8,1,C,7,L,1,S,10,0.811647,0.338337,0.27461
1,34,8,2,1,8,1,I,6,S,7,L,16,0.766362,0.585116,0.448411
1,35,8,2,1,9,1,I,6,S,8,L,17,0.773154,0.602117,0.465529
1,36,8,1,9,1,1,C,7,L,8,L,9,0.78752,0.31584,0.24873
1,37,1,8,2,8,1,C,7,L,6,S,9,0.3266,0.771201,0.251874
1,38,1,8,9,1,1,I,7,L,8,L,14,0.571916,0.760208,0.434776
1,39,9,1,8,2,1,C,8,L,6,S,9,0.801026,0.306642,0.245629
1,40,9,2,2,1,1,C,7,L,1,S,10,0.783119,0.362667,0.284012
1,41,2,9,1,2,1,C,7,L,1,S,12,0.414809,0.763872,0.316861
1,42,2,9,8,2,1,I,7,L,6,S,19,0.621509,0.754319,0.468816
1,43,9,1,9,8,1,C,8,L,1,S,9,0.764505,0.340162,0.260056
1,44,8,2,1,2,1,I,6,S,1,S,13,0.773433,0.460418,0.356102
1,45,1,2,2,1,0,I,1,S,1,S,15,0.768897,0.452631,0.348027
1,46,2,8,8,9,1,C,6,S,1,S,11,0.382939,0.784732,0.300504
1,47,8,2,2,8,1,I,6,S,6,S,17,0.773925,0.598913,0.463514
1,48,8,2,8,1,1,C,6,S,7,L,10,0.813864,0.330752,0.269187
1,49,1,8,9,2,1,I,7,L,7,L,13,0.513833,0.771342,0.396341
1,50,1,9,8,2,1,I,8,L,6,S,15,0.557081,0.762615,0.424839
1,51,8,1,1,8,1,I,7,L,7,L,13,0.760478,0.524587,0.398937
1,52,8,2,8,2,1,C,6,S,6,S,10,0.759931,0.36889,0.280331
1,53,8,9,2,1,1,I,1,S,1,S,18,0.492803,0.780268,0.384518
1,54,2,9,2,9,1,C,7,L,7,L,10,0.373721,0.759762,0.283939
1,55,8,9,2,8,1,C,1,S,6,S,11,0.398561,0.764574,0.30473
1,56,1,2,2,9,1,C,1,S,7,L,13,0.458115,0.777904,0.35637
1,57,1,2,9,2,0,I,1,S,7,L,12,0.802619,0.392092,0.314701
1,58,2,1,1,8,1,I,1,S,7,L,14,0.762442,0.549363,0.418857
1,59,2,8,1,9,1,C,6,S,8,L,10,0.320435,0.826813,0.264939
1,60,2,1,8,9,1,I,1,S,1,S,11,0.752525,0.420277,0.316269
1,61,9,8,9,2,1,C,1,S,7,L,12,0.791559,0.398475,0.315417
1,62,9,8,8,1,1,C,1,S,7,L,11,0.772634,0.395861,0.305855
1,63,8,9,1,9,1,C,1,S,8,L,11,0.399193,0.766715,0.306067
1,64,1,9,8,9,1,C,8,L,1,S,11,0.405247,0.757112,0.306817
1,65,2,8,2,8,1,C,6,S,6,S,10,0.319542,0.824954,0.263607
1,66,9,8,2,8,0,I,1,S,6,S,13,0.458777,0.766452,0.351631
1,67,9,8,9,1,1,C,1,S,8,L,11,0.78733,0.385601,0.303595
1,68,9,2,2,9,1,I,7,L,7,L,13,0.771479,0.536091,0.413583
1,69,2,8,2,1,1,I,6,S,1,S,12,0.394871,0.806512,0.318468
1,70,1,2,1,9,1,C,1,S,8,L,13,0.473353,0.759993,0.359745
1,71,1,8,8,1,1,I,7,L,7,L,14,0.557357,0.771036,0.429742
1,72,1,9,2,1,1,I,8,L,1,S,12,0.419258,0.775888,0.325297
1,73,9,2,8,2,1,C,7,L,6,S,9,0.765704,0.332832,0.254851
1,74,9,1,2,9,1,I,8,L,7,L,12,0.77857,0.501383,0.390362
1,75,9,1,8,1,1,C,8,L,7,L,9,0.84549,0.274833,0.232369
1,76,8,9,8,2,1,I,1,S,6,S,24,0.654763,0.750056,0.491109
1,77,2,8,9,1,1,I,6,S,8,L,16,0.605786,0.76079,0.460876
1,78,8,2,9,2,1,C,6,S,7,L,10,0.778631,0.355306,0.276652
1,79,2,8,9,2,1,I,6,S,7,L,15,0.556575,0.775116,0.43141
1,80,2,1,1,9,1,I,1,S,8,L,15,0.771331,0.573518,0.442372
1,81,2,9,2,1,1,I,7,L,1,S,14,0.454432,0.769978,0.349903
1,82,1,9,2,9,1,C,8,L,7,L,10,0.326217,0.819652,0.267384
1,83,9,1,2,1,1,C,8,L,1,S,10,0.822034,0.333836,0.274424
1,84,1,9,8,1,1,I,8,L,7,L,17,0.610823,0.766339,0.468098
1,85,2,9,1,9,1,C,7,L,8,L,11,0.355454,0.819291,0.29122
1,86,1,2,9,8,0,I,1,S,1,S,13,0.752177,0.445963,0.335443
1,87,8,1,8,1,1,C,7,L,7,L,9,0.775504,0.324108,0.251347
1,88,1,8,8,9,1,C,7,L,1,S,10,0.375789,0.761727,0.286248
1,89,9,2,9,1,1,C,7,L,8,L,9,0.822184,0.292754,0.240698
1,90,9,2,1,9,1,I,7,L,8,L,12,0.752948,0.514408,0.387322
1,91,1,8,1,9,1,C,7,L,8,L,9,0.327712,0.772781,0.253249
1,92,9,2,9,2,1,C,7,L,7,L,9,0.780582,0.321795,0.251187
1,93,9,8,1,2,1,I,1,S,1,S,23,0.753293,0.630045,0.474609
1,94,1,9,9,1,1,I,8,L,8,L,17,0.623105,0.756692,0.471498
1,95,2,1,9,1,1,C,1,S,8,L,9,0.767615,0.332048,0.254885
1,96,9,8,9,8,1,C,1,S,1,S,14,0.792365,0.422964,0.335142
1,97,9,8,8,2,1,C,1,S,6,S,12,0.767234,0.415949,0.31913
1,98,1,2,8,9,0,C,1,S,1,S,19,0.752051,0.563475,0.423762
1,99,1,9,2,8,1,C,8,L,6,S,10,0.339026,0.801604,0.271765
1,100,9,1,8,9,1,I,8,L,1,S,10,0.798428,0.359552,0.287076
1,101,2,1,8,2,1,C,1,S,6,S,10,0.797298,0.340846,0.271755
1,102,8,9,8,9,1,C,1,S,1,S,14,0.452543,0.75313,0.340824
1,103,9,8,8,9,1,I,1,S,1,S,21,0.76086,0.582951,0.443544
1,104,2,9,2,8,1,C,7,L,6,S,11,0.354822,0.81715,0.289943
1,105,1,9,1,8,1,C,8,L,7,L,10,0.355049,0.78264,0.277876
1,106,8,2,2,9,1,I,6,S,7,L,17,0.760394,0.615845,0.468285
1,107,2,9,9,2,1,I,7,L,7,L,20,0.629829,0.762348,0.480149
1,108,1,2,2,8,1,C,1,S,6,S,13,0.473271,0.757364,0.358438
1,109,1,2,8,2,0,I,1,S,6,S,12,0.778294,0.409566,0.318763
1,110,9,8,1,8,0,I,1,S,7,L,14,0.477303,0.7685,0.366807
1,111,8,9,9,8,1,I,1,S,1,S,22,0.622169,0.757523,0.471307
1,112,8,2,9,1,1,C,6,S,8,L,10,0.827549,0.321314,0.265904
1,113,1,8,1,2,1,C,7,L,1,S,10,0.36003,0.777325,0.27986
1,114,2,8,2,9,1,C,6,S,7,L,10,0.306732,0.843002,0.258576
1,115,9,1,2,8,1,I,8,L,6,S,11,0.754479,0.475518,0.358769
1,116,9,1,9,1,1,C,8,L,8,L,9,0.857506,0.266565,0.228581
1,117,2,1,2,8,1,I,1,S,6,S,15,0.771731,0.570544,0.440306
1,118,8,2,2,1,1,C,6,S,1,S,12,0.805033,0.388994,0.313153
1,119,2,8,8,1,1,I,6,S,7,L,16,0.592669,0.770936,0.45691
1,120,1,9,9,2,1,I,8,L,7,L,16,0.579565,0.770233,0.4464
1,121,8,1,2,1,1,C,7,L,1,S,11,0.81273,0.363565,0.29548
1,122,8,9,1,2,1,C,1,S,1,S,14,0.411585,0.802236,0.330188
1,123,8,9,2,9,1,C,1,S,7,L,11,0.384501,0.784283,0.301557
1,124,1,8,8,2,1,I,7,L,6,S,12,0.485981,0.754065,0.366461
1,125,8,1,8,9,1,I,7,L,1,S,11,0.77943,0.399361,0.311274
1,126,1,8,2,1,1,I,7,L,1,S,11,0.379455,0.799949,0.303544
1,127,8,1,8,2,1,C,7,L,6,S,10,0.82126,0.32196,0.264413
1,128,1,9,1,2,1,C,8,L,1,S,11,0.384288,0.779008,0.299364
1,129,2,9,1,8,1,C,7,L,7,L,11,0.372456,0.79581,0.296404
1,130,8,9,8,1,0,I,1,S,7,L,13,0.769656,0.461713,0.35536
1,131,2,1,2,1,1,C,1,S,1,S,11,0.785825,0.384482,0.302135
1,132,2,9,8,9,1,C,7,L,1,S,13,0.410262,0.793691,0.325621
1,133,8,1,1,9,1,I,7,L,8,L,14,0.771787,0.551825,0.425891
1,134,2,1,1,2,1,I,1,S,1,S,12,0.780283,0.432302,0.337318
1,135,8,1,1,2,1,I,7,L,1,S,11,0.758472,0.421257,0.319512
1,136,1,9,1,9,1,C,8,L,8,L,10,0.339919,0.803462,0.273112
1,137,9,1,1,2,1,I,8,L,1,S,10,0.782669,0.37515,0.293618
1,138,2,8,1,2,1,C,6,S,1,S,11,0.36198,0.806629,0.291984
1,139,2,9,9,1,1,I,7,L,8,L,21,0.653333,0.755604,0.493661
1,140,8,2,8,9,1,I,6,S,1,S,12,0.758889,0.43826,0.332591
1,141,1,8,2,9,1,C,7,L,7,L,9,0.315503,0.786721,0.248213
1,142,9,1,1,9,1,I,8,L,8,L,11,0.755111,0.477659,0.360686
1,143,8,9,9,1,0,I,1,S,8,L,12,0.756143,0.45075,0.340831
1,144,1,2,1,8,1,C,1,S,7,L,14,0.496024,0.756234,0.37511
2,1,1,9,8,9,1,C,8,L,1,S,10,0.35285,0.775528,0.273645
2,2,8,2,8,2,1,C,6,S,6,S,12,0.788802,0.398107,0.314028
2,3,1,2,1,8,1,C,1,S,7,L,11,0.367383,0.795834,0.292376
2,4,1,9,9,1,1,I,8,L,8,L,16,0.586732,0.760312,0.4461
2,5,8,1,9,1,1,C,7,L,8,L,10,0.767808,0.361531,0.277586
2,6,8,1,9,8,1,C,7,L,1,S,16,0.769709,0.563555,0.433773
2,7,1,8,8,1,1,I,7,L,7,L,13,0.515784,0.773134,0.39877
2,8,9,2,8,2,1,C,7,L,6,S,11,0.819766,0.359597,0.294785
2,9,1,8,9,1,1,I,7,L,8,L,13,0.505639,0.781178,0.394994
2,10,8,1,8,9,1,I,7,L,1,S,17,0.768741,0.590544,0.453975
2,11,8,1,1,9,1,I,7,L,8,L,18,0.750491,0.631991,0.474303
2,12,8,2,2,1,1,C,6,S,1,S,11,0.797118,0.366815,0.292395
2,13,2,9,1,8,1,C,7,L,7,L,11,0.392094,0.772321,0.302822
2,14,9,1,1,9,1,I,8,L,8,L,15,0.770355,0.581307,0.447813
2,15,8,1,1,8,1,I,7,L,7,L,18,0.765605,0.614269,0.470287
2,16,2,9,2,9,1,C,7,L,7,L,11,0.391399,0.774411,0.303104
2,17,2,9,9,2,1,I,7,L,7,L,18,0.4914,0.778838,0.382721
2,18,9,8,9,2,0,C,1,S,7,L,17,0.499949,0.754569,0.377246
2,19,2,1,1,9,1,I,1,S,8,L,20,0.750578,0.646599,0.485323
2,20,1,9,1,8,1,C,8,L,7,L,10,0.327061,0.808525,0.264437
2,21,9,2,1,8,1,I,7,L,7,L,14,0.752688,0.569071,0.428333
2,22,2,9,2,1,1,I,7,L,1,S,25,0.640024,0.770471,0.49312
2,23,9,1,9,1,1,C,8,L,8,L,10,0.84347,0.307696,0.259532
2,24,1,8,1,9,1,C,7,L,8,L,9,0.2897,0.810661,0.234848
2,25,1,2,9,8,1,I,1,S,1,S,12,0.387397,0.795975,0.308358
2,26,9,2,8,9,1,I,7,L,1,S,13,0.75241,0.528828,0.397895
2,27,1,8,2,9,1,C,7,L,7,L,9,0.304356,0.792433,0.241181
2,28,9,2,2,9,1,I,7,L,7,L,14,0.751637,0.571423,0.429503
2,29,1,8,1,8,1,C,7,L,7,L,9,0.304682,0.790815,0.240947
2,30,9,1,2,1,1,C,8,L,1,S,10,0.808144,0.333471,0.269493
2,31,1,9,1,2,1,C,8,L,1,S,11,0.337778,0.829503,0.280188
2,32,2,9,8,9,1,C,7,L,1,S,12,0.394402,0.795205,0.31363
2,33,9,8,8,9,0,I,1,S,1,S,12,0.393145,0.797732,0.313624
2,34,1,2,2,9,1,C,1,S,7,L,11,0.366688,0.797923,0.292589
2,35,8,9,8,9,1,C,1,S,1,S,13,0.446303,0.767505,0.34254
2,36,2,1,2,8,1,I,1,S,6,S,19,0.757975,0.62397,0.472953
2,37,9,2,2,8,1,I,7,L,6,S,14,0.77647,0.539742,0.419094
2,38,8,2,9,2,1,C,6,S,7,L,12,0.764315,0.421095,0.321849
2,39,2,1,9,2,1,C,1,S,7,L,13,0.79158,0.412763,0.326734
2,40,1,2,8,1,1,I,1,S,7,L,23,0.646854,0.760839,0.492152
2,41,2,8,2,1,1,I,6,S,1,S,14,0.520008,0.76922,0.400001
2,42,9,1,2,9,1,I,8,L,7,L,14,0.759607,0.563088,0.427726
2,43,8,9,1,2,1,C,1,S,1,S,14,0.465892,0.76,0.354078
2,44,1,2,1,9,1,C,1,S,8,L,10,0.376814,0.750098,0.282648
2,45,1,9,8,1,1,I,8,L,7,L,16,0.595765,0.752719,0.448443
2,46,9,8,1,2,0,I,1,S,1,S,12,0.421268,0.759528,0.319965
2,47,2,1,1,2,1,I,1,S,1,S,18,0.768309,0.591033,0.454096
2,48,9,1,8,2,1,C,8,L,6,S,10,0.753887,0.380961,0.287202
2,49,2,8,9,1,1,I,6,S,8,L,15,0.570501,0.760056,0.433612
2,50,1,8,1,2,1,C,7,L,1,S,10,0.310196,0.831478,0.257921
2,51,1,8,2,1,1,I,7,L,1,S,12,0.454531,0.781065,0.355018
2,52,1,9,8,2,1,I,8,L,6,S,12,0.440479,0.752707,0.331552
2,53,9,8,2,9,0,I,1,S,7,L,11,0.390613,0.776352,0.303253
2,54,8,2,2,8,1,I,6,S,6,S,18,0.768939,0.607448,0.46709
2,55,8,1,1,2,1,I,7,L,1,S,16,0.774542,0.555651,0.430375
2,56,8,2,8,1,1,C,6,S,7,L,10,0.764534,0.366876,0.280489
2,57,1,9,2,8,1,C,8,L,6,S,10,0.347348,0.782962,0.27196
2,58,8,2,8,9,1,I,6,S,1,S,17,0.750998,0.60692,0.455795
2,59,9,8,1,8,0,I,1,S,7,L,11,0.391307,0.774263,0.302975
2,60,8,9,2,1,0,I,1,S,1,S,13,0.775281,0.429063,0.332644
2,61,9,8,2,1,0,C,1,S,1,S,24,0.651142,0.754272,0.491138
2,62,2,8,8,2,1,I,6,S,6,S,12,0.423969,0.776848,0.32936
2,63,8,1,2,8,1,I,7,L,6,S,17,0.762094,0.598807,0.456347
2,64,2,8,8,1,1,I,6,S,7,L,15,0.580091,0.752165,0.436324
2,65,8,1,9,2,1,C,7,L,7,L,12,0.781375,0.405527,0.316869
2,66,9,2,1,2,1,I,7,L,1,S,13,0.782511,0.48813,0.381967
2,67,8,9,8,2,0,I,1,S,6,S,16,0.784927,0.445773,0.349899
2,68,9,1,9,2,1,C,8,L,7,L,11,0.810352,0.368162,0.298341
2,69,9,1,8,9,1,I,8,L,1,S,13,0.760797,0.520224,0.395785
2,70,9,2,9,2,1,C,7,L,7,L,11,0.802145,0.376637,0.302117
2,71,1,2,9,2,1,I,1,S,7,L,15,0.475482,0.753146,0.358107
2,72,1,9,2,1,1,I,8,L,1,S,15,0.539237,0.771591,0.416071
2,73,2,1,1,8,1,I,1,S,7,L,20,0.763606,0.631687,0.48236
2,74,2,1,9,1,1,C,1,S,8,L,11,0.815113,0.352959,0.287701
2,75,9,2,9,8,1,C,7,L,1,S,13,0.778494,0.495476,0.385725
2,76,9,8,2,8,0,I,1,S,6,S,12,0.386362,0.806973,0.311784
2,77,9,8,8,2,0,C,1,S,6,S,20,0.580462,0.756001,0.43883
2,78,9,2,8,1,1,C,7,L,7,L,10,0.844275,0.309097,0.260963
2,79,2,9,9,8,1,I,7,L,1,S,12,0.419053,0.763662,0.320015
2,80,2,9,1,9,1,C,7,L,8,L,11,0.374086,0.796346,0.297902
2,81,1,8,2,8,1,C,7,L,6,S,9,0.32231,0.769294,0.247951
2,82,1,2,9,1,1,I,1,S,8,L,23,0.642179,0.76526,0.491434
2,83,9,1,9,8,1,C,8,L,1,S,12,0.750636,0.485076,0.364115
2,84,8,9,9,8,1,I,1,S,1,S,14,0.461467,0.767763,0.354297
2,85,8,1,8,1,1,C,7,L,7,L,10,0.776049,0.354943,0.275453
2,86,2,9,8,1,0,I,7,L,7,L,14,0.772286,0.477397,0.368687
2,87,9,8,8,1,1,C,1,S,7,L,14,0.769758,0.481599,0.370714
2,88,8,2,1,2,1,I,6,S,1,S,16,0.755666,0.57269,0.432762
2,89,8,2,9,1,1,C,6,S,8,L,10,0.756293,0.373464,0.282448
2,90,2,8,1,8,1,C,6,S,7,L,10,0.314692,0.826634,0.260135
2,91,2,8,2,9,1,C,6,S,7,L,10,0.314173,0.828516,0.260298
2,92,2,8,9,8,1,I,6,S,1,S,10,0.359882,0.769879,0.277066
2,93,9,8,9,1,1,C,1,S,8,L,14,0.759768,0.489654,0.372023
2,94,1,9,2,9,1,C,8,L,7,L,10,0.326543,0.810407,0.264633
2,95,2,1,2,1,1,C,1,S,1,S,11,0.773155,0.383202,0.296274
2,96,8,9,8,1,0,I,1,S,7,L,12,0.783177,0.409878,0.321007
2,97,1,2,8,9,1,C,1,S,1,S,11,0.395874,0.758931,0.300441
2,98,1,2,8,2,1,I,1,S,6,S,17,0.525706,0.759395,0.399218
2,99,9,2,2,1,1,C,7,L,1,S,10,0.800707,0.341461,0.27341
2,100,8,9,1,9,1,C,1,S,8,L,12,0.40871,0.792724,0.323994
2,101,9,8,9,8,0,C,1,S,1,S,12,0.417796,0.766189,0.320111
2,102,2,9,2,8,1,C,7,L,6,S,12,0.387619,0.804446,0.311819
2,103,2,9,9,1,0,I,7,L,8,L,14,0.762296,0.485452,0.370058
2,104,9,2,1,9,1,I,7,L,8,L,15,0.763002,0.589223,0.449578
2,105,8,9,2,8,1,C,1,S,6,S,13,0.439211,0.777052,0.34129
2,106,9,8,1,9,0,I,1,S,8,L,11,0.373299,0.798288,0.298
2,107,8,2,9,8,1,C,6,S,1,S,16,0.750832,0.580594,0.435929
2,108,2,1,9,8,1,C,1,S,1,S,18,0.763501,0.598503,0.456958
2,109,1,2,1,2,1,C,1,S,1,S,12,0.390869,0.789313,0.308518
2,110,1,2,2,1,1,I,1,S,1,S,22,0.62648,0.768152,0.481232
2,111,2,1,8,2,1,C,1,S,6,S,12,0.759791,0.417904,0.317519
2,112,8,1,2,1,1,C,7,L,1,S,11,0.811645,0.352879,0.286413
2,113,8,9,9,1,0,I,1,S,8,L,12,0.773225,0.417689,0.322968
2,114,8,2,2,9,1,I,6,S,7,L,19,0.771997,0.621096,0.479484
2,115,2,1,2,9,1,I,1,S,7,L,20,0.762454,0.633851,0.483282
2,116,8,1,2,9,1,I,7,L,7,L,18,0.764433,0.616526,0.471293
2,117,2,8,8,9,1,C,6,S,1,S,10,0.34048,0.793638,0.270218
2,118,2,8,9,2,1,I,6,S,7,L,12,0.399483,0.799836,0.319521
2,119,2,8,1,9,1,C,6,S,8,L,9,0.334292,0.755296,0.252489
2,120,1,8,8,9,1,C,7,L,1,S,9,0.326895,0.763248,0.249502
2,121,1,9,1,9,1,C,8,L,8,L,10,0.310266,0.831018,0.257837
2,122,8,9,9,2,0,I,1,S,7,L,17,0.751414,0.477513,0.35881
2,123,9,1,2,8,1,I,8,L,6,S,13,0.753704,0.529771,0.399291
2,124,2,9,8,2,1,I,7,L,6,S,21,0.58158,0.770643,0.448191
2,125,9,1,8,1,1,C,8,L,7,L,9,0.755555,0.339026,0.256153
2,126,9,2,9,1,1,C,7,L,8,L,10,0.836033,0.315685,0.263923
2,127,1,2,2,8,1,C,1,S,6,S,11,0.389624,0.767466,0.299023
2,128,1,9,9,2,1,I,8,L,7,L,12,0.415993,0.775694,0.322683
2,129,2,1,8,1,1,C,1,S,7,L,11,0.82444,0.34563,0.284951
2,130,8,2,1,8,1,I,6,S,7,L,19,0.773163,0.618885,0.478499
2,131,2,1,8,9,1,I,1,S,1,S,19,0.763873,0.616883,0.47122
2,132,9,1,1,8,1,I,8,L,7,L,14,0.760658,0.560736,0.426528
2,133,8,9,1,8,1,C,1,S,7,L,12,0.427351,0.768192,0.328287
2,134,1,9,9,8,1,I,8,L,1,S,10,0.372252,0.75177,0.279848
2,135,8,9,2,9,1,C,1,S,7,L,12,0.426507,0.770424,0.328591
2,136,1,8,8,2,1,I,7,L,6,S,11,0.381182,0.799757,0.304853
2,137,1,8,9,2,1,I,7,L,7,L,10,0.38458,0.751433,0.288987
2,138,2,8,2,8,1,C,6,S,6,S,10,0.334978,0.801071,0.268342
2,139,8,2,1,9,1,I,6,S,8,L,19,0.759097,0.635161,0.482149
2,140,8,1,8,2,1,C,7,L,6,S,12,0.805862,0.38254,0.308274
2,141,2,8,1,2,1,C,6,S,1,S,10,0.361989,0.765174,0.276985
2,142,1,8,9,8,1,I,7,L,1,S,10,0.308089,0.836184,0.257619
2,143,2,9,1,2,1,C,7,L,1,S,12,0.422525,0.757001,0.319852
2,144,9,1,1,2,1,I,8,L,1,S,12,0.754108,0.478415,0.360776
3,1,2,8,9,2,1,I,6,S,7,L,17,0.591978,0.773313,0.457784
3,2,2,9,9,8,1,I,7,L,1,S,12,0.424174,0.758364,0.321679
3,3,1,9,1,2,1,C,8,L,1,S,11,0.40276,0.762229,0.306995
3,4,1,8,9,2,1,I,7,L,7,L,14,0.540204,0.770819,0.416399
3,5,8,1,9,2,1,C,7,L,7,L,9,0.764591,0.331175,0.253214
3,6,9,1,1,2,1,I,8,L,1,S,11,0.792082,0.383076,0.303428
3,7,2,1,8,2,1,C,1,S,6,S,15,0.769795,0.485375,0.373639
3,8,8,2,8,2,1,C,6,S,6,S,9,0.770112,0.326253,0.251251
3,9,9,8,8,1,1,C,1,S,7,L,11,0.791792,0.370686,0.293506
3,10,1,8,2,9,1,C,7,L,7,L,10,0.343945,0.79206,0.272425
3,11,8,2,8,9,1,I,6,S,1,S,11,0.805725,0.389436,0.313779
3,12,2,1,1,2,0,I,1,S,1,S,17,0.472408,0.762444,0.360184
3,13,2,8,9,8,1,I,6,S,1,S,12,0.393723,0.798815,0.314512
3,14,9,1,9,8,1,C,8,L,1,S,11,0.778816,0.398833,0.310617
3,15,2,8,8,9,1,C,6,S,1,S,11,0.387844,0.773451,0.299978
3,16,8,9,8,1,0,I,1,S,7,L,10,0.772851,0.358757,0.277266
3,17,8,2,2,1,1,C,6,S,1,S,10,0.81757,0.327137,0.267457
3,18,9,8,9,1,1,C,1,S,8,L,11,0.829468,0.341864,0.283565
3,19,8,2,9,8,1,C,6,S,1,S,10,0.775014,0.371718,0.288087
3,20,8,9,2,1,0,I,1,S,1,S,11,0.811538,0.355984,0.288894
3,21,8,9,9,2,0,I,1,S,7,L,10,0.812916,0.326694,0.265575
3,22,2,1,2,9,0,I,1,S,7,L,13,0.416527,0.790737,0.329363
3,23,1,2,9,1,0,I,1,S,8,L,14,0.758139,0.481496,0.365041
3,24,2,9,2,1,1,I,7,L,1,S,15,0.493648,0.780709,0.385396
3,25,2,1,9,1,1,C,1,S,8,L,14,0.776533,0.465409,0.361405
3,26,1,8,2,1,1,I,7,L,1,S,12,0.420373,0.791823,0.332861
3,27,1,2,1,9,1,C,1,S,8,L,12,0.391995,0.800912,0.313954
3,28,2,9,1,9,1,C,7,L,8,L,11,0.344861,0.829816,0.286171
3,29,1,8,8,9,1,C,7,L,1,S,10,0.371756,0.760699,0.282795
3,30,1,2,1,8,1,C,1,S,7,L,11,0.411524,0.751485,0.309254
3,31,8,1,8,2,1,C,7,L,6,S,10,0.832829,0.314889,0.262248
3,32,9,1,2,9,1,I,8,L,7,L,12,0.751448,0.479222,0.36011
3,33,1,2,8,2,0,I,1,S,6,S,16,0.759578,0.515467,0.391537
3,34,1,9,9,8,1,I,8,L,1,S,11,0.389494,0.777986,0.303021
3,35,2,9,8,9,1,C,7,L,1,S,12,0.379329,0.809784,0.307175
3,36,2,1,1,8,0,I,1,S,7,L,12,0.39753,0.802826,0.319148
3,37,2,8,9,1,1,I,6,S,8,L,16,0.58687,0.757025,0.444275
3,38,9,1,1,9,1,I,8,L,8,L,14,0.777443,0.540575,0.420266
3,39,1,8,2,8,1,C,7,L,6,S,10,0.337628,0.801745,0.270692
3,40,2,9,1,8,1,C,7,L,7,L,10,0.375011,0.757852,0.284203
3,41,9,2,1,8,1,I,7,L,7,L,13,0.781187,0.51578,0.402921
3,42,9,2,2,8,1,I,7,L,6,S,12,0.783731,0.459871,0.360415
3,43,8,2,9,2,1,C,6,S,7,L,9,0.79307,0.307927,0.244208
3,44,8,2,2,9,1,I,6,S,7,L,11,0.771306,0.430231,0.331839
3,45,2,8,1,8,1,C,6,S,7,L,10,0.353637,0.784863,0.277556
3,46,2,8,2,1,1,I,6,S,1,S,13,0.469157,0.757921,0.355584
3,47,9,1,9,2,1,C,8,L,7,L,10,0.83699,0.310932,0.260247
3,48,2,8,8,2,1,I,6,S,6,S,15,0.56048,0.751714,0.421321
3,49,1,8,1,8,1,C,7,L,7,L,10,0.309421,0.842267,0.260615
3,50,1,9,2,8,1,C,8,L,6,S,10,0.353614,0.780017,0.275825
3,51,9,1,8,2,1,C,8,L,6,S,10,0.807914,0.333352,0.26932
3,52,1,9,8,9,1,C,8,L,1,S,11,0.354941,0.816146,0.289684
3,53,9,8,1,8,1,I,1,S,7,L,18,0.764339,0.617088,0.471664
3,54,8,2,9,1,1,C,6,S,8,L,9,0.785819,0.314431,0.247086
3,55,9,1,2,1,1,C,8,L,1,S,10,0.760533,0.37134,0.282416
3,56,8,1,2,9,1,I,7,L,7,L,12,0.78,0.457873,0.357141
3,57,9,1,2,8,1,I,8,L,6,S,13,0.778459,0.495033,0.385363
3,58,8,9,8,2,0,I,1,S,6,S,10,0.78384,0.349115,0.27365
3,59,8,1,1,9,1,I,7,L,8,L,13,0.775432,0.517076,0.400957
3,60,8,2,1,9,1,I,6,S,8,L,12,0.775693,0.485324,0.376462
3,61,1,2,2,8,1,C,1,S,6,S,12,0.421821,0.759186,0.32024
3,62,2,9,2,9,1,C,7,L,7,L,11,0.37961,0.780153,0.296154
3,63,2,1,8,1,1,C,1,S,7,L,15,0.751495,0.500218,0.375912
3,64,2,9,8,1,1,I,7,L,7,L,17,0.575291,0.770604,0.443321
3,65,8,2,1,8,1,I,6,S,7,L,12,0.76935,0.495327,0.38108
3,66,8,2,2,8,1,I,6,S,6,S,11,0.76352,0.4421,0.337552
3,67,1,9,2,1,1,I,8,L,1,S,12,0.440043,0.764943,0.336608
3,68,9,1,8,1,1,C,8,L,7,L,10,0.796925,0.342994,0.273341
3,69,8,9,1,2,0,C,1,S,1,S,11,0.76478,0.401119,0.306768
3,70,9,1,8,9,1,I,8,L,1,S,12,0.79211,0.429164,0.339945
3,71,9,2,1,2,1,I,7,L,1,S,10,0.764009,0.375036,0.286531
3,72,9,2,8,9,1,I,7,L,1,S,11,0.784264,0.4052,0.317784
3,73,2,8,2,9,1,C,6,S,7,L,11,0.353424,0.814245,0.287774
3,74,1,8,9,8,1,I,7,L,1,S,11,0.37135,0.802868,0.298145
3,75,2,8,8,1,1,I,6,S,7,L,15,0.54218,0.766557,0.415612
3,76,8,9,9,1,0,I,1,S,8,L,10,0.803897,0.334363,0.268794
3,77,9,2,9,8,1,C,7,L,1,S,10,0.754754,0.386471,0.291691
3,78,8,2,8,1,1,C,6,S,7,L,9,0.761864,0.333976,0.254445
3,79,1,8,8,2,1,I,7,L,6,S,13,0.498125,0.7702,0.383655
3,80,9,8,9,8,1,C,1,S,1,S,13,0.778864,0.437349,0.340635
3,81,9,8,1,2,1,I,1,S,1,S,13,0.804354,0.408038,0.328207
3,82,9,2,1,9,1,I,7,L,8,L,12,0.753905,0.501597,0.378156
3,83,2,1,2,1,0,C,1,S,1,S,25,0.633968,0.763188,0.483837
3,84,1,9,9,1,1,I,8,L,8,L,14,0.549463,0.75282,0.413647
3,85,9,8,8,9,1,I,1,S,1,S,14,0.75676,0.501908,0.379823
3,86,8,2,1,2,1,I,6,S,1,S,10,0.784269,0.360283,0.282559
3,87,9,8,2,8,1,I,1,S,6,S,16,0.75215,0.580213,0.436407
3,88,2,9,9,2,1,I,7,L,7,L,18,0.620371,0.752546,0.466858
3,89,9,2,2,9,1,I,7,L,7,L,12,0.792787,0.446159,0.353709
3,90,1,9,9,2,1,I,8,L,7,L,15,0.560488,0.77163,0.43249
3,91,2,8,1,9,1,C,6,S,8,L,10,0.358637,0.776583,0.278512
3,92,8,9,8,9,0,C,1,S,1,S,12,0.762785,0.448857,0.342382
3,93,8,1,1,2,1,I,7,L,1,S,10,0.752147,0.386022,0.290345
3,94,2,1,8,9,0,I,1,S,1,S,14,0.433367,0.783969,0.339746
3,95,8,9,1,8,0,C,1,S,7,L,15,0.768367,0.571287,0.438959
3,96,8,9,9,8,0,I,1,S,1,S,11,0.751514,0.416875,0.313288
3,97,2,1,1,9,0,I,1,S,8,L,12,0.403873,0.792822,0.3202
3,98,9,1,9,1,1,C,8,L,8,L,10,0.827971,0.318601,0.263792
3,99,1,8,1,9,1,C,7,L,8,L,10,0.314422,0.833987,0.262224
3,100,8,1,9,8,1,C,7,L,1,S,11,0.806181,0.378577,0.305201
3,101,9,8,8,2,1,C,1,S,6,S,11,0.805485,0.35924,0.289362
3,102,1,8,8,1,1,I,7,L,7,L,13,0.480613,0.784225,0.376909
3,103,1,9,1,8,1,C,8,L,7,L,10,0.325407,0.820539,0.267009
3,104,8,1,9,1,1,C,7,L,8,L,9,0.75734,0.337679,0.255737
3,105,8,9,2,8,0,C,1,S,6,S,14,0.779938,0.51738,0.403525
3,106,2,9,9,1,1,I,7,L,8,L,18,0.611426,0.760642,0.465077
3,107,1,9,8,2,1,I,8,L,6,S,14,0.520098,0.774472,0.402801
3,108,1,9,8,1,1,I,8,L,7,L,13,0.501163,0.7565,0.37913
3,109,8,1,2,1,1,C,7,L,1,S,10,0.785448,0.352876,0.277166
3,110,1,2,9,8,1,I,1,S,1,S,15,0.453437,0.763209,0.346067
3,111,1,2,1,2,1,C,1,S,1,S,17,0.442509,0.795031,0.351808
3,112,8,9,2,9,0,C,1,S,7,L,13,0.75831,0.500729,0.379708
3,113,9,1,1,8,1,I,8,L,7,L,14,0.770579,0.550831,0.424459
3,114,9,8,2,9,1,I,1,S,7,L,16,0.763218,0.564661,0.430959
3,115,2,9,2,8,1,C,7,L,6,S,11,0.371824,0.792022,0.294493
3,116,9,8,9,2,1,C,1,S,7,L,10,0.75673,0.370361,0.280263
3,117,1,9,1,9,1,C,8,L,8,L,10,0.330408,0.812259,0.268377
3,118,8,1,8,1,1,C,7,L,7,L,10,0.82184,0.324531,0.266712
3,119,8,1,2,8,1,I,7,L,6,S,12,0.770943,0.471584,0.363565
3,120,1,8,1,2,1,C,7,L,1,S,11,0.384617,0.787111,0.302736
3,121,1,2,9,2,0,I,1,S,7,L,14,0.769721,0.471886,0.36322
3,122,8,1,1,8,1,I,7,L,7,L,13,0.768733,0.527359,0.405398
3,123,2,8,1,2,1,C,6,S,1,S,12,0.412297,0.777251,0.320458
3,124,1,2,8,1,1,I,1,S,7,L,25,0.653861,0.751928,0.491656
3,125,9,2,2,1,1,C,7,L,1,S,10,0.79731,0.34189,0.272592
3,126,9,2,8,2,1,C,7,L,6,S,9,0.752041,0.339466,0.255293
3,127,9,8,1,9,1,I,1,S,8,L,18,0.77059,0.608455,0.46887
3,128,2,9,1,2,1,C,7,L,1,S,13,0.416521,0.791454,0.329657
3,129,2,1,2,8,0,I,1,S,6,S,12,0.433699,0.751096,0.32575
3,130,8,9,1,9,0,C,1,S,8,L,15,0.775235,0.561279,0.435123
3,131,9,2,8,1,1,C,7,L,7,L,10,0.833702,0.313545,0.261403
3,132,9,8,2,1,1,C,1,S,1,S,12,0.814223,0.372871,0.303601
3,133,9,2,9,2,1,C,7,L,7,L,9,0.774999,0.321141,0.248884
3,134,1,2,8,9,1,C,1,S,1,S,14,0.414973,0.800057,0.332002
3,135,1,2,2,1,1,I,1,S,1,S,23,0.628497,0.750526,0.471703
3,136,8,1,8,9,1,I,7,L,1,S,11,0.771629,0.416737,0.321566
3,137,1,2,2,9,1,C,1,S,7,L,13,0.401649,0.802382,0.322276
3,138,2,1,9,8,0,C,1,S,1,S,16,0.441522,0.791719,0.349561
3,139,2,9,8,2,1,I,7,L,6,S,17,0.592163,0.756386,0.447904
3,140,1,8,9,1,1,I,7,L,8,L,14,0.528622,0.78043,0.412552
3,141,1,9,2,9,1,C,8,L,7,L,10,0.359931,0.770332,0.277267
3,142,2,1,9,2,1,C,1,S,7,L,13,0.759453,0.461032,0.350133
3,143,2,8,2,8,1,C,6,S,6,S,11,0.345639,0.826114,0.285537
3,144,9,2,9,1,1,C,7,L,8,L,9,0.767749,0.327644,0.251548
4,1,2,8,9,8,1,I,6,S,1,S,12,0.40244,0.799542,0.321768
4,2,9,2,9,2,1,C,7,L,7,L,9,0.789869,0.316645,0.250108
4,3,1,9,8,2,1,I,8,L,6,S,11,0.44987,0.755257,0.339767
4,4,1,9,8,9,1,C,8,L,1,S,10,0.376908,0.767971,0.289454
4,5,8,9,9,1,0,I,1,S,8,L,10,0.803695,0.338394,0.271966
4,6,2,9,2,9,1,C,7,L,7,L,10,0.358545,0.7766,0.278447
4,7,1,8,1,9,1,C,7,L,8,L,9,0.311653,0.793865,0.24741
4,8,8,9,8,1,0,I,1,S,7,L,10,0.811191,0.330427,0.26804
4,9,1,2,1,9,1,C,1,S,8,L,11,0.365901,0.803705,0.294076
4,10,9,8,1,2,1,I,1,S,1,S,13,0.753958,0.483787,0.364755
4,11,1,9,9,1,1,I,8,L,8,L,11,0.458341,0.751483,0.344435
4,12,8,2,1,8,1,I,6,S,7,L,11,0.795457,0.427955,0.34042
4,13,1,2,2,9,1,C,1,S,7,L,11,0.38818,0.773638,0.300311
4,14,2,8,9,1,1,I,6,S,8,L,14,0.529817,0.770274,0.408104
4,15,8,2,1,2,1,I,6,S,1,S,10,0.789653,0.374051,0.29537
4,16,8,9,2,1,0,I,1,S,1,S,11,0.791119,0.382616,0.302695
4,17,9,2,1,8,1,I,7,L,7,L,11,0.780281,0.439178,0.342682
4,18,9,8,2,1,1,C,1,S,1,S,12,0.800738,0.393063,0.314741
4,19,8,9,8,2,0,I,1,S,6,S,10,0.796645,0.341185,0.271803
4,20,1,8,8,9,1,C,7,L,1,S,10,0.37097,0.77406,0.287153
4,21,2,9,2,1,1,I,7,L,1,S,12,0.401976,0.799974,0.32157
4,22,9,2,8,9,1,I,7,L,1,S,10,0.822983,0.330851,0.272285
4,23,1,2,2,8,1,C,1,S,6,S,11,0.402744,0.751976,0.302854
4,24,8,1,8,9,1,I,7,L,1,S,10,0.769565,0.367979,0.283184
4,25,9,2,9,8,1,C,7,L,1,S,10,0.827108,0.327289,0.270703
4,26,8,1,9,1,1,C,7,L,8,L,9,0.753732,0.340606,0.256725
4,27,9,2,2,1,1,C,7,L,1,S,10,0.821453,0.335252,0.275394
4,28,9,8,9,2,1,C,1,S,7,L,11,0.824789,0.346529,0.285813
4,29,8,1,1,9,1,I,7,L,8,L,12,0.751062,0.503099,0.377858
4,30,9,2,2,9,1,I,7,L,7,L,11,0.790761,0.427511,0.338059
4,31,2,1,9,1,0,C,1,S,8,L,19,0.608125,0.771649,0.469259
4,32,1,8,2,9,1,C,7,L,7,L,9,0.327361,0.773555,0.253232
4,33,1,2,1,2,1,C,1,S,1,S,12,0.397846,0.786588,0.312941
4,34,9,1,1,9,1,I,8,L,8,L,13,0.760236,0.52591,0.399816
4,35,1,9,1,9,1,C,8,L,8,L,9,0.317203,0.788364,0.250071
4,36,9,8,9,1,1,C,1,S,8,L,10,0.758812,0.370803,0.28137
4,37,9,8,8,9,1,I,1,S,1,S,12,0.804942,0.386097,0.310785
4,38,9,1,8,2,1,C,8,L,6,S,10,0.818499,0.323237,0.264569
4,39,9,1,9,1,1,C,8,L,8,L,10,0.825549,0.320446,0.264544
4,40,1,8,9,1,1,I,7,L,8,L,11,0.452226,0.757807,0.3427
4,41,9,8,2,9,1,I,1,S,7,L,15,0.758591,0.559805,0.424663
4,42,8,2,8,9,1,I,6,S,1,S,9,0.758433,0.344935,0.26161
4,43,9,8,2,8,1,I,1,S,6,S,15,0.779262,0.530545,0.413433
4,44,8,2,2,9,1,I,6,S,7,L,10,0.756276,0.415575,0.31429
4,45,8,9,9,8,0,I,1,S,1,S,11,0.799517,0.372092,0.297494
4,46,2,9,1,9,1,C,7,L,8,L,10,0.339299,0.802176,0.272177
4,47,8,2,8,1,1,C,6,S,7,L,9,0.821369,0.290608,0.238697
4,48,9,1,1,8,1,I,8,L,7,L,13,0.774338,0.504751,0.390848
4,49,1,9,2,8,1,C,8,L,6,S,9,0.341875,0.754583,0.257973
4,50,9,1,8,9,1,I,8,L,1,S,11,0.818182,0.357392,0.292411
4,51,8,9,2,9,0,C,1,S,7,L,13,0.760283,0.512185,0.389406
4,52,2,8,2,1,1,I,6,S,1,S,11,0.412274,0.755116,0.311315
4,53,1,2,9,8,1,I,1,S,1,S,14,0.470242,0.7577,0.356303
4,54,1,9,9,8,1,I,8,L,1,S,10,0.381033,0.764409,0.291265
4,55,1,8,9,8,1,I,7,L,1,S,10,0.375095,0.770498,0.28901
4,56,8,9,1,8,0,C,1,S,7,L,14,0.779717,0.527595,0.411375
4,57,1,2,2,1,1,I,1,S,1,S,14,0.447236,0.780576,0.349102
4,58,9,1,2,8,1,I,8,L,6,S,12,0.767576,0.463372,0.355673
4,59,1,9,9,2,1,I,8,L,7,L,11,0.439404,0.765513,0.33637
4,60,2,1,8,1,0,C,1,S,7,L,19,0.614639,0.764432,0.46985
4,61,1,8,2,8,1,C,7,L,6,S,9,0.336325,0.760083,0.255635
4,62,2,1,1,2,0,I,1,S,1,S,12,0.388008,0.796405,0.309012
4,63,8,1,1,2,1,I,7,L,1,S,11,0.775837,0.41419,0.321344
4,64,1,8,1,2,1,C,7,L,1,S,10,0.32283,0.828029,0.267313
4,65,9,2,2,8,1,I,7,L,6,S,10,0.753266,0.408769,0.307912
4,66,2,8,9,2,1,I,6,S,7,L,13,0.504202,0.756344,0.38135
4,67,1,9,2,9,1,C,8,L,7,L,9,0.332911,0.768054,0.255694
4,68,1,2,8,9,1,C,1,S,1,S,14,0.456075,0.769619,0.351004
4,69,2,1,2,9,0,I,1,S,7,L,11,0.37972,0.781398,0.296712
4,70,2,9,8,1,1,I,7,L,7,L,15,0.551772,0.775434,0.427863
4,71,2,8,8,2,1,I,6,S,6,S,14,0.518789,0.776226,0.402697
4,72,2,9,9,8,1,I,7,L,1,S,12,0.414039,0.786173,0.325506
4,73,2,1,2,1,0,C,1,S,1,S,14,0.435448,0.793446,0.345504
4,74,2,1,1,8,0,I,1,S,7,L,11,0.36924,0.793065,0.292831
4,75,8,1,2,1,1,C,7,L,1,S,10,0.768036,0.372381,0.286001
4,76,9,2,1,9,1,I,7,L,8,L,11,0.768481,0.457578,0.35164
4,77,9,1,9,8,1,C,8,L,1,S,10,0.751552,0.380713,0.286125
4,78,1,8,2,1,1,I,7,L,1,S,10,0.36944,0.778461,0.287595
4,79,9,1,9,2,1,C,8,L,7,L,10,0.810047,0.332173,0.269076
4,80,8,1,8,2,1,C,7,L,6,S,10,0.840638,0.306941,0.258026
4,81,1,9,1,8,1,C,8,L,7,L,9,0.325181,0.775588,0.252207
4,82,8,9,9,2,0,I,1,S,7,L,10,0.788193,0.350121,0.275963
4,83,2,1,8,9,0,I,1,S,1,S,14,0.444286,0.782488,0.347649
4,84,8,9,2,8,0,C,1,S,6,S,13,0.779102,0.484564,0.377525
4,85,2,8,1,2,1,C,6,S,1,S,11,0.348481,0.824156,0.287202
4,86,1,2,1,8,1,C,1,S,7,L,11,0.377701,0.785305,0.29661
4,87,8,1,9,8,1,C,7,L,1,S,10,0.77369,0.364418,0.281946
4,88,8,9,1,9,0,C,1,S,8,L,14,0.765121,0.548978,0.420034
4,89,8,2,1,9,1,I,6,S,8,L,11,0.783658,0.446355,0.349789
4,90,1,8,8,2,1,I,7,L,6,S,11,0.443755,0.761581,0.337956
4,91,2,1,2,8,0,I,1,S,6,S,11,0.394284,0.759736,0.299551
4,92,2,8,1,8,1,C,6,S,7,L,10,0.339575,0.796923,0.270615
4,93,8,2,8,2,1,C,6,S,6,S,9,0.80997,0.299253,0.242386
4,94,9,1,1,2,1,I,8,L,1,S,11,0.751718,0.431964,0.324715
4,95,2,9,1,2,1,C,7,L,1,S,11,0.359341,0.811867,0.291737
4,96,2,1,8,2,0,C,1,S,6,S,18,0.605591,0.754744,0.457066
4,97,9,8,1,8,1,I,1,S,7,L,16,0.773187,0.571115,0.441578
4,98,2,1,9,8,0,C,1,S,1,S,14,0.458454,0.77057,0.353271
4,99,2,8,2,9,1,C,6,S,7,L,10,0.3488,0.787177,0.274568
4,100,2,1,1,9,0,I,1,S,8,L,11,0.35744,0.811465,0.29005
4,101,2,9,9,2,1,I,7,L,7,L,14,0.517452,0.774704,0.400872
4,102,1,9,1,2,1,C,8,L,1,S,10,0.328768,0.821941,0.270228
4,103,9,1,8,1,1,C,8,L,7,L,10,0.833045,0.312479,0.260309
4,104,9,1,2,9,1,I,8,L,7,L,12,0.750609,0.488521,0.366688
4,105,9,2,9,1,1,C,7,L,8,L,9,0.80177,0.307392,0.246457
4,106,2,9,2,8,1,C,7,L,6,S,10,0.370346,0.759024,0.281101
4,107,2,8,8,1,1,I,6,S,7,L,14,0.540002,0.760537,0.410692
4,108,8,1,1,8,1,I,7,L,7,L,12,0.764238,0.482901,0.369051
4,109,9,8,1,9,1,I,1,S,8,L,16,0.758663,0.591422,0.44869
4,110,9,2,8,1,1,C,7,L,7,L,9,0.807574,0.30056,0.242724
4,111,8,2,2,1,1,C,6,S,1,S,9,0.757737,0.348449,0.264033
4,112,9,2,1,2,1,I,7,L,1,S,10,0.774843,0.384821,0.298176
4,113,2,8,1,9,1,C,6,S,8,L,10,0.329554,0.812753,0.267845
4,114,1,2,8,2,1,I,1,S,6,S,19,0.60893,0.766668,0.466847
4,115,1,8,8,1,1,I,7,L,7,L,12,0.464528,0.789675,0.366826
4,116,2,9,1,8,1,C,7,L,7,L,10,0.34932,0.786347,0.274687
4,117,8,9,1,2,0,C,1,S,1,S,12,0.773647,0.445378,0.344565
4,118,1,2,9,1,1,I,1,S,8,L,19,0.619081,0.760303,0.470689
4,119,8,1,2,8,1,I,7,L,6,S,12,0.792589,0.444723,0.352483
4,120,2,9,8,9,1,C,7,L,1,S,12,0.406179,0.793008,0.322103
4,121,2,9,9,1,1,I,7,L,8,L,14,0.54179,0.756609,0.409923
4,122,8,1,8,1,1,C,7,L,7,L,9,0.759536,0.333774,0.253513
4,123,1,8,9,2,1,I,7,L,7,L,11,0.43329,0.771837,0.334429
4,124,8,2,9,2,1,C,6,S,7,L,9,0.803665,0.306693,0.246478
4,125,9,8,8,2,1,C,1,S,6,S,10,0.751763,0.373593,0.280854
4,126,8,2,2,8,1,I,6,S,6,S,10,0.768076,0.397999,0.305694
4,127,2,1,9,2,0,C,1,S,7,L,18,0.59505,0.765193,0.455328
4,128,9,8,8,1,1,C,1,S,7,L,10,0.766309,0.362836,0.278045
4,129,2,8,2,8,1,C,6,S,6,S,10,0.3606,0.769601,0.277519
4,130,9,8,9,8,1,C,1,S,1,S,12,0.812802,0.379262,0.308265
4,131,9,2,8,2,1,C,7,L,6,S,9,0.796174,0.309205,0.246181
4,132,1,8,1,8,1,C,7,L,7,L,9,0.319632,0.781089,0.249661
4,133,8,1,2,9,1,I,7,L,7,L,12,0.775622,0.469872,0.364443
4,134,1,9,2,1,1,I,8,L,1,S,10,0.375379,0.772372,0.289932
4,135,1,2,8,1,1,I,1,S,7,L,19,0.625595,0.753085,0.471126
4,136,8,2,9,8,1,C,6,S,1,S,9,0.761367,0.34246,0.260738
4,137,8,1,9,2,1,C,7,L,7,L,10,0.832185,0.315878,0.262869
4,138,2,9,8,2,1,I,7,L,6,S,14,0.530762,0.76256,0.404738
4,139,8,2,9,1,1,C,6,S,8,L,9,0.815566,0.29744,0.242582
4,140,1,9,8,1,1,I,8,L,7,L,12,0.470635,0.78341,0.3687
4,141,8,9,8,9,0,C,1,S,1,S,11,0.793789,0.377084,0.299325
4,142,2,8,8,9,1,C,6,S,1,S,12,0.394581,0.806377,0.318181
4,143,1,2,9,2,1,I,1,S,7,L,18,0.60665,0.752855,0.456719
4,144,9,1,2,1,1,C,8,L,1,S,11,0.815511,0.362924,0.295968
5,1,9,8,1,2,1,I,1,S,1,S,15,0.781753,0.441407,0.345071
5,2,1,9,2,1,1,I,8,L,1,S,12,0.414741,0.786101,0.326028
5,3,1,9,1,9,1,C,8,L,8,L,10,0.322901,0.818317,0.264236
5,4,1,8,2,1,1,I,7,L,1,S,12,0.426698,0.769467,0.32833
5,5,8,9,2,9,1,C,1,S,7,L,12,0.420953,0.774812,0.326159
5,6,2,9,8,1,1,I,7,L,7,L,19,0.627364,0.770126,0.48315
5,7,2,8,8,9,1,C,6,S,1,S,15,0.516155,0.767981,0.396397
5,8,9,2,1,8,1,I,7,L,7,L,15,0.758072,0.586075,0.444287
5,9,2,9,1,8,1,C,7,L,7,L,10,0.342447,0.791865,0.271172
5,10,1,9,9,8,1,I,8,L,1,S,12,0.405933,0.792596,0.321741
5,11,8,2,2,9,1,I,6,S,7,L,16,0.773187,0.586717,0.453642
5,12,9,8,1,9,0,I,1,S,8,L,15,0.5208,0.759498,0.395547
5,13,8,2,9,2,1,C,6,S,7,L,10,0.834555,0.313058,0.261264
5,14,2,1,8,9,1,I,1,S,1,S,16,0.778926,0.465953,0.362943
5,15,1,9,8,9,1,C,8,L,1,S,12,0.458838,0.750682,0.344442
5,16,2,1,2,9,0,I,1,S,7,L,12,0.407859,0.78447,0.319953
5,17,1,8,1,8,1,C,7,L,7,L,10,0.320027,0.821794,0.262996
5,18,1,8,9,1,1,I,7,L,8,L,17,0.612719,0.764638,0.468509
5,19,8,9,9,1,0,I,1,S,8,L,11,0.767059,0.405301,0.31089
5,20,9,8,2,1,1,C,1,S,1,S,14,0.785782,0.424981,0.333943
5,21,8,1,1,9,1,I,7,L,8,L,17,0.76668,0.60379,0.462914
5,22,9,1,9,8,1,C,8,L,1,S,11,0.756104,0.403979,0.30545
5,23,1,8,8,1,1,I,7,L,7,L,17,0.616689,0.762588,0.47028
5,24,8,1,8,2,1,C,7,L,6,S,10,0.809164,0.334796,0.270904
5,25,2,1,1,2,0,I,1,S,1,S,28,0.611011,0.764977,0.46741
5,26,2,9,8,2,1,I,7,L,6,S,18,0.623442,0.758728,0.473023
5,27,1,2,2,8,1,C,1,S,6,S,11,0.391651,0.77386,0.303083
5,28,9,1,9,1,1,C,8,L,8,L,10,0.838276,0.31277,0.262188
5,29,8,2,8,2,1,C,6,S,6,S,10,0.838375,0.311796,0.261402
5,30,9,8,1,8,0,I,1,S,7,L,13,0.483301,0.750432,0.362684
5,31,2,8,9,8,1,I,6,S,1,S,13,0.449906,0.75738,0.340749
5,32,8,9,8,9,0,C,1,S,1,S,15,0.778949,0.452663,0.352602
5,33,1,8,9,2,1,I,7,L,7,L,16,0.602552,0.752988,0.453715
5,34,8,1,2,9,1,I,7,L,7,L,17,0.758229,0.61262,0.464506
5,35,8,2,1,8,1,I,6,S,7,L,16,0.768382,0.594101,0.456496
5,36,9,1,2,9,1,I,8,L,7,L,16,0.752883,0.603477,0.454348
5,37,9,8,9,2,1,C,1,S,7,L,11,0.792034,0.376747,0.298396
5,38,1,8,8,2,1,I,7,L,6,S,16,0.607055,0.750652,0.455688
5,39,9,8,2,9,0,I,1,S,7,L,14,0.49687,0.760229,0.377736
5,40,1,2,8,2,0,I,1,S,6,S,12,0.757297,0.44327,0.335687
5,41,2,8,1,8,1,C,6,S,7,L,10,0.353858,0.777003,0.274949
5,42,1,2,1,9,1,C,1,S,8,L,12,0.387631,0.805745,0.312332
5,43,1,2,9,8,1,I,1,S,1,S,21,0.57583,0.761042,0.438231
5,44,2,8,9,2,1,I,6,S,7,L,19,0.626536,0.761893,0.477354
5,45,2,8,1,9,1,C,6,S,8,L,10,0.366146,0.76056,0.278476
5,46,2,8,2,8,1,C,6,S,6,S,10,0.346205,0.785501,0.271945
5,47,8,9,2,8,1,C,1,S,6,S,12,0.408213,0.791843,0.323241
5,48,2,1,1,8,0,I,1,S,7,L,12,0.403416,0.792163,0.319571
5,49,2,9,9,8,1,I,7,L,1,S,13,0.432089,0.781705,0.337766
5,50,8,1,9,1,1,C,7,L,8,L,10,0.824323,0.323232,0.266448
5,51,1,2,1,2,1,C,1,S,1,S,18,0.492947,0.764638,0.376926
5,52,8,1,2,1,1,C,7,L,1,S,12,0.813486,0.379472,0.308695
5,53,1,9,1,8,1,C,8,L,7,L,10,0.310613,0.834761,0.259288
5,54,9,2,8,2,1,C,7,L,6,S,9,0.755817,0.33996,0.256948
5,55,2,1,8,1,1,C,1,S,7,L,11,0.761004,0.410388,0.312307
5,56,9,1,1,8,1,I,8,L,7,L,17,0.773601,0.603933,0.467203
5,57,9,2,2,1,1,C,7,L,1,S,11,0.795505,0.374294,0.297753
5,58,9,1,2,8,1,I,8,L,6,S,17,0.76688,0.610675,0.468315
5,59,1,9,8,2,1,I,8,L,6,S,16,0.594366,0.767117,0.455948
5,60,9,1,8,1,1,C,8,L,7,L,9,0.750542,0.346413,0.259998
5,61,9,2,8,9,1,I,7,L,1,S,11,0.829001,0.34669,0.287406
5,62,8,9,1,8,1,C,1,S,7,L,12,0.41651,0.782505,0.325921
5,63,8,1,2,8,1,I,7,L,6,S,18,0.771754,0.616789,0.47601
5,64,2,1,9,1,1,C,1,S,8,L,11,0.757131,0.411817,0.3118
5,65,8,9,9,8,0,I,1,S,1,S,18,0.782236,0.462335,0.361655
5,66,1,9,9,2,1,I,8,L,7,L,16,0.589862,0.769453,0.453871
5,67,9,8,8,9,1,I,1,S,1,S,13,0.786354,0.414161,0.325677
5,68,8,9,1,9,1,C,1,S,8,L,12,0.430868,0.763363,0.328909
5,69,8,2,8,9,1,I,6,S,1,S,11,0.814346,0.357207,0.29089
5,70,1,2,8,9,1,C,1,S,1,S,24,0.640529,0.754217,0.483098
5,71,1,2,9,1,0,I,1,S,8,L,12,0.773535,0.43065,0.333123
5,72,9,2,9,8,1,C,7,L,1,S,11,0.788936,0.378982,0.298993
5,73,2,9,1,2,1,C,7,L,1,S,12,0.427468,0.756041,0.323183
5,74,2,1,9,2,1,C,1,S,7,L,12,0.783009,0.412399,0.322912
5,75,9,1,8,2,1,C,8,L,6,S,10,0.823117,0.324333,0.266964
5,76,2,8,9,1,1,I,6,S,8,L,19,0.641187,0.750342,0.481109
5,77,1,2,9,2,0,I,1,S,7,L,12,0.752866,0.445123,0.335118
5,78,9,2,9,1,1,C,7,L,8,L,9,0.769342,0.329534,0.253524
5,79,8,2,8,1,1,C,6,S,7,L,9,0.762463,0.336129,0.256286
5,80,9,8,9,1,1,C,1,S,8,L,11,0.812259,0.362874,0.294748
5,81,2,1,2,1,1,C,1,S,1,S,19,0.758544,0.506253,0.384015
5,82,8,1,1,2,1,I,7,L,1,S,12,0.784426,0.40698,0.319246
5,83,8,9,8,1,0,I,1,S,7,L,11,0.770932,0.403872,0.311358
5,84,8,1,1,8,1,I,7,L,7,L,17,0.753545,0.619694,0.466967
5,85,8,1,8,9,1,I,7,L,1,S,11,0.779151,0.384209,0.299357
5,86,9,2,2,8,1,I,7,L,6,S,15,0.750398,0.594219,0.445901
5,87,1,9,1,2,1,C,8,L,1,S,11,0.40858,0.754554,0.308295
5,88,8,9,8,2,0,I,1,S,6,S,11,0.751026,0.417587,0.313619
5,89,1,8,9,8,1,I,7,L,1,S,12,0.41789,0.775962,0.324267
5,90,9,2,9,2,1,C,7,L,7,L,9,0.752497,0.340853,0.256491
5,91,9,8,2,8,0,I,1,S,6,S,13,0.475046,0.759599,0.360844
5,92,1,2,8,1,0,I,1,S,7,L,12,0.777573,0.429002,0.33358
5,93,8,2,1,2,1,I,6,S,1,S,11,0.759878,0.405317,0.307991
5,94,1,2,1,8,1,C,1,S,7,L,11,0.39976,0.764715,0.305702
5,95,9,1,1,9,1,I,8,L,8,L,16,0.761907,0.593794,0.452416
5,96,2,1,1,9,0,I,1,S,8,L,12,0.417774,0.773021,0.322948
5,97,2,8,8,1,1,I,6,S,7,L,20,0.632237,0.771184,0.487571
5,98,1,8,1,2,1,C,7,L,1,S,12,0.397638,0.796975,0.316908
5,99,1,8,2,9,1,C,7,L,7,L,10,0.323516,0.815223,0.263737
5,100,9,2,8,1,1,C,7,L,7,L,9,0.772545,0.328694,0.253931
5,101,8,2,9,8,1,C,6,S,1,S,11,0.774281,0.389499,0.301582
5,102,2,9,2,9,1,C,7,L,7,L,10,0.345936,0.785294,0.271661
5,103,1,9,9,1,1,I,8,L,8,L,16,0.607795,0.755788,0.459364
5,104,8,9,2,1,0,I,1,S,1,S,17,0.770944,0.468891,0.361489
5,105,2,9,1,9,1,C,7,L,8,L,10,0.354735,0.775421,0.275069
5,106,8,2,1,9,1,I,6,S,8,L,15,0.755954,0.580451,0.438795
5,107,1,2,2,9,1,C,1,S,7,L,11,0.403797,0.757439,0.305852
5,108,9,8,8,1,1,C,1,S,7,L,11,0.816133,0.361445,0.294987
5,109,9,1,1,2,1,I,8,L,1,S,12,0.803901,0.392765,0.315745
5,110,8,1,9,8,1,C,7,L,1,S,12,0.804678,0.385967,0.310579
5,111,1,8,8,9,1,C,7,L,1,S,13,0.467251,0.77344,0.361391
5,112,9,1,9,2,1,C,8,L,7,L,10,0.819297,0.325595,0.266759
5,113,2,8,2,9,1,C,6,S,7,L,10,0.357347,0.770432,0.275311
5,114,9,1,2,1,1,C,8,L,1,S,11,0.762673,0.39929,0.304528
5,115,2,9,2,8,1,C,7,L,6,S,10,0.334795,0.800363,0.267957
5,116,9,1,8,9,1,I,8,L,1,S,11,0.796169,0.371686,0.295925
5,117,1,9,2,9,1,C,8,L,7,L,10,0.314102,0.82819,0.260136
5,118,9,8,9,8,1,C,1,S,1,S,14,0.770836,0.436065,0.336134
5,119,8,2,2,1,1,C,6,S,1,S,11,0.780851,0.38481,0.300479
5,120,8,9,9,2,0,I,1,S,7,L,12,0.796103,0.402741,0.320624
5,121,2,1,9,8,1,C,1,S,1,S,21,0.753466,0.531946,0.400804
5,122,8,2,9,1,1,C,6,S,8,L,9,0.75926,0.336969,0.255847
5,123,1,8,2,8,1,C,7,L,6,S,10,0.312374,0.830292,0.259362
5,124,2,9,9,2,1,I,7,L,7,L,18,0.619128,0.761065,0.471197
5,125,9,8,8,2,1,C,1,S,6,S,11,0.796227,0.375159,0.298712
5,126,9,2,1,2,1,I,7,L,1,S,11,0.774533,0.3948,0.305786
5,127,2,8,2,1,1,I,6,S,1,S,14,0.449797,0.788998,0.354889
5,128,2,1,8,2,1,C,1,S,6,S,12,0.787441,0.410546,0.32328
5,129,8,2,2,8,1,I,6,S,6,S,16,0.761158,0.601561,0.457883
5,130,9,2,2,9,1,I,7,L,7,L,15,0.762935,0.57843,0.441305
5,131,8,1,8,1,1,C,7,L,7,L,10,0.827921,0.322076,0.266653
5,132,2,9,2,1,1,I,7,L,1,S,13,0.443708,0.773047,0.343007
5,133,2,9,9,1,1,I,7,L,8,L,19,0.623552,0.772149,0.481475
5,134,2,9,8,9,1,C,7,L,1,S,14,0.497921,0.763373,0.380099
5,135,1,2,2,1,1,I,1,S,1,S,22,0.596266,0.763738,0.455391
5,136,9,2,1,9,1,I,7,L,8,L,15,0.772443,0.567969,0.438723
5,137,8,9,1,2,0,C,1,S,1,S,21,0.786061,0.464904,0.365443
5,138,2,1,2,8,0,I,1,S,6,S,11,0.413664,0.750153,0.310311
5,139,2,8,8,2,1,I,6,S,6,S,19,0.630747,0.759586,0.479107
5,140,1,8,1,9,1,C,7,L,8,L,10,0.332314,0.805351,0.26763
5,141,1,9,8,1,1,I,8,L,7,L,16,0.611836,0.75375,0.461172
5,142,2,8,1,2,1,C,6,S,1,S,13,0.422007,0.784908,0.331236
5,143,8,1,9,2,1,C,7,L,7,L,10,0.805344,0.336058,0.270642
5,144,1,9,2,8,1,C,8,L,6,S,10,0.302961,0.843259,0.255474
6,1,8,2,1,2,1,I,6,S,1,S,16,0.785276,0.468605,0.367984
6,2,8,9,1,9,1,C,1,S,8,L,12,0.418203,0.772469,0.323049
6,3,1,2,1,8,1,C,1,S,7,L,12,0.432204,0.75855,0.327848
6,4,2,1,2,9,0,I,1,S,7,L,13,0.45391,0.762546,0.346127
6,5,2,1,2,1,1,C,1,S,1,S,16,0.788324,0.432955,0.341308
6,6,9,8,2,9,0,I,1,S,7,L,10,0.310669,0.835621,0.259602
6,7,1,8,2,9,1,C,7,L,7,L,9,0.322369,0.77499,0.249833
6,8,9,1,2,1,1,C,8,L,1,S,11,0.773238,0.388814,0.300646
6,9,8,1,2,8,1,I,7,L,6,S,15,0.75349,0.578601,0.43597
6,10,8,1,9,1,1,C,7,L,8,L,10,0.81764,0.325152,0.265857
6,11,9,1,9,2,1,C,8,L,7,L,10,0.805298,0.334278,0.269193
6,12,9,8,1,8,0,I,1,S,7,L,10,0.323237,0.823081,0.26605
6,13,1,2,9,1,0,I,1,S,8,L,12,0.771005,0.424691,0.327439
6,14,2,8,1,2,1,C,6,S,1,S,10,0.344169,0.803001,0.276368
6,15,8,2,1,8,1,I,6,S,7,L,22,0.75289,0.651962,0.490856
6,16,1,8,1,9,1,C,7,L,8,L,9,0.328555,0.768852,0.25261
6,17,2,9,1,8,1,C,7,L,7,L,10,0.352125,0.779938,0.274636
6,18,9,1,8,9,1,I,8,L,1,S,12,0.765128,0.438148,0.335239
6,19,2,9,8,2,1,I,7,L,6,S,15,0.537742,0.771894,0.41508
6,20,1,2,2,8,1,C,1,S,6,S,12,0.423487,0.768315,0.325372
6,21,2,9,1,2,1,C,7,L,1,S,12,0.383176,0.807293,0.309335
6,22,8,9,9,1,0,I,1,S,8,L,12,0.763222,0.432433,0.330042
6,23,9,2,9,8,1,C,7,L,1,S,13,0.770661,0.428636,0.330333
6,24,1,2,2,9,1,C,1,S,7,L,12,0.418002,0.773583,0.323359
6,25,2,8,1,8,1,C,6,S,7,L,9,0.306739,0.798417,0.244906
6,26,8,1,8,9,1,I,7,L,1,S,12,0.752756,0.448037,0.337263
6,27,9,2,9,1,1,C,7,L,8,L,11,0.809112,0.360765,0.2919
6,28,1,8,8,9,1,C,7,L,1,S,10,0.351199,0.786304,0.276149
6,29,1,2,1,2,1,C,1,S,1,S,18,0.475127,0.76055,0.361358
6,30,8,1,9,8,1,C,7,L,1,S,11,0.769748,0.395619,0.304527
6,31,1,2,2,1,1,I,1,S,1,S,30,0.644502,0.753667,0.48574
6,32,9,8,8,1,0,C,1,S,7,L,14,0.533558,0.772661,0.412259
6,33,2,8,9,8,1,I,6,S,1,S,10,0.368572,0.780627,0.287718
6,34,1,9,8,9,1,C,8,L,1,S,13,0.395081,0.803673,0.317516
6,35,8,2,2,8,1,I,6,S,6,S,23,0.771474,0.640352,0.494015
6,36,2,8,8,2,1,I,6,S,6,S,11,0.42807,0.77564,0.332028
6,37,9,1,9,1,1,C,8,L,8,L,10,0.827254,0.31713,0.262347
6,38,8,9,1,8,1,C,1,S,7,L,12,0.424421,0.766292,0.32523
6,39,2,8,2,8,1,C,6,S,6,S,9,0.300182,0.804928,0.241625
6,40,2,1,1,9,0,I,1,S,8,L,13,0.461986,0.753628,0.348166
6,41,2,1,8,9,1,I,1,S,1,S,24,0.750891,0.631734,0.474364
6,42,8,2,9,2,1,C,6,S,7,L,11,0.766658,0.395788,0.303434
6,43,8,2,9,1,1,C,6,S,8,L,11,0.791275,0.376799,0.298152
6,44,8,9,8,9,1,C,1,S,1,S,15,0.447572,0.772448,0.345726
6,45,1,2,8,2,0,I,1,S,6,S,14,0.778975,0.446218,0.347593
6,46,1,2,8,9,1,C,1,S,1,S,15,0.466441,0.75254,0.351015
6,47,1,8,1,8,1,C,7,L,7,L,9,0.333442,0.764753,0.255
6,48,1,2,9,2,0,I,1,S,7,L,13,0.786969,0.429664,0.338132
6,49,2,1,1,8,0,I,1,S,7,L,14,0.464663,0.774783,0.360013
6,50,9,8,1,2,0,I,1,S,1,S,11,0.37748,0.794215,0.2998
6,51,2,1,9,2,1,C,1,S,7,L,12,0.786168,0.400613,0.314949
6,52,2,8,2,9,1,C,6,S,7,L,9,0.295667,0.808654,0.239092
6,53,9,8,9,1,0,C,1,S,8,L,15,0.567153,0.776038,0.440133
6,54,1,9,1,8,1,C,8,L,7,L,11,0.3844,0.779368,0.299589
6,55,9,1,9,8,1,C,8,L,1,S,11,0.78101,0.386507,0.301866
6,56,2,1,1,2,1,I,1,S,1,S,20,0.759788,0.53611,0.40733
6,57,2,9,8,9,1,C,7,L,1,S,11,0.381252,0.773691,0.294972
6,58,1,8,9,2,1,I,7,L,7,L,13,0.506632,0.783123,0.396755
6,59,1,8,8,1,1,I,7,L,7,L,12,0.495096,0.751422,0.372026
6,60,8,9,9,8,1,I,1,S,1,S,27,0.638374,0.756153,0.482708
6,61,9,2,2,8,1,I,7,L,6,S,21,0.759513,0.640855,0.486737
6,62,8,9,9,2,0,I,1,S,7,L,13,0.776413,0.440362,0.341903
6,63,1,8,2,1,1,I,7,L,1,S,11,0.372306,0.807768,0.300737
6,64,1,9,2,8,1,C,8,L,6,S,11,0.376123,0.788506,0.296575
6,65,1,9,9,8,1,I,8,L,1,S,15,0.487057,0.758772,0.369565
6,66,8,2,2,1,1,C,6,S,1,S,14,0.780948,0.428888,0.334939
6,67,9,2,1,2,1,I,7,L,1,S,15,0.788164,0.453811,0.357677
6,68,9,2,2,1,1,C,7,L,1,S,13,0.757777,0.435124,0.329727
6,69,2,8,1,9,1,C,6,S,8,L,9,0.301852,0.802516,0.242241
6,70,9,2,9,2,1,C,7,L,7,L,11,0.784495,0.379754,0.297915
6,71,9,2,2,9,1,I,7,L,7,L,21,0.756736,0.64256,0.486248
6,72,8,9,2,9,1,C,1,S,7,L,12,0.410219,0.781324,0.320514
6,73,9,8,1,9,0,I,1,S,8,L,10,0.317707,0.828169,0.263115
6,74,9,1,1,8,1,I,8,L,7,L,15,0.774563,0.559023,0.432998
6,75,1,9,8,2,1,I,8,L,6,S,20,0.619098,0.760752,0.47098
6,76,2,1,2,8,0,I,1,S,6,S,13,0.459369,0.757321,0.34789
6,77,2,1,9,8,1,C,1,S,1,S,15,0.75987,0.454036,0.345009
6,78,2,9,8,1,1,I,7,L,7,L,16,0.572316,0.769143,0.440193
6,79,2,9,2,9,1,C,7,L,7,L,10,0.339557,0.792477,0.269092
6,80,8,9,2,1,1,I,1,S,1,S,26,0.618294,0.757608,0.468425
6,81,9,1,2,8,1,I,8,L,6,S,15,0.766036,0.568239,0.435292
6,82,9,2,8,9,1,I,7,L,1,S,17,0.770404,0.536842,0.413585
6,83,8,9,2,8,1,C,1,S,6,S,12,0.415705,0.776057,0.322611
6,84,2,8,9,1,1,I,6,S,8,L,12,0.497134,0.768782,0.382188
6,85,9,1,8,2,1,C,8,L,6,S,10,0.773035,0.356588,0.275655
6,86,2,9,1,9,1,C,7,L,8,L,10,0.346595,0.785026,0.272086
6,87,9,8,9,8,0,C,1,S,1,S,11,0.411424,0.762582,0.313745
6,88,2,1,8,2,1,C,1,S,6,S,13,0.7986,0.402371,0.321334
6,89,2,9,9,8,1,I,7,L,1,S,12,0.429883,0.763343,0.328148
6,90,2,9,9,1,1,I,7,L,8,L,17,0.598831,0.770053,0.461131
6,91,2,9,2,1,1,I,7,L,1,S,12,0.419909,0.767471,0.322268
6,92,8,1,8,1,1,C,7,L,7,L,10,0.789438,0.343776,0.27139
6,93,9,2,1,8,1,I,7,L,7,L,21,0.764828,0.636073,0.486486
6,94,9,2,1,9,1,I,7,L,8,L,21,0.761441,0.638461,0.486151
6,95,1,9,8,1,1,I,8,L,7,L,21,0.632093,0.762063,0.481695
6,96,9,8,8,2,0,C,1,S,6,S,13,0.4951,0.769646,0.381052
6,97,8,1,2,9,1,I,7,L,7,L,16,0.774944,0.579681,0.44922
6,98,1,9,1,9,1,C,8,L,8,L,11,0.37842,0.78517,0.297124
6,99,9,8,2,1,0,C,1,S,1,S,11,0.403653,0.764888,0.308749
6,100,2,8,8,1,1,I,6,S,7,L,11,0.459124,0.751484,0.345025
6,101,8,2,9,8,1,C,6,S,1,S,14,0.797571,0.419478,0.334564
6,102,1,8,1,2,1,C,7,L,1,S,10,0.373714,0.765235,0.285979
6,103,9,1,2,9,1,I,8,L,7,L,15,0.760999,0.572836,0.435928
6,104,1,2,1,9,1,C,1,S,8,L,12,0.425985,0.764727,0.325763
6,105,8,9,1,2,1,C,1,S,1,S,17,0.470879,0.758159,0.357001
6,106,8,2,1,9,1,I,6,S,8,L,23,0.773128,0.638309,0.493494
6,107,8,1,1,2,1,I,7,L,1,S,12,0.791902,0.407025,0.322324
6,108,8,2,8,1,1,C,6,S,7,L,11,0.759402,0.39801,0.30225
6,109,8,9,8,2,0,I,1,S,6,S,14,0.764791,0.460871,0.35247
6,110,1,9,9,1,1,I,8,L,8,L,22,0.640314,0.767351,0.491345
6,111,9,2,8,2,1,C,7,L,6,S,12,0.816753,0.37148,0.303407
6,112,9,8,9,2,0,C,1,S,7,L,14,0.542496,0.768737,0.417036
6,113,2,1,8,1,1,C,1,S,7,L,12,0.778108,0.403515,0.313978
6,114,8,9,8,1,0,I,1,S,7,L,13,0.767797,0.443837,0.340777
6,115,9,8,8,9,0,I,1,S,1,S,11,0.347473,0.824024,0.286326
6,116,9,1,1,9,1,I,8,L,8,L,15,0.768681,0.564665,0.434047
6,117,1,8,9,1,1,I,7,L,8,L,13,0.533107,0.762408,0.406445
6,118,9,8,2,8,0,I,1,S,6,S,10,0.315691,0.831101,0.262371
6,119,2,8,9,2,1,I,6,S,7,L,12,0.471043,0.788951,0.37163
6,120,1,9,1,2,1,C,8,L,1,S,14,0.412523,0.804801,0.331999
6,121,8,1,2,1,1,C,7,L,1,S,11,0.761977,0.397925,0.30321
6,122,8,2,2,9,1,I,6,S,7,L,23,0.769378,0.641279,0.493386
6,123,8,1,1,8,1,I,7,L,7,L,15,0.762017,0.569385,0.433881
6,124,1,8,9,8,1,I,7,L,1,S,11,0.380078,0.805461,0.306138
6,125,1,2,8,1,0,I,1,S,7,L,13,0.778353,0.433139,0.337135
6,126,1,8,2,8,1,C,7,L,6,S,9,0.326885,0.771264,0.252114
6,127,9,2,8,1,1,C,7,L,7,L,11,0.777239,0.381976,0.296887
6,128,8,1,1,9,1,I,7,L,8,L,15,0.756134,0.575028,0.434798
6,129,1,8,8,2,1,I,7,L,6,S,12,0.460289,0.778145,0.358172
6,130,2,1,9,1,1,C,1,S,8,L,11,0.754152,0.405162,0.305554
6,131,1,9,2,1,1,I,8,L,1,S,15,0.465875,0.771588,0.359464
6,132,2,9,2,8,1,C,7,L,6,S,10,0.344579,0.787958,0.271514
6,133,1,9,2,9,1,C,8,L,7,L,11,0.370776,0.79355,0.294229
6,134,8,1,9,2,1,C,7,L,7,L,10,0.795683,0.342301,0.272363
6,135,2,8,2,1,1,I,6,S,1,S,10,0.362446,0.78158,0.283281
6,136,8,1,8,2,1,C,7,L,6,S,10,0.76342,0.364611,0.278351
6,137,8,2,8,9,1,I,6,S,1,S,18,0.75225,0.568561,0.4277
6,138,2,8,8,9,1,C,6,S,1,S,10,0.321654,0.82407,0.265065
6,139,8,2,8,2,1,C,6,S,6,S,12,0.793181,0.391687,0.310679
6,140,9,1,1,2,1,I,8,L,1,S,12,0.804274,0.397136,0.319406
6,141,9,1,8,1,1,C,8,L,7,L,10,0.799053,0.335753,0.268285
6,142,1,9,9,2,1,I,8,L,7,L,21,0.640253,0.757568,0.485035
6,143,1,2,9,8,0,I,1,S,1,S,20,0.751569,0.52301,0.393078
6,144,2,9,9,2,1,I,7,L,7,L,16,0.581375,0.764676,0.444564
7,1,8,2,2,9,1,I,6,S,7,L,13,0.780968,0.510741,0.398872
7,2,9,2,2,9,1,I,7,L,7,L,16,0.763494,0.585683,0.447166
7,3,1,9,8,1,1,I,8,L,7,L,13,0.480223,0.778138,0.37368
7,4,8,9,1,2,0,C,1,S,1,S,12,0.774873,0.429694,0.332959
7,5,1,2,9,2,1,I,1,S,7,L,21,0.652552,0.752448,0.491012
7,6,2,1,2,8,1,I,1,S,6,S,19,0.758263,0.612042,0.464089
7,7,1,2,1,9,1,C,1,S,8,L,10,0.329891,0.811259,0.267627
7,8,1,2,8,1,1,I,1,S,7,L,18,0.585966,0.766142,0.448933
7,9,8,1,8,1,1,C,7,L,7,L,9,0.792053,0.313986,0.248693
7,10,2,9,8,2,1,I,7,L,6,S,16,0.593829,0.773381,0.459256
7,11,8,1,9,2,1,C,7,L,7,L,8,0.768911,0.283768,0.218192
7,12,2,1,8,2,1,C,1,S,6,S,10,0.761402,0.370736,0.282279
7,13,2,8,9,1,1,I,6,S,8,L,14,0.532106,0.775089,0.41243
7,14,1,8,9,1,1,I,7,L,8,L,14,0.527125,0.778659,0.41045
7,15,1,8,2,9,1,C,7,L,7,L,10,0.305382,0.838,0.25591
7,16,9,1,9,2,1,C,8,L,7,L,9,0.828907,0.281287,0.233161
7,17,2,8,2,8,1,C,6,S,6,S,10,0.344155,0.790853,0.272176
7,18,9,1,1,8,1,I,8,L,7,L,14,0.769172,0.567491,0.436498
7,19,8,9,2,1,0,I,1,S,1,S,11,0.758548,0.407607,0.309189
7,20,8,1,2,9,1,I,7,L,7,L,11,0.771102,0.455854,0.35151
7,21,9,1,2,1,1,C,8,L,1,S,10,0.764698,0.374504,0.286383
7,22,9,8,8,2,1,C,1,S,6,S,11,0.769377,0.395801,0.30452
7,23,2,8,8,9,1,C,6,S,1,S,10,0.349823,0.782594,0.27377
7,24,8,9,1,9,0,C,1,S,8,L,17,0.758654,0.629525,0.477592
7,25,2,9,2,1,1,I,7,L,1,S,11,0.399495,0.769758,0.307515
7,26,8,9,8,1,0,I,1,S,7,L,10,0.760417,0.370157,0.281474
7,27,8,2,1,9,1,I,6,S,8,L,14,0.75033,0.590778,0.443279
7,28,8,1,1,2,1,I,7,L,1,S,10,0.798386,0.358408,0.286148
7,29,2,8,8,1,1,I,6,S,7,L,13,0.473548,0.787068,0.372715
7,30,8,1,8,2,1,C,7,L,6,S,8,0.752625,0.29613,0.222875
7,31,2,8,9,8,1,I,6,S,1,S,12,0.425206,0.786077,0.334245
7,32,9,2,1,8,1,I,7,L,7,L,18,0.772939,0.618498,0.478062
7,33,2,1,1,8,1,I,1,S,7,L,22,0.762493,0.651125,0.496479
7,34,8,2,8,9,1,I,6,S,1,S,11,0.754007,0.4391,0.331084
7,35,8,9,9,8,0,I,1,S,1,S,11,0.805883,0.362243,0.291925
7,36,9,2,2,1,1,C,7,L,1,S,12,0.796835,0.39547,0.315124
7,37,1,9,1,9,1,C,8,L,8,L,9,0.302648,0.801907,0.242695
7,38,1,2,9,1,1,I,1,S,8,L,20,0.616368,0.772203,0.475961
7,39,2,9,9,1,1,I,7,L,8,L,14,0.54473,0.761552,0.414841
7,40,2,1,8,1,1,C,1,S,7,L,12,0.807239,0.379425,0.306286
7,41,2,1,1,9,0,I,1,S,8,L,13,0.500453,0.757334,0.37901
7,42,8,1,9,1,1,C,7,L,8,L,9,0.821158,0.290004,0.238139
7,43,9,2,8,9,1,I,7,L,1,S,14,0.765228,0.513593,0.393015
7,44,1,2,8,2,1,I,1,S,6,S,21,0.639961,0.763427,0.488563
7,45,1,9,9,8,1,I,8,L,1,S,12,0.431634,0.777362,0.335536
7,46,1,2,2,9,1,C,1,S,7,L,11,0.351978,0.81225,0.285894
7,47,1,2,1,2,1,C,1,S,1,S,12,0.415145,0.756829,0.314194
7,48,9,8,2,8,0,I,1,S,6,S,15,0.476955,0.767074,0.36586
7,49,9,8,1,9,0,I,1,S,8,L,11,0.401411,0.775394,0.311252
7,50,1,8,2,8,1,C,7,L,6,S,10,0.338969,0.794456,0.269296
7,51,2,9,8,1,1,I,7,L,7,L,13,0.486344,0.773154,0.376019
7,52,8,9,9,1,0,I,1,S,8,L,10,0.798181,0.340241,0.271574
7,53,2,1,9,1,1,C,1,S,8,L,11,0.783343,0.378314,0.29635
7,54,2,8,1,8,1,C,6,S,7,L,9,0.313518,0.786685,0.24664
7,55,1,9,2,1,1,I,8,L,1,S,11,0.393402,0.774574,0.304719
7,56,1,8,8,2,1,I,7,L,6,S,15,0.581992,0.762908,0.444006
7,57,8,2,2,1,1,C,6,S,1,S,10,0.762879,0.376182,0.286981
7,58,8,2,2,8,1,I,6,S,6,S,12,0.789743,0.449747,0.355185
7,59,8,9,8,9,0,C,1,S,1,S,13,0.757865,0.497415,0.376973
7,60,9,1,8,1,1,C,8,L,7,L,10,0.827782,0.317885,0.263139
7,61,2,1,1,2,1,I,1,S,1,S,16,0.774018,0.507291,0.392653
7,62,8,1,1,9,1,I,7,L,8,L,13,0.782245,0.545133,0.426427
7,63,2,1,9,8,1,C,1,S,1,S,12,0.75883,0.415983,0.315661
7,64,2,9,1,9,1,C,7,L,8,L,9,0.30788,0.798491,0.24584
7,65,9,2,1,9,1,I,7,L,8,L,18,0.7592,0.634869,0.481992
7,66,2,1,8,9,1,I,1,S,1,S,19,0.767988,0.599375,0.460312
7,67,8,1,9,8,1,C,7,L,1,S,9,0.770656,0.33113,0.255187
7,68,9,8,9,8,1,C,1,S,1,S,14,0.754517,0.448621,0.338492
7,69,1,8,9,8,1,I,7,L,1,S,12,0.419813,0.790131,0.331707
7,70,8,1,1,8,1,I,7,L,7,L,12,0.767511,0.51901,0.398346
7,71,1,9,9,2,1,I,8,L,7,L,16,0.60762,0.761489,0.462696
7,72,1,9,2,8,1,C,8,L,6,S,10,0.349467,0.783683,0.273871
7,73,1,8,1,2,1,C,7,L,1,S,11,0.34823,0.821355,0.28602
7,74,1,9,1,2,1,C,8,L,1,S,11,0.359585,0.809253,0.290995
7,75,2,8,9,2,1,I,6,S,7,L,16,0.601175,0.769604,0.462667
7,76,9,8,1,8,0,I,1,S,7,L,11,0.418828,0.751918,0.314924
7,77,1,8,1,8,1,C,7,L,7,L,9,0.308723,0.789655,0.243784
7,78,9,2,9,1,1,C,7,L,8,L,10,0.78031,0.349957,0.273075
7,79,8,1,2,1,1,C,7,L,1,S,10,0.823066,0.333814,0.274751
7,80,1,8,2,1,1,I,7,L,1,S,11,0.382047,0.786676,0.300547
7,81,9,1,2,8,1,I,8,L,6,S,12,0.79169,0.447967,0.354651
7,82,9,8,9,2,1,C,1,S,7,L,11,0.792008,0.37889,0.300084
7,83,8,2,9,8,1,C,6,S,1,S,10,0.796614,0.342724,0.273018
7,84,1,8,8,9,1,C,7,L,1,S,10,0.344637,0.786196,0.270953
7,85,9,8,2,1,1,C,1,S,1,S,18,0.756059,0.478572,0.361828
7,86,2,8,8,2,1,I,6,S,6,S,15,0.586622,0.759782,0.445705
7,87,2,9,1,2,1,C,7,L,1,S,11,0.365679,0.804437,0.294165
7,88,1,9,8,2,1,I,8,L,6,S,15,0.593271,0.751231,0.445684
7,89,9,1,1,2,1,I,8,L,1,S,11,0.7997,0.384673,0.307623
7,90,8,2,8,1,1,C,6,S,7,L,10,0.825962,0.319562,0.263946
7,91,2,9,8,9,1,C,7,L,1,S,10,0.360903,0.771168,0.278317
7,92,9,8,2,9,0,I,1,S,7,L,13,0.443148,0.772257,0.342224
7,93,2,8,1,9,1,C,6,S,8,L,9,0.29817,0.807812,0.240865
7,94,1,2,9,8,1,I,1,S,1,S,16,0.521109,0.769598,0.401044
7,95,9,2,2,8,1,I,7,L,6,S,14,0.755167,0.528064,0.398777
7,96,8,2,9,2,1,C,6,S,7,L,9,0.827301,0.282823,0.23398
7,97,9,8,1,2,1,I,1,S,1,S,26,0.763202,0.630676,0.481333
7,98,2,8,1,2,1,C,6,S,1,S,11,0.353612,0.817386,0.289038
7,99,8,1,8,9,1,I,7,L,1,S,10,0.764332,0.397914,0.304138
7,100,8,9,2,8,0,C,1,S,6,S,14,0.780904,0.512031,0.399847
7,101,1,9,1,8,1,C,8,L,7,L,9,0.317996,0.78078,0.248285
7,102,2,8,2,9,1,C,6,S,7,L,10,0.310568,0.834398,0.259137
7,103,2,8,2,1,1,I,6,S,1,S,11,0.387429,0.782707,0.303243
7,104,9,2,8,2,1,C,7,L,6,S,10,0.829147,0.313945,0.260307
7,105,1,9,8,9,1,C,8,L,1,S,10,0.355135,0.775424,0.27538
7,106,9,2,1,2,1,I,7,L,1,S,12,0.751325,0.443467,0.333188
7,107,2,9,2,8,1,C,7,L,6,S,10,0.355235,0.779428,0.27688
7,108,9,1,8,9,1,I,8,L,1,S,11,0.755938,0.437343,0.330604
7,109,9,1,9,1,1,C,8,L,8,L,9,0.768229,0.326665,0.250954
7,110,8,9,1,8,0,C,1,S,7,L,17,0.77332,0.611858,0.473162
7,111,8,2,8,2,1,C,6,S,6,S,9,0.807887,0.297248,0.240143
7,112,2,9,2,9,1,C,7,L,7,L,10,0.321648,0.822972,0.264707
7,113,1,9,2,9,1,C,8,L,7,L,10,0.31588,0.827227,0.261304
7,114,2,9,9,8,1,I,7,L,1,S,12,0.437836,0.772313,0.338147
7,115,1,8,1,9,1,C,7,L,8,L,9,0.293374,0.810782,0.237863
7,116,9,1,1,9,1,I,8,L,8,L,14,0.752118,0.58908,0.443057
7,117,9,8,8,1,1,C,1,S,7,L,13,0.765971,0.431156,0.330253
7,118,1,2,2,8,1,C,1,S,6,S,11,0.390863,0.760795,0.297367
7,119,2,1,9,2,1,C,1,S,7,L,10,0.782948,0.354784,0.277777
7,120,8,2,1,2,1,I,6,S,1,S,11,0.79777,0.38643,0.308282
7,121,1,2,2,1,1,I,1,S,1,S,13,0.438828,0.757856,0.332568
7,122,8,2,9,1,1,C,6,S,8,L,9,0.766624,0.328202,0.251607
7,123,2,9,1,8,1,C,7,L,7,L,9,0.323229,0.777364,0.251266
7,124,9,1,2,9,1,I,8,L,7,L,13,0.78286,0.508984,0.398463
7,125,1,2,8,9,1,C,1,S,1,S,11,0.397938,0.750456,0.298635
7,126,9,1,9,8,1,C,8,L,1,S,10,0.798434,0.341046,0.272303
7,127,9,8,9,1,1,C,1,S,8,L,12,0.768451,0.415006,0.318912
7,128,1,9,9,1,1,I,8,L,8,L,14,0.538844,0.766241,0.412884
7,129,9,1,8,2,1,C,8,L,6,S,9,0.809492,0.295712,0.239376
7,130,2,1,2,1,1,C,1,S,1,S,14,0.789743,0.430031,0.339614
7,131,1,2,1,8,1,C,1,S,7,L,10,0.346558,0.788446,0.273242
7,132,9,2,9,8,1,C,7,L,1,S,11,0.784793,0.374173,0.293648
7,133,8,2,1,8,1,I,6,S,7,L,14,0.767384,0.569189,0.436787
7,134,9,8,8,9,0,I,1,S,1,S,15,0.487411,0.7523,0.36668
7,135,8,9,2,9,0,C,1,S,7,L,15,0.762721,0.572294,0.436501
7,136,8,1,2,8,1,I,7,L,6,S,10,0.758664,0.406173,0.308149
7,137,8,9,8,2,0,I,1,S,6,S,9,0.752866,0.340853,0.256616
7,138,9,2,9,2,1,C,7,L,7,L,9,0.757988,0.333754,0.252981
7,139,1,8,9,2,1,I,7,L,7,L,16,0.59695,0.772223,0.460979
7,140,2,1,2,9,1,I,1,S,7,L,21,0.767827,0.632754,0.485846
7,141,8,9,9,2,0,I,1,S,7,L,9,0.772281,0.326428,0.252094
7,142,1,8,8,1,1,I,7,L,7,L,12,0.468222,0.753572,0.352839
7,143,9,2,8,1,1,C,7,L,7,L,11,0.823418,0.34435,0.283544
7,144,2,9,9,2,1,I,7,L,7,L,16,0.612735,0.757796,0.464329
8,1,8,1,2,1,1,C,7,L,1,S,10,0.796727,0.349788,0.278686
8,2,8,9,8,2,0,I,1,S,6,S,10,0.839418,0.30843,0.258902
8,3,8,2,8,1,1,C,6,S,7,L,9,0.75759,0.334592,0.253483
8,4,2,8,2,1,1,I,6,S,1,S,11,0.395029,0.780049,0.308142
8,5,9,1,9,8,1,C,8,L,1,S,12,0.792287,0.413358,0.327498
8,6,8,9,8,1,0,I,1,S,7,L,10,0.816097,0.325282,0.265462
8,7,1,2,8,9,0,C,1,S,1,S,15,0.779902,0.456893,0.356332
8,8,8,2,2,8,1,I,6,S,6,S,12,0.755514,0.490998,0.370956
8,9,8,1,2,8,1,I,7,L,6,S,12,0.789076,0.46666,0.36823
8,10,1,2,9,8,1,I,1,S,1,S,16,0.453513,0.770833,0.349583
8,11,8,2,2,1,1,C,6,S,1,S,10,0.765844,0.371538,0.28454
8,12,2,1,8,1,1,C,1,S,7,L,12,0.764296,0.420738,0.321568
8,13,1,9,8,9,1,C,8,L,1,S,18,0.592947,0.759264,0.450203
8,14,1,8,2,9,1,C,7,L,7,L,11,0.367376,0.799582,0.293747
8,15,1,9,1,2,1,C,8,L,1,S,12,0.414893,0.761425,0.31591
8,16,9,1,9,1,1,C,8,L,8,L,10,0.797575,0.341327,0.272234
8,17,9,1,2,9,1,I,8,L,7,L,12,0.780394,0.42843,0.334344
8,18,9,8,2,9,0,I,1,S,7,L,13,0.422939,0.775465,0.327974
8,19,2,9,8,9,1,C,7,L,1,S,15,0.546252,0.755238,0.41255
8,20,9,1,8,1,1,C,8,L,7,L,10,0.801759,0.336726,0.269973
8,21,2,8,1,9,1,C,6,S,8,L,10,0.324682,0.819255,0.265997
8,22,9,8,8,2,0,C,1,S,6,S,23,0.64133,0.771396,0.494719
8,23,9,1,1,8,1,I,8,L,7,L,16,0.77604,0.588745,0.45689
8,24,8,1,9,2,1,C,7,L,7,L,9,0.801282,0.304708,0.244157
8,25,2,9,2,8,1,C,7,L,6,S,10,0.37434,0.752701,0.281766
8,26,1,2,9,1,0,I,1,S,8,L,13,0.75731,0.450725,0.341339
8,27,8,1,8,1,1,C,7,L,7,L,9,0.784973,0.315305,0.247506
8,28,2,1,1,2,1,I,1,S,1,S,26,0.764226,0.636289,0.486268
8,29,1,8,8,2,1,I,7,L,6,S,15,0.573768,0.761011,0.436643
8,30,2,8,8,2,1,I,6,S,6,S,14,0.548498,0.769014,0.421802
8,31,1,9,9,2,1,I,8,L,7,L,20,0.636012,0.757462,0.481755
8,32,1,9,8,2,1,I,8,L,6,S,20,0.63743,0.755193,0.481383
8,33,9,8,8,9,0,I,1,S,1,S,21,0.620366,0.767139,0.475907
8,34,9,2,9,1,1,C,7,L,8,L,10,0.750513,0.376815,0.282805
8,35,1,8,1,9,1,C,7,L,8,L,10,0.344337,0.790426,0.272173
8,36,8,9,1,8,0,C,1,S,7,L,15,0.766634,0.579636,0.444368
8,37,8,2,8,2,1,C,6,S,6,S,9,0.776611,0.320581,0.248967
8,38,8,1,1,9,1,I,7,L,8,L,11,0.755197,0.454669,0.343365
8,39,9,8,2,1,0,C,1,S,1,S,16,0.468045,0.786909,0.368309
8,40,8,2,1,8,1,I,6,S,7,L,14,0.779859,0.548938,0.428095
8,41,2,1,2,8,0,I,1,S,6,S,13,0.461686,0.751917,0.347149
8,42,8,2,9,1,1,C,6,S,8,L,9,0.754335,0.338575,0.255399
8,43,1,8,2,1,1,I,7,L,1,S,12,0.396476,0.8044,0.318925
8,44,2,9,9,1,1,I,7,L,8,L,17,0.584856,0.77474,0.453112
8,45,9,8,1,9,0,I,1,S,8,L,12,0.376054,0.817466,0.307411
8,46,1,2,1,8,1,C,1,S,7,L,11,0.408498,0.754626,0.308263
8,47,9,8,1,2,0,I,1,S,1,S,13,0.420159,0.779198,0.327387
8,48,1,9,9,8,1,I,8,L,1,S,13,0.394991,0.806181,0.318434
8,49,8,9,9,2,0,I,1,S,7,L,10,0.836137,0.312205,0.261046
8,50,9,8,2,8,0,I,1,S,6,S,11,0.401889,0.75803,0.304644
8,51,9,2,2,1,1,C,7,L,1,S,12,0.785399,0.402707,0.316286
8,52,1,8,9,2,1,I,7,L,7,L,15,0.570518,0.764714,0.436283
8,53,9,1,2,8,1,I,8,L,6,S,14,0.761502,0.542886,0.413409
8,54,2,1,2,9,1,I,1,S,7,L,26,0.767248,0.632708,0.485444
8,55,8,9,1,2,0,C,1,S,1,S,12,0.795667,0.417684,0.332337
8,56,2,1,1,8,0,I,1,S,7,L,12,0.429849,0.769894,0.330938
8,57,1,2,1,9,1,C,1,S,8,L,13,0.413752,0.793532,0.328325
8,58,8,9,9,8,0,I,1,S,1,S,11,0.755919,0.415912,0.314396
8,59,9,2,2,8,1,I,7,L,6,S,17,0.775155,0.58621,0.454404
8,60,8,9,2,9,0,C,1,S,7,L,12,0.797876,0.414759,0.330926
8,61,9,2,8,1,1,C,7,L,7,L,10,0.754697,0.372214,0.280909
8,62,8,1,8,9,1,I,7,L,1,S,9,0.760191,0.334975,0.254645
8,63,8,9,1,9,0,C,1,S,8,L,13,0.755515,0.517521,0.390995
8,64,2,1,9,8,1,C,1,S,1,S,25,0.764712,0.622519,0.476048
8,65,2,9,1,8,1,C,7,L,7,L,10,0.340818,0.797793,0.271902
8,66,9,1,8,9,1,I,8,L,1,S,10,0.76956,0.361467,0.278171
8,67,2,1,8,9,1,I,1,S,1,S,13,0.769586,0.43022,0.331091
8,68,8,1,8,2,1,C,7,L,6,S,9,0.803994,0.301294,0.242239
8,69,1,8,8,1,1,I,7,L,7,L,14,0.544914,0.7547,0.411247
8,70,8,2,8,9,1,I,6,S,1,S,10,0.82078,0.32192,0.264225
8,71,8,2,9,2,1,C,6,S,7,L,9,0.773898,0.323995,0.250739
8,72,2,1,9,1,1,C,1,S,8,L,12,0.758879,0.426117,0.323371
8,73,8,1,9,1,1,C,7,L,8,L,9,0.781718,0.319289,0.249594
8,74,9,2,1,2,1,I,7,L,1,S,13,0.756124,0.469967,0.355354
8,75,2,9,8,2,1,I,7,L,6,S,18,0.607084,0.773898,0.469821
8,76,8,1,1,2,1,I,7,L,1,S,10,0.7592,0.388891,0.295246
8,77,1,8,9,8,1,I,7,L,1,S,11,0.376325,0.78833,0.296668
8,78,9,1,8,2,1,C,8,L,6,S,10,0.82508,0.319874,0.263922
8,79,1,8,9,1,1,I,7,L,8,L,14,0.539384,0.760167,0.410021
8,80,9,2,8,2,1,C,7,L,6,S,10,0.778018,0.355362,0.276478
8,81,9,8,8,1,0,C,1,S,7,L,22,0.640073,0.762379,0.487979
8,82,8,2,1,2,1,I,6,S,1,S,11,0.785903,0.398591,0.313253
8,83,2,8,2,8,1,C,6,S,6,S,10,0.318826,0.826341,0.263459
8,84,9,8,9,1,0,C,1,S,8,L,22,0.6381,0.765191,0.488268
8,85,8,2,2,9,1,I,6,S,7,L,11,0.78758,0.39638,0.312181
8,86,2,8,1,8,1,C,6,S,7,L,9,0.325049,0.772523,0.251108
8,87,2,9,8,1,1,I,7,L,7,L,17,0.589256,0.770027,0.453743
8,88,8,2,1,9,1,I,6,S,8,L,12,0.762772,0.481831,0.367528
8,89,1,2,2,9,1,C,1,S,7,L,15,0.459464,0.757438,0.348016
8,90,2,9,2,1,1,I,7,L,1,S,13,0.422651,0.793861,0.335526
8,91,2,1,1,9,0,I,1,S,8,L,14,0.462328,0.772572,0.357182
8,92,1,9,1,9,1,C,8,L,8,L,11,0.378932,0.780614,0.2958
8,93,2,9,9,8,1,I,7,L,1,S,12,0.387275,0.800269,0.309924
8,94,8,2,9,8,1,C,6,S,1,S,11,0.796528,0.385128,0.306765
8,95,9,8,1,8,0,I,1,S,7,L,11,0.364703,0.808329,0.2948
8,96,1,2,1,2,1,C,1,S,1,S,15,0.455641,0.762703,0.347519
8,97,8,1,9,8,1,C,7,L,1,S,10,0.766909,0.379044,0.290692
8,98,2,1,2,1,1,C,1,S,1,S,16,0.75256,0.469123,0.353043
8,99,8,9,9,1,0,I,1,S,8,L,10,0.811913,0.329883,0.267836
8,100,9,1,2,1,1,C,8,L,1,S,11,0.7808,0.387519,0.302575
8,101,8,9,2,1,0,I,1,S,1,S,11,0.79711,0.374738,0.298707
8,102,1,2,2,1,1,I,1,S,1,S,27,0.620478,0.758275,0.470493
8,103,8,1,2,9,1,I,7,L,7,L,10,0.76042,0.387263,0.294482
8,104,9,8,9,2,0,C,1,S,7,L,23,0.640817,0.772877,0.495272
8,105,8,1,1,8,1,I,7,L,7,L,13,0.782955,0.523442,0.409832
8,106,1,2,9,2,0,I,1,S,7,L,13,0.789086,0.427417,0.337269
8,107,2,8,1,2,1,C,6,S,1,S,10,0.375979,0.7572,0.284691
8,108,9,1,1,2,1,I,8,L,1,S,12,0.778185,0.431354,0.335673
8,109,9,2,9,2,1,C,7,L,7,L,10,0.774736,0.359137,0.278237
8,110,2,9,1,2,1,C,7,L,1,S,12,0.373173,0.818265,0.305354
8,111,2,8,9,1,1,I,6,S,8,L,13,0.511625,0.765398,0.391596
8,112,1,9,9,1,1,I,8,L,8,L,19,0.624053,0.752853,0.46982
8,113,2,8,8,1,1,I,6,S,7,L,13,0.517227,0.759896,0.393038
8,114,2,9,9,2,1,I,7,L,7,L,17,0.612794,0.752557,0.461162
8,115,2,9,2,9,1,C,7,L,7,L,12,0.375381,0.815341,0.306064
8,116,9,8,9,8,0,C,1,S,1,S,13,0.438134,0.755869,0.331172
8,117,9,2,1,8,1,I,7,L,7,L,18,0.763433,0.621553,0.474514
8,118,1,2,2,8,1,C,1,S,6,S,12,0.428522,0.753826,0.323031
8,119,1,8,1,2,1,C,7,L,1,S,11,0.365699,0.801792,0.293215
8,120,2,1,9,2,1,C,1,S,7,L,12,0.789444,0.403962,0.318906
8,121,9,2,9,8,1,C,7,L,1,S,13,0.774099,0.446638,0.345742
8,122,1,8,8,9,1,C,7,L,1,S,13,0.494134,0.75948,0.375285
8,123,1,9,2,9,1,C,8,L,7,L,12,0.417101,0.758501,0.316372
8,124,1,8,1,8,1,C,7,L,7,L,10,0.304958,0.842605,0.256959
8,125,2,8,9,8,1,I,6,S,1,S,11,0.353838,0.821223,0.29058
8,126,9,2,8,9,1,I,7,L,1,S,11,0.799075,0.364248,0.291062
8,127,1,2,8,1,0,I,1,S,7,L,13,0.762913,0.445223,0.339666
8,128,9,2,1,9,1,I,7,L,8,L,16,0.757246,0.58225,0.440906
8,129,1,9,2,8,1,C,8,L,6,S,11,0.372263,0.788934,0.293691
8,130,2,8,9,2,1,I,6,S,7,L,14,0.544954,0.772924,0.421208
8,131,2,8,2,9,1,C,6,S,7,L,10,0.377198,0.755572,0.285
8,132,1,9,1,8,1,C,8,L,7,L,10,0.368394,0.761578,0.28056
8,133,1,2,8,2,0,I,1,S,6,S,12,0.752324,0.437003,0.328768
8,134,8,9,2,8,0,C,1,S,6,S,14,0.779167,0.528713,0.411956
8,135,8,9,8,9,0,C,1,S,1,S,10,0.783898,0.350023,0.274383
8,136,2,8,8,9,1,C,6,S,1,S,12,0.469009,0.758005,0.355512
8,137,9,1,1,9,1,I,8,L,8,L,14,0.769232,0.533264,0.410203
8,138,2,9,1,9,1,C,7,L,8,L,11,0.344105,0.827261,0.284664
8,139,9,1,9,2,1,C,8,L,7,L,10,0.821799,0.323649,0.265974
8,140,1,9,8,1,1,I,8,L,7,L,20,0.616734,0.772328,0.476321
8,141,2,1,8,2,1,C,1,S,6,S,12,0.793235,0.39988,0.317198
8,142,1,9,2,1,1,I,8,L,1,S,14,0.451697,0.771836,0.348636
8,143,1,8,2,8,1,C,7,L,6,S,10,0.338481,0.797512,0.269943
8,144,9,2,2,9,1,I,7,L,7,L,13,0.758904,0.466235,0.353828
9,1,8,9,8,1,1,I,1,S,7,L,17,0.602525,0.770057,0.463978
9,2,9,8,9,2,1,C,1,S,7,L,11,0.781438,0.388075,0.303256
9,3,8,2,9,8,1,C,6,S,1,S,12,0.788274,0.400583,0.315769
9,4,8,2,8,1,1,C,6,S,7,L,10,0.76184,0.372047,0.28344
9,5,2,8,2,9,1,C,6,S,7,L,10,0.306217,0.838002,0.256611
9,6,1,9,9,8,1,I,8,L,1,S,11,0.415545,0.765226,0.317986
9,7,8,2,2,9,1,I,6,S,7,L,18,0.774042,0.597369,0.462389
9,8,9,8,1,9,0,I,1,S,8,L,12,0.428995,0.775128,0.332526
9,9,1,9,2,8,1,C,8,L,6,S,10,0.355557,0.782252,0.278135
9,10,1,9,2,1,1,I,8,L,1,S,11,0.386541,0.790538,0.305575
9,11,2,1,2,1,1,C,1,S,1,S,14,0.750835,0.453796,0.340726
9,12,2,9,9,1,1,I,7,L,8,L,13,0.513425,0.750843,0.385502
9,13,9,8,2,1,1,C,1,S,1,S,16,0.780613,0.445492,0.347757
9,14,1,8,8,1,1,I,7,L,7,L,12,0.507947,0.752109,0.382032
9,15,2,1,9,2,1,C,1,S,7,L,11,0.80558,0.365305,0.294282
9,16,2,9,9,2,1,I,7,L,7,L,16,0.596335,0.769461,0.458857
9,17,9,1,1,8,1,I,8,L,7,L,12,0.757719,0.51364,0.389195
9,18,2,1,2,9,1,I,1,S,7,L,23,0.765113,0.637164,0.487503
9,19,2,8,2,1,1,I,6,S,1,S,11,0.369135,0.808829,0.298567
9,20,2,9,8,1,1,I,7,L,7,L,15,0.573918,0.763792,0.438354
9,21,9,2,1,9,1,I,7,L,8,L,13,0.772078,0.541969,0.418442
9,22,8,2,1,2,1,I,6,S,1,S,13,0.771643,0.439053,0.338792
9,23,8,2,2,8,1,I,6,S,6,S,15,0.750521,0.539986,0.405271
9,24,1,9,9,1,1,I,8,L,8,L,12,0.486085,0.750958,0.365029
9,25,8,9,9,1,1,I,1,S,8,L,15,0.555238,0.763132,0.42372
9,26,1,2,9,2,0,I,1,S,7,L,12,0.794571,0.410194,0.325928
9,27,2,9,1,2,1,C,7,L,1,S,11,0.389843,0.775451,0.302304
9,28,1,2,9,1,0,I,1,S,8,L,14,0.78519,0.44659,0.350658
9,29,2,8,9,2,1,I,6,S,7,L,14,0.560307,0.7682,0.430428
9,30,9,8,8,1,1,C,1,S,7,L,11,0.753551,0.407473,0.307052
9,31,9,8,8,2,1,C,1,S,6,S,11,0.81048,0.36573,0.296417
9,32,1,9,1,9,1,C,8,L,8,L,9,0.309716,0.793184,0.245662
9,33,9,1,9,8,1,C,8,L,1,S,10,0.818129,0.333333,0.27271
9,34,2,1,1,2,1,I,1,S,1,S,16,0.77669,0.464471,0.36075
9,35,8,9,2,8,1,C,1,S,6,S,11,0.374448,0.792348,0.296693
9,36,8,1,2,1,1,C,7,L,1,S,12,0.753852,0.429089,0.32347
9,37,9,1,1,2,1,I,8,L,1,S,10,0.78352,0.364242,0.285391
9,38,9,1,2,1,1,C,8,L,1,S,10,0.797273,0.351605,0.280325
9,39,1,8,1,9,1,C,7,L,8,L,9,0.281488,0.828485,0.233209
9,40,2,1,9,1,1,C,1,S,8,L,12,0.788207,0.396013,0.31214
9,41,8,9,1,9,1,C,1,S,8,L,10,0.317812,0.830959,0.264089
9,42,9,1,2,8,1,I,8,L,6,S,11,0.801812,0.398919,0.319858
9,43,8,1,9,2,1,C,7,L,7,L,10,0.790699,0.350076,0.276805
9,44,2,8,9,8,1,I,6,S,1,S,11,0.398139,0.783517,0.311948
9,45,2,9,2,1,1,I,7,L,1,S,11,0.408933,0.757539,0.309783
9,46,1,2,2,8,1,C,1,S,6,S,14,0.455993,0.760915,0.346972
9,47,2,8,8,9,1,C,6,S,1,S,11,0.418052,0.763084,0.319009
9,48,8,1,1,2,1,I,7,L,1,S,13,0.777562,0.432982,0.336671
9,49,2,8,2,8,1,C,6,S,6,S,10,0.339098,0.799117,0.270979
9,50,2,9,2,8,1,C,7,L,6,S,10,0.375269,0.753051,0.282597
9,51,2,9,1,8,1,C,7,L,7,L,10,0.304923,0.843899,0.257324
9,52,9,2,8,1,1,C,7,L,7,L,9,0.810424,0.29942,0.242657
9,53,2,1,8,2,1,C,1,S,6,S,10,0.765858,0.369769,0.28319
9,54,9,8,8,9,1,I,1,S,1,S,14,0.802238,0.410888,0.32963
9,55,9,1,9,1,1,C,8,L,8,L,9,0.77438,0.327467,0.253584
9,56,8,1,2,9,1,I,7,L,7,L,17,0.755023,0.598114,0.45159
9,57,9,2,8,2,1,C,7,L,6,S,9,0.857839,0.264763,0.227124
9,58,9,8,2,9,0,I,1,S,7,L,15,0.492835,0.763118,0.376092
9,59,9,8,9,1,1,C,1,S,8,L,12,0.755136,0.426021,0.321704
9,60,1,8,9,8,1,I,7,L,1,S,11,0.381293,0.809122,0.308513
9,61,1,9,8,2,1,I,8,L,6,S,15,0.60086,0.757109,0.454916
9,62,8,1,8,9,1,I,7,L,1,S,12,0.819873,0.369841,0.303222
9,63,9,2,2,9,1,I,7,L,7,L,11,0.761601,0.449573,0.342395
9,64,1,2,2,1,1,I,1,S,1,S,28,0.628324,0.757444,0.475921
9,65,1,8,2,8,1,C,7,L,6,S,10,0.323743,0.822887,0.266403
9,66,9,2,1,2,1,I,7,L,1,S,10,0.78314,0.365821,0.286489
9,67,2,8,1,2,1,C,6,S,1,S,10,0.375923,0.756738,0.284475
9,68,1,8,1,2,1,C,7,L,1,S,10,0.360567,0.780508,0.281426
9,69,8,9,9,2,1,I,1,S,7,L,17,0.626542,0.751268,0.4707
9,70,2,9,9,8,1,I,7,L,1,S,12,0.426295,0.782018,0.33337
9,71,9,2,2,8,1,I,7,L,6,S,11,0.8015,0.400413,0.320931
9,72,2,1,1,9,0,I,1,S,8,L,13,0.468511,0.768675,0.360133
9,73,2,8,1,8,1,C,6,S,7,L,9,0.310381,0.788165,0.244631
9,74,8,1,1,8,1,I,7,L,7,L,19,0.761522,0.633064,0.482092
9,75,1,9,2,9,1,C,8,L,7,L,10,0.322677,0.821136,0.264962
9,76,8,2,9,1,1,C,6,S,8,L,11,0.790937,0.376411,0.297718
9,77,8,2,8,2,1,C,6,S,6,S,10,0.815298,0.333152,0.271618
9,78,8,2,8,9,1,I,6,S,1,S,12,0.814659,0.375477,0.305885
9,79,8,1,2,8,1,I,7,L,6,S,15,0.756896,0.533641,0.403911
9,80,1,8,2,9,1,C,7,L,7,L,9,0.328413,0.766217,0.251636
9,81,2,8,1,9,1,C,6,S,8,L,9,0.294804,0.80764,0.238096
9,82,9,2,9,1,1,C,7,L,8,L,9,0.773996,0.329077,0.254704
9,83,1,9,8,1,1,I,8,L,7,L,14,0.549145,0.771614,0.423727
9,84,2,9,8,9,1,C,7,L,1,S,12,0.45268,0.756912,0.342638
9,85,9,1,8,2,1,C,8,L,6,S,9,0.858223,0.263153,0.225844
9,86,8,9,2,1,1,I,1,S,1,S,12,0.424121,0.770378,0.326734
9,87,8,1,9,8,1,C,7,L,1,S,12,0.793488,0.394948,0.313386
9,88,8,1,8,2,1,C,7,L,6,S,10,0.818516,0.328849,0.269168
9,89,8,1,1,9,1,I,7,L,8,L,20,0.771585,0.634623,0.489665
9,90,8,9,8,2,1,I,1,S,6,S,18,0.63713,0.757978,0.482931
9,91,1,8,8,9,1,C,7,L,1,S,11,0.401206,0.78869,0.316427
9,92,2,9,8,2,1,I,7,L,6,S,17,0.611899,0.774082,0.47366
9,93,9,2,2,1,1,C,7,L,1,S,10,0.796893,0.353184,0.28145
9,94,8,2,2,1,1,C,6,S,1,S,13,0.807425,0.404652,0.326726
9,95,9,8,1,2,1,I,1,S,1,S,18,0.751753,0.503832,0.378757
9,96,9,2,1,8,1,I,7,L,7,L,12,0.757523,0.515012,0.390133
9,97,8,1,9,1,1,C,7,L,8,L,11,0.795201,0.371386,0.295326
9,98,9,2,8,9,1,I,7,L,1,S,10,0.832049,0.318822,0.265275
9,99,1,2,8,2,0,I,1,S,6,S,11,0.77706,0.401586,0.312056
9,100,2,1,8,9,1,I,1,S,1,S,13,0.790881,0.404799,0.320148
9,101,1,8,9,2,1,I,7,L,7,L,13,0.540868,0.764843,0.413679
9,102,1,2,1,8,1,C,1,S,7,L,12,0.401018,0.800002,0.320815
9,103,2,9,2,9,1,C,7,L,7,L,10,0.342388,0.791936,0.27115
9,104,9,8,9,8,1,C,1,S,1,S,14,0.763013,0.444612,0.339245
9,105,8,2,9,2,1,C,6,S,7,L,10,0.787481,0.354379,0.279067
9,106,1,2,8,1,0,I,1,S,7,L,12,0.765645,0.430661,0.329733
9,107,8,9,1,2,1,C,1,S,1,S,12,0.397881,0.795359,0.316458
9,108,9,1,1,9,1,I,8,L,8,L,13,0.772131,0.540742,0.417524
9,109,1,2,9,8,0,I,1,S,1,S,17,0.753442,0.499672,0.376474
9,110,2,1,8,1,1,C,1,S,7,L,11,0.777693,0.384703,0.299181
9,111,1,9,8,9,1,C,8,L,1,S,12,0.428387,0.792233,0.339382
9,112,8,2,1,9,1,I,6,S,8,L,20,0.767459,0.63937,0.49069
9,113,2,1,9,8,1,C,1,S,1,S,13,0.757766,0.434495,0.329246
9,114,2,1,2,8,1,I,1,S,6,S,21,0.760162,0.616839,0.468897
9,115,8,9,1,8,1,C,1,S,7,L,10,0.335121,0.808958,0.271099
9,116,2,1,1,8,0,I,1,S,7,L,14,0.498465,0.761274,0.379469
9,117,2,8,8,1,1,I,6,S,7,L,13,0.530105,0.759393,0.402558
9,118,9,1,2,9,1,I,8,L,7,L,11,0.761913,0.448079,0.341397
9,119,9,1,9,2,1,C,8,L,7,L,9,0.83299,0.282509,0.235327
9,120,1,2,2,9,1,C,1,S,7,L,13,0.426449,0.783652,0.334188
9,121,9,1,8,9,1,I,8,L,1,S,10,0.832429,0.317243,0.264082
9,122,8,9,9,8,1,I,1,S,1,S,13,0.453715,0.77942,0.353634
9,123,9,2,9,2,1,C,7,L,7,L,9,0.832606,0.284119,0.236559
9,124,8,1,8,1,1,C,7,L,7,L,10,0.765057,0.367744,0.281345
9,125,1,8,9,1,1,I,7,L,8,L,11,0.449014,0.754131,0.338616
9,126,2,8,9,1,1,I,6,S,8,L,12,0.468313,0.769701,0.360461
9,127,9,8,1,8,0,I,1,S,7,L,12,0.44792,0.75136,0.33655
9,128,2,8,8,2,1,I,6,S,6,S,15,0.584581,0.773289,0.45205
9,129,1,2,1,2,1,C,1,S,1,S,19,0.458063,0.783359,0.358828
9,130,1,8,2,1,1,I,7,L,1,S,10,0.37432,0.76787,0.28743
9,131,8,2,1,8,1,I,6,S,7,L,19,0.756801,0.63826,0.483036
9,132,8,9,8,9,1,C,1,S,1,S,14,0.483613,0.785211,0.379738
9,133,1,9,9,2,1,I,8,L,7,L,14,0.577411,0.750726,0.433478
9,134,8,9,2,9,1,C,1,S,7,L,10,0.372587,0.756995,0.282046
9,135,1,9,1,2,1,C,8,L,1,S,11,0.367452,0.80845,0.297066
9,136,1,2,8,9,0,C,1,S,1,S,16,0.774625,0.471767,0.365443
9,137,9,1,8,1,1,C,8,L,7,L,9,0.810808,0.297809,0.241466
9,138,1,2,1,9,1,C,1,S,8,L,11,0.401234,0.771892,0.309709
9,139,2,9,1,9,1,C,7,L,8,L,9,0.32611,0.768971,0.250769
9,140,9,2,9,8,1,C,7,L,1,S,10,0.817749,0.334912,0.273874
9,141,1,8,8,2,1,I,7,L,6,S,14,0.569208,0.771871,0.439355
9,142,1,8,1,8,1,C,7,L,7,L,9,0.297065,0.809009,0.240328
9,143,1,9,1,8,1,C,8,L,7,L,9,0.325293,0.773709,0.251682
9,144,9,8,2,8,1,I,1,S,6,S,25,0.763787,0.639179,0.488196
10,1,2,1,9,2,1,C,1,S,7,L,12,0.779887,0.414742,0.323452
10,2,1,2,9,1,1,I,1,S,8,L,22,0.631053,0.773443,0.488083
10,3,2,9,8,2,1,I,7,L,6,S,14,0.543524,0.766837,0.416794
10,4,2,9,8,9,1,C,7,L,1,S,10,0.356175,0.778197,0.277174
10,5,1,9,1,9,1,C,8,L,8,L,9,0.332996,0.763204,0.254144
10,6,2,1,8,2,1,C,1,S,6,S,12,0.758246,0.431077,0.326862
10,7,9,2,8,9,1,I,7,L,1,S,14,0.764364,0.515391,0.393946
10,8,2,9,1,9,1,C,7,L,8,L,9,0.34009,0.753842,0.256374
10,9,2,9,9,2,1,I,7,L,7,L,15,0.563821,0.778108,0.438714
10,10,9,1,9,8,1,C,8,L,1,S,10,0.750883,0.375282,0.281793
10,11,1,8,1,9,1,C,7,L,8,L,9,0.342057,0.753601,0.257775
10,12,1,8,8,1,1,I,7,L,7,L,13,0.492376,0.774995,0.381589
10,13,9,8,1,8,0,I,1,S,7,L,14,0.432598,0.790976,0.342174
10,14,9,1,2,9,1,I,8,L,7,L,16,0.77406,0.587069,0.454427
10,15,8,9,1,9,1,C,1,S,8,L,10,0.35035,0.786653,0.275604
10,16,2,8,8,9,1,C,6,S,1,S,10,0.36725,0.765793,0.281237
10,17,1,2,2,9,1,C,1,S,7,L,11,0.368145,0.803799,0.295915
10,18,9,1,1,8,1,I,8,L,7,L,13,0.760987,0.494474,0.376288
10,19,2,1,1,2,1,I,1,S,1,S,16,0.777241,0.457886,0.355888
10,20,8,9,8,2,1,I,1,S,6,S,17,0.602122,0.75993,0.457571
10,21,2,8,1,9,1,C,6,S,8,L,10,0.313582,0.837087,0.262496
10,22,8,1,2,1,1,C,7,L,1,S,14,0.755857,0.485006,0.366595
10,23,8,9,8,9,1,C,1,S,1,S,11,0.372586,0.79004,0.294358
10,24,2,9,1,2,1,C,7,L,1,S,12,0.418425,0.793299,0.331936
10,25,8,1,1,8,1,I,7,L,7,L,17,0.765652,0.576595,0.441471
10,26,2,1,2,8,0,I,1,S,6,S,14,0.447963,0.776742,0.347952
10,27,9,2,9,8,1,C,7,L,1,S,11,0.803615,0.36184,0.29078
10,28,9,2,2,1,1,C,7,L,1,S,13,0.791251,0.43857,0.347019
10,29,1,9,2,9,1,C,8,L,7,L,9,0.330297,0.765959,0.252994
10,30,9,1,8,9,1,I,8,L,1,S,13,0.764695,0.489138,0.374041
10,31,8,2,8,9,1,I,6,S,1,S,20,0.765828,0.612503,0.469072
10,32,9,2,1,9,1,I,7,L,8,L,17,0.770821,0.603255,0.465002
10,33,9,2,2,8,1,I,7,L,6,S,14,0.752455,0.530683,0.399315
10,34,1,9,9,2,1,I,8,L,7,L,14,0.554834,0.763466,0.423597
10,35,1,8,9,2,1,I,7,L,7,L,14,0.566715,0.750017,0.425046
10,36,9,1,9,2,1,C,8,L,7,L,10,0.825039,0.317758,0.262163
10,37,1,2,9,2,1,I,1,S,7,L,22,0.652216,0.754211,0.491909
10,38,1,8,2,9,1,C,7,L,7,L,9,0.339358,0.756357,0.256676
10,39,8,1,8,1,1,C,7,L,7,L,11,0.773753,0.386114,0.298757
10,40,1,2,8,1,1,I,1,S,7,L,21,0.62251,0.769707,0.47915
10,41,8,9,9,8,1,I,1,S,1,S,15,0.521557,0.774712,0.404056
10,42,9,2,2,9,1,I,7,L,7,L,17,0.768208,0.605796,0.465377
10,43,2,8,2,9,1,C,6,S,7,L,10,0.310593,0.840289,0.260988
10,44,9,8,9,1,1,C,1,S,8,L,13,0.770133,0.442758,0.340982
10,45,8,9,1,8,1,C,1,S,7,L,11,0.369844,0.793966,0.293643
10,46,1,9,8,9,1,C,8,L,1,S,10,0.347818,0.789463,0.274589
10,47,8,1,8,2,1,C,7,L,6,S,11,0.816886,0.352532,0.287979
10,48,9,2,9,1,1,C,7,L,8,L,10,0.769442,0.361748,0.278344
10,49,2,8,2,1,1,I,6,S,1,S,11,0.369787,0.801522,0.296393
10,50,9,2,8,2,1,C,7,L,6,S,10,0.782873,0.350852,0.274672
10,51,2,1,1,8,0,I,1,S,7,L,14,0.455849,0.767191,0.349723
10,52,8,9,2,9,1,C,1,S,7,L,10,0.34736,0.789855,0.274365
10,53,2,1,1,9,0,I,1,S,8,L,12,0.419725,0.778475,0.326745
10,54,2,1,2,9,0,I,1,S,7,L,12,0.416481,0.782027,0.325699
10,55,1,2,1,2,1,C,1,S,1,S,18,0.551426,0.773767,0.426675
10,56,8,2,1,2,1,I,6,S,1,S,13,0.789632,0.4106,0.324223
10,57,1,8,8,9,1,C,7,L,1,S,10,0.358185,0.777866,0.27862
10,58,1,8,2,1,1,I,7,L,1,S,11,0.359529,0.815334,0.293136
10,59,2,1,8,9,0,I,1,S,1,S,14,0.459872,0.761451,0.35017
10,60,8,1,1,9,1,I,7,L,8,L,19,0.750315,0.639713,0.479986
10,61,2,9,9,8,1,I,7,L,1,S,12,0.459105,0.760319,0.349066
10,62,8,9,9,2,1,I,1,S,7,L,18,0.611722,0.769522,0.470734
10,63,9,8,8,9,0,I,1,S,1,S,14,0.436621,0.785235,0.34285
10,64,1,2,2,8,1,C,1,S,6,S,12,0.393733,0.79261,0.312077
10,65,9,2,9,2,1,C,7,L,7,L,10,0.801012,0.337074,0.270001
10,66,8,2,9,1,1,C,6,S,8,L,11,0.760684,0.39939,0.303809
10,67,2,8,8,1,1,I,6,S,7,L,13,0.503929,0.759665,0.382817
10,68,1,9,1,8,1,C,8,L,7,L,10,0.345646,0.792556,0.273943
10,69,1,2,8,2,1,I,1,S,6,S,22,0.640413,0.764706,0.489728
10,70,8,2,1,8,1,I,6,S,7,L,20,0.762053,0.617315,0.470427
10,71,2,9,9,1,1,I,7,L,8,L,14,0.525951,0.780896,0.410713
10,72,1,9,9,8,1,I,8,L,1,S,12,0.449117,0.773786,0.34752
10,73,8,9,2,1,1,I,1,S,1,S,12,0.380687,0.809075,0.308005
10,74,1,8,9,8,1,I,7,L,1,S,12,0.460965,0.760065,0.350364
10,75,8,9,2,8,1,C,1,S,6,S,11,0.363776,0.800834,0.291324
10,76,1,2,9,8,1,I,1,S,1,S,20,0.603011,0.77086,0.464837
10,77,1,8,1,8,1,C,7,L,7,L,10,0.356012,0.780958,0.278031
10,78,2,1,9,8,1,C,1,S,1,S,14,0.75992,0.456247,0.346711
10,79,2,9,2,9,1,C,7,L,7,L,9,0.337391,0.756598,0.255269
10,80,9,2,8,1,1,C,7,L,7,L,11,0.828889,0.343329,0.284582
10,81,1,8,1,2,1,C,7,L,1,S,12,0.420286,0.793045,0.333306
10,82,8,1,9,1,1,C,7,L,8,L,11,0.801308,0.364855,0.292361
10,83,9,1,8,1,1,C,8,L,7,L,10,0.770727,0.360491,0.27784
10,84,1,9,8,1,1,I,8,L,7,L,12,0.479514,0.751832,0.360514
10,85,8,2,1,9,1,I,6,S,8,L,22,0.75685,0.652583,0.493907
10,86,8,9,8,1,1,I,1,S,7,L,16,0.558547,0.773718,0.432158
10,87,9,8,9,2,1,C,1,S,7,L,12,0.767536,0.427481,0.328107
10,88,9,1,2,8,1,I,8,L,6,S,13,0.753472,0.503531,0.379397
10,89,1,9,2,8,1,C,8,L,6,S,10,0.340554,0.797973,0.271753
10,90,1,9,8,2,1,I,8,L,6,S,14,0.533152,0.780358,0.416049
10,91,9,2,1,2,1,I,7,L,1,S,11,0.772031,0.388407,0.299863
10,92,1,9,9,1,1,I,8,L,8,L,13,0.514029,0.763228,0.392322
10,93,2,1,9,1,1,C,1,S,8,L,13,0.787152,0.425297,0.334773
10,94,1,8,9,1,1,I,7,L,8,L,14,0.527459,0.780968,0.411929
10,95,2,8,9,2,1,I,6,S,7,L,15,0.576666,0.763639,0.440364
10,96,2,9,8,1,1,I,7,L,7,L,13,0.490676,0.775106,0.380326
10,97,9,1,1,9,1,I,8,L,8,L,15,0.750792,0.58815,0.441579
10,98,8,2,8,2,1,C,6,S,6,S,11,0.776261,0.387067,0.300465
10,99,8,9,9,1,1,I,1,S,8,L,17,0.587048,0.772761,0.453648
10,100,9,8,9,8,1,C,1,S,1,S,15,0.770255,0.465198,0.358321
10,101,9,8,1,2,1,I,1,S,1,S,17,0.761388,0.489107,0.3724
10,102,8,2,9,8,1,C,6,S,1,S,12,0.769759,0.410417,0.315922
10,103,8,2,8,1,1,C,6,S,7,L,12,0.800156,0.388463,0.310831
10,104,8,9,1,2,1,C,1,S,1,S,13,0.4724,0.750632,0.354598
10,105,1,2,1,8,1,C,1,S,7,L,12,0.400633,0.784471,0.314285
10,106,2,8,2,8,1,C,6,S,6,S,10,0.359986,0.774302,0.278738
10,107,9,1,1,2,1,I,8,L,1,S,11,0.800465,0.366165,0.293102
10,108,2,1,8,1,1,C,1,S,7,L,13,0.753479,0.450888,0.339735
10,109,2,9,2,1,1,I,7,L,1,S,11,0.357559,0.815667,0.291649
10,110,2,8,1,8,1,C,6,S,7,L,10,0.365078,0.768885,0.280703
10,111,9,8,2,1,0,C,1,S,1,S,16,0.458599,0.774256,0.355073
10,112,1,2,2,1,1,I,1,S,1,S,13,0.424029,0.774101,0.328241
10,113,1,9,2,1,1,I,8,L,1,S,10,0.37935,0.752857,0.285596
10,114,9,1,8,2,1,C,8,L,6,S,10,0.8069,0.331535,0.267516
10,115,9,8,8,2,1,C,1,S,6,S,13,0.787744,0.428863,0.337835
10,116,2,9,1,8,1,C,7,L,7,L,10,0.354003,0.781289,0.276579
10,117,8,1,2,9,1,I,7,L,7,L,20,0.771848,0.629068,0.485545
10,118,1,2,8,9,1,C,1,S,1,S,12,0.403904,0.77976,0.314948
10,119,2,1,2,1,0,C,1,S,1,S,17,0.484941,0.760615,0.368853
10,120,1,8,2,8,1,C,7,L,6,S,10,0.350921,0.786375,0.275955
10,121,8,1,2,8,1,I,7,L,6,S,17,0.757936,0.585549,0.443809
10,122,9,8,2,8,0,I,1,S,6,S,13,0.447795,0.755223,0.338185
10,123,8,1,9,8,1,C,7,L,1,S,12,0.821639,0.368041,0.302396
10,124,8,2,2,1,1,C,6,S,1,S,17,0.769944,0.530626,0.408552
10,125,2,8,8,2,1,I,6,S,6,S,14,0.556718,0.751677,0.418472
10,126,9,2,1,8,1,I,7,L,7,L,14,0.76034,0.521132,0.396238
10,127,1,9,1,2,1,C,8,L,1,S,11,0.421232,0.755353,0.318179
10,128,8,2,2,8,1,I,6,S,6,S,20,0.755623,0.624266,0.471709
10,129,8,1,1,2,1,I,7,L,1,S,12,0.78096,0.40102,0.313181
10,130,9,8,2,9,0,I,1,S,7,L,12,0.404129,0.794766,0.321188
10,131,2,8,9,1,1,I,6,S,8,L,14,0.539145,0.765736,0.412842
10,132,1,8,8,2,1,I,7,L,6,S,14,0.545033,0.766908,0.41799
10,133,8,1,8,9,1,I,7,L,1,S,17,0.769907,0.570855,0.439505
10,134,8,1,9,2,1,C,7,L,7,L,10,0.75706,0.372272,0.281833
10,135,8,2,2,9,1,I,6,S,7,L,22,0.755261,0.653842,0.493822
10,136,2,8,1,2,1,C,6,S,1,S,12,0.431375,0.778151,0.335675
10,137,9,8,8,1,1,C,1,S,7,L,14,0.773856,0.453195,0.350708
10,138,2,8,9,8,1,I,6,S,1,S,13,0.46942,0.784458,0.368241
10,139,9,1,2,1,1,C,8,L,1,S,12,0.777868,0.426324,0.331624
10,140,9,1,9,1,1,C,8,L,8,L,10,0.793469,0.342432,0.271709
10,141,9,8,1,9,0,I,1,S,8,L,12,0.407373,0.791215,0.322319
10,142,1,2,1,9,1,C,1,S,8,L,11,0.371314,0.800333,0.297175
10,143,8,2,9,2,1,C,6,S,7,L,11,0.796635,0.371747,0.296146
10,144,2,9,2,8,1,C,7,L,6,S,10,0.348911,0.786706,0.27449
11,1,8,2,9,1,1,C,6,S,8,L,10,0.81303,0.326769,0.265673
11,2,9,1,9,8,1,C,8,L,1,S,13,0.782888,0.501674,0.392755
11,3,9,8,1,2,0,I,1,S,1,S,13,0.428535,0.766898,0.328643
11,4,1,8,1,8,1,C,7,L,7,L,8,0.289138,0.761224,0.220099
11,5,9,8,8,1,0,C,1,S,7,L,21,0.637216,0.761745,0.485396
11,6,8,9,9,2,0,I,1,S,7,L,11,0.783558,0.382084,0.299385
11,7,1,9,8,9,1,C,8,L,1,S,10,0.355273,0.77348,0.274797
11,8,9,1,9,2,1,C,8,L,7,L,9,0.770404,0.329512,0.253857
11,9,2,9,9,1,1,I,7,L,8,L,17,0.609081,0.76229,0.464297
11,10,8,2,2,1,1,C,6,S,1,S,10,0.779313,0.350168,0.272891
11,11,2,8,2,1,1,I,6,S,1,S,11,0.449055,0.764853,0.343461
11,12,8,2,9,8,1,C,6,S,1,S,15,0.765538,0.558097,0.427244
11,13,9,2,2,1,1,C,7,L,1,S,9,0.759965,0.332944,0.253026
11,14,9,8,8,2,0,C,1,S,6,S,21,0.634761,0.764402,0.485212
11,15,2,8,8,2,1,I,6,S,6,S,12,0.476291,0.787767,0.375206
11,16,1,2,9,8,1,I,1,S,1,S,12,0.396633,0.790483,0.313532
11,17,2,1,1,8,0,I,1,S,7,L,10,0.359772,0.782387,0.281481
11,18,2,9,8,1,1,I,7,L,7,L,17,0.597663,0.769544,0.459928
11,19,9,8,2,1,0,C,1,S,1,S,20,0.631253,0.755025,0.476612
11,20,9,2,2,9,1,I,7,L,7,L,13,0.771638,0.521,0.402023
11,21,2,1,2,9,0,I,1,S,7,L,11,0.372556,0.794971,0.296171
11,22,2,1,8,1,0,C,1,S,7,L,22,0.638734,0.767938,0.490508
11,23,8,1,8,2,1,C,7,L,6,S,10,0.774331,0.357184,0.276579
11,24,8,1,8,1,1,C,7,L,7,L,10,0.778613,0.353325,0.275104
11,25,9,2,8,9,1,I,7,L,1,S,12,0.759757,0.485705,0.369017
11,26,2,9,8,9,1,C,7,L,1,S,10,0.363509,0.764079,0.27775
11,27,1,9,8,2,1,I,8,L,6,S,16,0.588164,0.761391,0.447823
11,28,1,9,2,1,1,I,8,L,1,S,15,0.567194,0.753453,0.427354
11,29,8,1,1,2,1,I,7,L,1,S,13,0.79575,0.422588,0.336274
11,30,1,2,1,2,1,C,1,S,1,S,15,0.429189,0.788528,0.338428
11,31,1,8,8,9,1,C,7,L,1,S,9,0.301615,0.801013,0.241597
11,32,8,1,1,8,1,I,7,L,7,L,19,0.766409,0.63612,0.487528
11,33,1,2,8,9,1,C,1,S,1,S,12,0.391172,0.792808,0.310124
11,34,9,2,1,8,1,I,7,L,7,L,14,0.756247,0.582551,0.440552
11,35,1,9,1,8,1,C,8,L,7,L,9,0.33261,0.763961,0.254101
11,36,2,8,9,8,1,I,6,S,1,S,9,0.310264,0.79562,0.246852
11,37,9,8,9,8,0,C,1,S,1,S,11,0.387417,0.773765,0.29977
11,38,2,1,9,2,0,C,1,S,7,L,22,0.645971,0.764159,0.493625
11,39,1,8,2,1,1,I,7,L,1,S,11,0.445114,0.769256,0.342407
11,40,1,2,2,1,0,I,1,S,1,S,16,0.753564,0.532301,0.401123
11,41,1,8,2,8,1,C,7,L,6,S,9,0.286702,0.823612,0.236131
11,42,8,9,1,9,1,C,1,S,8,L,12,0.456582,0.757322,0.34578
11,43,8,1,1,9,1,I,7,L,8,L,19,0.767333,0.633951,0.486452
11,44,8,2,2,8,1,I,6,S,6,S,16,0.763239,0.589734,0.450108
11,45,8,1,8,9,1,I,7,L,1,S,16,0.752559,0.586654,0.441491
11,46,9,1,8,9,1,I,8,L,1,S,13,0.777668,0.503812,0.391798
11,47,1,8,9,8,1,I,7,L,1,S,9,0.306661,0.799585,0.245201
11,48,8,1,2,1,1,C,7,L,1,S,10,0.754881,0.371855,0.280707
11,49,2,9,2,9,1,C,7,L,7,L,10,0.34542,0.789793,0.27281
11,50,2,9,8,2,1,I,7,L,6,S,17,0.593711,0.77333,0.459135
11,51,2,8,8,9,1,C,6,S,1,S,9,0.305218,0.797048,0.243273
11,52,2,8,1,9,1,C,6,S,8,L,8,0.292223,0.756476,0.22106
11,53,2,9,1,8,1,C,7,L,7,L,9,0.339343,0.756761,0.256801
11,54,2,8,9,2,1,I,6,S,7,L,12,0.488637,0.780998,0.381625
11,55,9,8,2,9,0,I,1,S,7,L,11,0.361343,0.805328,0.290999
11,56,8,2,8,2,1,C,6,S,6,S,10,0.798763,0.335497,0.267983
11,57,1,8,2,9,1,C,7,L,7,L,9,0.286537,0.822155,0.235577
11,58,2,9,2,1,1,I,7,L,1,S,16,0.57626,0.766447,0.441673
11,59,2,9,2,8,1,C,7,L,6,S,10,0.345392,0.791518,0.273384
11,60,8,9,2,9,0,C,1,S,7,L,23,0.760685,0.647175,0.492297
11,61,2,1,1,2,0,I,1,S,1,S,14,0.410337,0.80748,0.331339
11,62,8,9,1,2,0,C,1,S,1,S,16,0.762108,0.489996,0.37343
11,63,8,2,1,9,1,I,6,S,8,L,18,0.773,0.619796,0.479102
11,64,1,9,2,9,1,C,8,L,7,L,10,0.337184,0.799194,0.269475
11,65,1,9,9,2,1,I,8,L,7,L,16,0.600475,0.753657,0.452552
11,66,1,2,9,2,0,I,1,S,7,L,14,0.770494,0.480543,0.370255
11,67,8,9,8,2,0,I,1,S,6,S,11,0.772069,0.388089,0.299631
11,68,9,1,8,2,1,C,8,L,6,S,9,0.761882,0.333412,0.254021
11,69,1,9,8,1,1,I,8,L,7,L,16,0.592495,0.757353,0.448728
11,70,9,1,2,1,1,C,8,L,1,S,10,0.839647,0.309454,0.259832
11,71,2,9,9,8,1,I,7,L,1,S,10,0.3689,0.762118,0.281146
11,72,8,2,2,9,1,I,6,S,7,L,16,0.764178,0.587246,0.44876
11,73,1,2,8,2,0,I,1,S,6,S,14,0.757646,0.488165,0.369856
11,74,8,9,9,8,0,I,1,S,1,S,22,0.753333,0.646798,0.487254
11,75,9,2,8,1,1,C,7,L,7,L,9,0.779284,0.317316,0.247279
11,76,9,2,1,9,1,I,7,L,8,L,14,0.756927,0.580443,0.439353
11,77,2,8,9,1,1,I,6,S,8,L,12,0.493304,0.776882,0.383239
11,78,8,9,2,8,0,C,1,S,6,S,23,0.759537,0.649612,0.493404
11,79,2,1,8,2,0,C,1,S,6,S,22,0.636599,0.770329,0.490391
11,80,1,2,1,8,1,C,1,S,7,L,10,0.37763,0.757781,0.286161
11,81,8,9,8,9,0,C,1,S,1,S,22,0.752413,0.644363,0.484828
11,82,9,8,8,9,0,I,1,S,1,S,11,0.381889,0.776039,0.296361
11,83,2,1,2,8,0,I,1,S,6,S,11,0.372328,0.796936,0.296722
11,84,9,1,2,9,1,I,8,L,7,L,13,0.754322,0.536329,0.404565
11,85,2,1,1,9,0,I,1,S,8,L,10,0.359954,0.780633,0.280992
11,86,2,9,9,2,1,I,7,L,7,L,17,0.605568,0.76573,0.463701
11,87,9,2,9,2,1,C,7,L,7,L,9,0.784252,0.316802,0.248453
11,88,8,9,2,1,0,I,1,S,1,S,12,0.817051,0.372531,0.304376
11,89,1,9,2,8,1,C,8,L,6,S,10,0.337156,0.800919,0.270035
11,90,8,1,9,2,1,C,7,L,7,L,10,0.784514,0.352155,0.27627
11,91,1,9,9,1,1,I,8,L,8,L,17,0.598167,0.774942,0.463545
11,92,2,1,8,9,0,I,1,S,1,S,11,0.393102,0.765682,0.300991
11,93,9,2,2,8,1,I,7,L,6,S,13,0.771052,0.5233,0.403491
11,94,8,9,8,1,0,I,1,S,7,L,11,0.77686,0.383893,0.298231
11,95,8,2,8,1,1,C,6,S,7,L,10,0.803045,0.331638,0.266321
11,96,8,1,9,8,1,C,7,L,1,S,16,0.756438,0.585927,0.443218
11,97,9,8,9,1,0,C,1,S,8,L,21,0.646743,0.755523,0.488629
11,98,1,9,9,8,1,I,8,L,1,S,10,0.360665,0.771519,0.27826
11,99,9,8,1,9,0,I,1,S,8,L,10,0.351004,0.788038,0.276604
11,100,1,2,8,1,0,I,1,S,7,L,14,0.762584,0.483774,0.368919
11,101,2,1,2,1,0,C,1,S,1,S,21,0.635961,0.760027,0.483348
11,102,1,8,9,2,1,I,7,L,7,L,12,0.484705,0.785332,0.380655
11,103,8,1,2,9,1,I,7,L,7,L,17,0.755839,0.610061,0.461108
11,104,9,1,1,2,1,I,8,L,1,S,11,0.79465,0.385198,0.306097
11,105,2,8,8,1,1,I,6,S,7,L,12,0.481341,0.783378,0.377072
11,106,9,8,9,2,0,C,1,S,7,L,21,0.644589,0.757912,0.488542
11,107,1,8,9,1,1,I,7,L,8,L,12,0.489373,0.781216,0.382306
11,108,2,1,9,8,0,C,1,S,1,S,11,0.39863,0.763408,0.304317
11,109,1,8,8,2,1,I,7,L,6,S,11,0.467521,0.752592,0.351853
11,110,9,1,2,8,1,I,8,L,6,S,13,0.753735,0.538629,0.405984
11,111,1,9,1,2,1,C,8,L,1,S,12,0.377479,0.815455,0.307817
11,112,2,1,9,1,0,C,1,S,8,L,22,0.647837,0.762012,0.49366
11,113,9,1,1,8,1,I,8,L,7,L,15,0.767887,0.593774,0.455951
11,114,2,8,1,8,1,C,6,S,7,L,8,0.292368,0.757828,0.221564
11,115,8,9,1,8,1,C,1,S,7,L,12,0.456111,0.759316,0.346332
11,116,8,2,8,9,1,I,6,S,1,S,15,0.761147,0.559377,0.425768
11,117,1,8,8,1,1,I,7,L,7,L,12,0.47741,0.787712,0.376061
11,118,8,2,1,2,1,I,6,S,1,S,12,0.779808,0.413846,0.32272
11,119,8,9,9,1,0,I,1,S,8,L,11,0.78805,0.378108,0.297968
11,120,1,8,1,9,1,C,7,L,8,L,8,0.288994,0.759872,0.219598
11,121,2,8,1,2,1,C,6,S,1,S,10,0.337768,0.811583,0.274127
11,122,9,1,8,1,1,C,8,L,7,L,9,0.765436,0.330025,0.252613
11,123,2,9,1,9,1,C,7,L,8,L,9,0.339361,0.755189,0.256282
11,124,9,8,2,8,0,I,1,S,6,S,11,0.361115,0.807292,0.291526
11,125,9,2,8,2,1,C,7,L,6,S,9,0.77573,0.320703,0.248779
11,126,9,2,9,1,1,C,7,L,8,L,9,0.787704,0.313515,0.246957
11,127,9,1,9,1,1,C,8,L,8,L,9,0.773856,0.326225,0.252451
11,128,1,2,9,1,0,I,1,S,8,L,13,0.754172,0.471982,0.355955
11,129,2,9,1,2,1,C,7,L,1,S,12,0.388088,0.802477,0.311431
11,130,9,1,1,9,1,I,8,L,8,L,15,0.768643,0.591637,0.454758
11,131,1,2,1,9,1,C,1,S,8,L,10,0.377813,0.756027,0.285636
11,132,8,2,1,8,1,I,6,S,7,L,18,0.772103,0.621963,0.480219
11,133,8,1,2,8,1,I,7,L,6,S,17,0.75483,0.612562,0.462381
11,134,1,8,1,2,1,C,7,L,1,S,10,0.33393,0.815879,0.272447
11,135,2,8,2,8,1,C,6,S,6,S,9,0.290306,0.819647,0.237948
11,136,9,2,9,8,1,C,7,L,1,S,12,0.765218,0.48338,0.36989
11,137,2,8,2,9,1,C,6,S,7,L,9,0.29014,0.81819,0.237389
11,138,1,2,2,9,1,C,1,S,7,L,11,0.39747,0.761545,0.302691
11,139,8,1,9,1,1,C,7,L,8,L,10,0.788598,0.348456,0.274792
11,140,9,8,1,8,0,I,1,S,7,L,10,0.350821,0.789792,0.277076
11,141,1,9,1,9,1,C,8,L,8,L,9,0.332628,0.762389,0.253592
11,142,1,2,2,8,1,C,1,S,6,S,11,0.397243,0.763509,0.303299
11,143,9,2,1,2,1,I,7,L,1,S,11,0.811863,0.370206,0.300557
11,144,8,2,9,2,1,C,6,S,7,L,10,0.808946,0.330468,0.267331
12,1,1,9,9,2,1,I,8,L,7,L,15,0.523362,0.77328,0.404706
12,2,1,8,8,9,1,C,7,L,1,S,11,0.404611,0.771873,0.312308
12,3,1,9,1,2,1,C,8,L,1,S,12,0.423568,0.760037,0.321927
12,4,9,1,2,9,1,I,8,L,7,L,10,0.77688,0.377377,0.293177
12,5,8,9,8,9,0,C,1,S,1,S,15,0.788758,0.431677,0.340488
12,6,8,9,9,8,0,I,1,S,1,S,23,0.762463,0.615094,0.468987
12,7,8,9,8,1,0,I,1,S,7,L,12,0.785492,0.400947,0.314941
12,8,1,9,2,8,1,C,8,L,6,S,11,0.365985,0.796671,0.29157
12,9,2,9,2,9,1,C,7,L,7,L,12,0.409908,0.768343,0.31495
12,10,1,8,8,2,1,I,7,L,6,S,12,0.456739,0.768315,0.350919
12,11,8,2,8,1,1,C,6,S,7,L,10,0.764825,0.363188,0.277775
12,12,2,8,8,2,1,I,6,S,6,S,13,0.478026,0.775415,0.370669
12,13,2,1,8,2,1,C,1,S,6,S,10,0.76744,0.361197,0.277197
12,14,8,2,2,9,1,I,6,S,7,L,13,0.763966,0.463454,0.354063
12,15,8,9,2,9,0,C,1,S,7,L,23,0.752529,0.627619,0.472302
12,16,1,8,1,9,1,C,7,L,8,L,10,0.36156,0.77337,0.279619
12,17,8,2,1,8,1,I,6,S,7,L,15,0.753691,0.556408,0.419359
12,18,1,8,2,9,1,C,7,L,7,L,10,0.37262,0.760805,0.283491
12,19,9,2,8,9,1,I,7,L,1,S,11,0.809414,0.364167,0.294762
12,20,9,1,1,2,1,I,8,L,1,S,10,0.804278,0.345864,0.278171
12,21,9,2,9,8,1,C,7,L,1,S,12,0.80023,0.411621,0.329392
12,22,9,2,8,1,1,C,7,L,7,L,10,0.820546,0.321875,0.264113
12,23,2,1,2,9,1,I,1,S,7,L,12,0.783129,0.425741,0.333411
12,24,9,2,8,2,1,C,7,L,6,S,10,0.77717,0.355967,0.276647
12,25,8,9,1,2,0,C,1,S,1,S,17,0.781659,0.453361,0.354374
12,26,9,1,2,8,1,I,8,L,6,S,11,0.797335,0.410193,0.327062
12,27,9,8,8,1,1,C,1,S,7,L,13,0.768998,0.444506,0.341824
12,28,9,8,2,8,0,I,1,S,6,S,13,0.441987,0.758853,0.335404
12,29,8,2,8,9,1,I,6,S,1,S,12,0.810633,0.380696,0.308605
12,30,2,9,9,1,1,I,7,L,8,L,19,0.621641,0.756643,0.47036
12,31,1,2,8,2,0,I,1,S,6,S,16,0.76577,0.493189,0.377669
12,32,9,8,8,9,0,I,1,S,1,S,28,0.633716,0.770265,0.488129
12,33,1,2,9,1,0,I,1,S,8,L,13,0.752737,0.459965,0.346233
12,34,2,1,1,2,1,I,1,S,1,S,11,0.771751,0.393233,0.303478
12,35,2,1,2,8,1,I,1,S,6,S,13,0.77128,0.486494,0.375223
12,36,1,2,8,1,0,I,1,S,7,L,13,0.75785,0.455669,0.345329
12,37,2,8,8,1,1,I,6,S,7,L,14,0.545588,0.757217,0.413128
12,38,2,8,1,9,1,C,6,S,8,L,11,0.345575,0.826782,0.285715
12,39,8,2,1,2,1,I,6,S,1,S,12,0.774301,0.412262,0.319215
12,40,2,1,8,9,1,I,1,S,1,S,11,0.798297,0.370393,0.295684
12,41,8,2,9,1,1,C,6,S,8,L,10,0.760907,0.366653,0.278989
12,42,8,1,1,8,1,I,7,L,7,L,12,0.791815,0.451226,0.357288
12,43,9,8,1,9,0,I,1,S,8,L,14,0.45319,0.75952,0.344207
12,44,1,9,1,8,1,C,8,L,7,L,11,0.35527,0.810546,0.287963
12,45,9,8,1,8,0,I,1,S,7,L,13,0.428476,0.776818,0.332848
12,46,1,2,9,8,1,I,1,S,1,S,15,0.442273,0.778227,0.344189
12,47,2,9,2,1,1,I,7,L,1,S,18,0.582784,0.770814,0.449218
12,48,9,2,2,9,1,I,7,L,7,L,12,0.795187,0.418735,0.332972
12,49,8,2,2,8,1,I,6,S,6,S,15,0.7683,0.537337,0.412836
12,50,9,2,9,1,1,C,7,L,8,L,10,0.816627,0.32534,0.265682
12,51,9,2,1,9,1,I,7,L,8,L,12,0.776782,0.441199,0.342715
12,52,2,1,8,1,1,C,1,S,7,L,10,0.810815,0.327105,0.265221
12,53,1,8,2,8,1,C,7,L,6,S,10,0.341066,0.796586,0.271689
12,54,1,9,2,1,1,I,8,L,1,S,15,0.541666,0.758547,0.41088
12,55,2,8,9,8,1,I,6,S,1,S,11,0.363869,0.804267,0.292648
12,56,8,9,1,8,1,C,1,S,7,L,16,0.515778,0.758255,0.391092
12,57,1,8,9,1,1,I,7,L,8,L,13,0.515779,0.761807,0.392924
12,58,8,2,9,2,1,C,6,S,7,L,11,0.790864,0.370782,0.293238
12,59,2,9,8,2,1,I,7,L,6,S,17,0.580094,0.752342,0.436429
12,60,9,2,9,2,1,C,7,L,7,L,10,0.772002,0.360779,0.278522
12,61,9,8,9,8,0,C,1,S,1,S,15,0.461393,0.757619,0.34956
12,62,8,1,9,1,1,C,7,L,8,L,9,0.769911,0.325892,0.250908
12,63,9,2,1,8,1,I,7,L,7,L,13,0.770315,0.496909,0.382776
12,64,1,2,9,2,0,I,1,S,7,L,16,0.755157,0.501849,0.378975
12,65,8,1,9,2,1,C,7,L,7,L,10,0.822633,0.322581,0.265366
12,66,1,8,1,8,1,C,7,L,7,L,10,0.332203,0.807701,0.268321
12,67,1,8,9,8,1,I,7,L,1,S,10,0.375252,0.75682,0.283998
12,68,2,1,9,1,1,C,1,S,8,L,10,0.806897,0.33057,0.266736
12,69,1,2,8,9,1,C,1,S,1,S,25,0.627195,0.758676,0.475838
12,70,9,2,2,8,1,I,7,L,6,S,13,0.783826,0.478944,0.375409
12,71,2,9,1,8,1,C,7,L,7,L,11,0.387557,0.768148,0.297701
12,72,2,9,8,9,1,C,7,L,1,S,14,0.478846,0.752679,0.360417
12,73,2,9,1,9,1,C,7,L,8,L,12,0.391503,0.790807,0.309603
12,74,1,2,1,9,1,C,1,S,8,L,14,0.43848,0.774798,0.339733
12,75,9,1,9,1,1,C,8,L,8,L,9,0.801778,0.303885,0.243649
12,76,2,8,8,9,1,C,6,S,1,S,12,0.408758,0.796453,0.325557
12,77,1,8,8,1,1,I,7,L,7,L,13,0.520892,0.757512,0.394582
12,78,1,2,1,8,1,C,1,S,7,L,13,0.417327,0.787982,0.328846
12,79,8,1,8,9,1,I,7,L,1,S,10,0.788071,0.354307,0.279219
12,80,9,2,1,2,1,I,7,L,1,S,11,0.782868,0.387008,0.302976
12,81,1,2,2,1,0,I,1,S,1,S,15,0.753497,0.488455,0.368049
12,82,9,8,9,2,1,C,1,S,7,L,15,0.754313,0.48258,0.364016
12,83,2,8,1,2,1,C,6,S,1,S,11,0.398313,0.765984,0.305101
12,84,9,8,8,2,1,C,1,S,6,S,15,0.764964,0.47399,0.362585
12,85,2,9,9,2,1,I,7,L,7,L,17,0.56983,0.760866,0.433565
12,86,8,1,1,2,1,I,7,L,1,S,10,0.768868,0.370453,0.284829
12,87,1,9,8,9,1,C,8,L,1,S,13,0.446177,0.773483,0.345111
12,88,2,8,2,9,1,C,6,S,7,L,11,0.360135,0.809645,0.291582
12,89,9,1,8,1,1,C,8,L,7,L,9,0.804911,0.300937,0.242227
12,90,2,8,2,1,1,I,6,S,1,S,13,0.484997,0.769814,0.373358
12,91,2,1,1,8,1,I,1,S,7,L,13,0.757768,0.504459,0.382263
12,92,2,9,1,2,1,C,7,L,1,S,13,0.440153,0.757698,0.333503
12,93,9,1,2,1,1,C,8,L,1,S,9,0.774409,0.325377,0.251975
12,94,8,1,1,9,1,I,7,L,8,L,11,0.785618,0.406061,0.319009
12,95,9,2,2,1,1,C,7,L,1,S,10,0.781149,0.35237,0.275254
12,96,1,9,8,2,1,I,8,L,6,S,15,0.534014,0.76469,0.408355
12,97,2,9,9,8,1,I,7,L,1,S,12,0.414951,0.76123,0.315873
12,98,1,9,1,9,1,C,8,L,8,L,11,0.391559,0.766252,0.300033
12,99,8,9,9,2,0,I,1,S,7,L,13,0.769759,0.426916,0.328622
12,100,8,9,2,8,0,C,1,S,6,S,25,0.751538,0.652959,0.490724
12,101,8,2,1,9,1,I,6,S,8,L,14,0.77661,0.488774,0.379587
12,102,1,8,9,2,1,I,7,L,7,L,12,0.4485,0.775209,0.347681
12,103,1,2,2,8,1,C,1,S,6,S,13,0.430839,0.770016,0.331753
12,104,2,1,9,8,1,C,1,S,1,S,12,0.788172,0.418628,0.329951
12,105,8,2,8,2,1,C,6,S,6,S,11,0.797596,0.364888,0.291033
12,106,8,1,2,9,1,I,7,L,7,L,11,0.800178,0.388925,0.311209
12,107,8,1,9,8,1,C,7,L,1,S,11,0.803912,0.383547,0.308338
12,108,1,9,9,1,1,I,8,L,8,L,17,0.589642,0.769373,0.453655
12,109,9,8,1,2,0,I,1,S,1,S,20,0.487744,0.759581,0.370481
12,110,2,8,9,1,1,I,6,S,8,L,14,0.540512,0.761533,0.411618
12,111,8,9,2,1,0,I,1,S,1,S,13,0.786204,0.413606,0.325178
12,112,1,8,2,1,1,I,7,L,1,S,12,0.462895,0.763258,0.353308
12,113,9,1,1,9,1,I,8,L,8,L,10,0.765821,0.389941,0.298625
12,114,8,1,2,8,1,I,7,L,6,S,11,0.760044,0.43648,0.331744
12,115,9,8,2,1,1,C,1,S,1,S,15,0.772617,0.467847,0.361467
12,116,9,1,1,8,1,I,8,L,7,L,11,0.78662,0.424068,0.333581
12,117,9,1,9,8,1,C,8,L,1,S,10,0.779513,0.373392,0.291064
12,118,8,2,9,8,1,C,6,S,1,S,13,0.770453,0.454329,0.350039
12,119,2,9,2,8,1,C,7,L,6,S,11,0.398272,0.754273,0.300406
12,120,1,8,1,2,1,C,7,L,1,S,11,0.378065,0.794713,0.300453
12,121,2,1,9,2,1,C,1,S,7,L,10,0.762271,0.366008,0.278998
12,122,8,2,2,1,1,C,6,S,1,S,11,0.802705,0.36052,0.289392
12,123,8,1,8,2,1,C,7,L,6,S,10,0.827801,0.31777,0.26305
12,124,1,2,2,9,1,C,1,S,7,L,15,0.433022,0.791373,0.342682
12,125,2,1,1,9,1,I,1,S,8,L,12,0.764724,0.448206,0.342754
12,126,2,1,2,1,1,C,1,S,1,S,10,0.771419,0.3576,0.275859
12,127,9,1,8,2,1,C,8,L,6,S,9,0.771492,0.328205,0.253208
12,128,2,8,2,8,1,C,6,S,6,S,10,0.358995,0.771178,0.276849
12,129,8,1,2,1,1,C,7,L,1,S,10,0.83178,0.314173,0.261323
12,130,8,9,8,2,0,I,1,S,6,S,13,0.779232,0.419206,0.326659
12,131,1,9,9,8,1,I,8,L,1,S,12,0.376711,0.812497,0.306077
12,132,9,1,9,2,1,C,8,L,7,L,9,0.767747,0.331963,0.254864
12,133,2,8,1,8,1,C,6,S,7,L,10,0.350133,0.782293,0.273906
12,134,8,9,9,1,0,I,1,S,8,L,12,0.780545,0.4051,0.316199
12,135,9,8,2,9,0,I,1,S,7,L,15,0.452142,0.770765,0.348496
12,136,1,2,1,2,1,C,1,S,1,S,19,0.46845,0.778905,0.364878
12,137,2,9,8,1,1,I,7,L,7,L,19,0.62514,0.753302,0.470919
12,138,9,8,9,1,1,C,1,S,8,L,13,0.763886,0.448801,0.342833
12,139,9,1,8,9,1,I,8,L,1,S,10,0.823481,0.329719,0.271517
12,140,8,1,8,1,1,C,7,L,7,L,9,0.773044,0.322944,0.24965
12,141,2,8,9,2,1,I,6,S,7,L,13,0.468552,0.783124,0.366935
12,142,1,9,2,9,1,C,8,L,7,L,12,0.371668,0.81961,0.304623
12,143,8,9,1,9,0,C,1,S,8,L,24,0.752153,0.642219,0.483047
12,144,1,9,8,1,1,I,8,L,7,L,17,0.593895,0.765513,0.454634
13,1,2,8,2,8,1,C,6,S,6,S,10,0.354455,0.777715,0.275665
13,2,8,1,1,9,1,I,7,L,8,L,11,0.761274,0.445027,0.338787
13,3,9,2,1,9,1,I,7,L,8,L,18,0.764145,0.602635,0.460501
13,4,2,8,1,9,1,C,6,S,8,L,11,0.357458,0.80583,0.28805
13,5,9,8,1,2,0,I,1,S,1,S,17,0.514946,0.762906,0.392855
13,6,9,8,1,8,0,I,1,S,7,L,12,0.43599,0.764047,0.333117
13,7,2,1,1,8,1,I,1,S,7,L,15,0.770358,0.573424,0.441742
13,8,8,2,8,9,1,I,6,S,1,S,14,0.777697,0.450442,0.350308
13,9,1,2,2,9,1,C,1,S,7,L,11,0.397551,0.757898,0.301303
13,10,1,2,1,2,1,C,1,S,1,S,12,0.380087,0.806135,0.306401
13,11,1,2,8,2,1,I,1,S,6,S,15,0.496698,0.767197,0.381065
13,12,1,8,1,9,1,C,7,L,8,L,10,0.370216,0.754179,0.279209
13,13,9,8,2,9,0,I,1,S,7,L,15,0.48471,0.764132,0.370382
13,14,8,2,8,2,1,C,6,S,6,S,12,0.753282,0.427348,0.321914
13,15,1,2,1,8,1,C,1,S,7,L,10,0.372093,0.758573,0.28226
13,16,8,1,8,2,1,C,7,L,6,S,10,0.809924,0.339288,0.274797
13,17,2,1,1,2,1,I,1,S,1,S,12,0.762601,0.456456,0.348093
13,18,9,2,9,1,1,C,7,L,8,L,10,0.759843,0.3735,0.283801
13,19,2,1,2,9,1,I,1,S,7,L,13,0.779385,0.483825,0.377086
13,20,8,9,1,8,1,C,1,S,7,L,12,0.432959,0.764989,0.331209
13,21,9,8,8,1,1,C,1,S,7,L,13,0.795707,0.412339,0.328101
13,22,8,2,1,2,1,I,6,S,1,S,17,0.75397,0.578647,0.436283
13,23,8,2,9,1,1,C,6,S,8,L,11,0.826439,0.348592,0.28809
13,24,2,1,8,1,1,C,1,S,7,L,10,0.799092,0.336651,0.269016
13,25,2,8,8,1,1,I,6,S,7,L,17,0.57523,0.775104,0.445863
13,26,8,9,9,8,0,I,1,S,1,S,25,0.768107,0.61472,0.47217
13,27,1,9,8,1,1,I,8,L,7,L,15,0.556288,0.753022,0.418897
13,28,2,1,8,9,1,I,1,S,1,S,11,0.773445,0.397321,0.307306
13,29,9,8,8,9,1,I,1,S,1,S,21,0.754924,0.552944,0.417431
13,30,9,8,9,2,1,C,1,S,7,L,12,0.7607,0.426887,0.324733
13,31,2,8,8,9,1,C,6,S,1,S,12,0.416471,0.765931,0.318988
13,32,8,9,9,2,0,I,1,S,7,L,12,0.75767,0.427829,0.324153
13,33,9,2,2,8,1,I,7,L,6,S,20,0.771437,0.630678,0.486528
13,34,1,2,9,2,1,I,1,S,7,L,19,0.620519,0.759768,0.471451
13,35,8,1,1,2,1,I,7,L,1,S,11,0.78937,0.40956,0.323294
13,36,8,1,8,1,1,C,7,L,7,L,9,0.769095,0.328702,0.252803
13,37,9,1,9,2,1,C,8,L,7,L,9,0.784376,0.319836,0.250871
13,38,1,8,9,8,1,I,7,L,1,S,11,0.404398,0.752285,0.304223
13,39,9,8,8,2,1,C,1,S,6,S,15,0.781153,0.442898,0.345971
13,40,2,8,9,2,1,I,6,S,7,L,17,0.593808,0.76208,0.452529
13,41,2,9,8,1,1,I,7,L,7,L,17,0.586953,0.759309,0.445679
13,42,1,9,9,1,1,I,8,L,8,L,17,0.611081,0.755504,0.461674
13,43,8,2,2,9,1,I,6,S,7,L,18,0.754507,0.604744,0.456284
13,44,9,1,8,1,1,C,8,L,7,L,9,0.774161,0.325694,0.25214
13,45,9,2,8,1,1,C,7,L,7,L,11,0.77964,0.383212,0.298768
13,46,2,1,8,2,1,C,1,S,6,S,11,0.819324,0.3542,0.290205
13,47,8,1,2,9,1,I,7,L,7,L,11,0.77232,0.431431,0.333203
13,48,8,2,1,8,1,I,6,S,7,L,21,0.77086,0.636929,0.490983
13,49,9,2,2,1,1,C,7,L,1,S,12,0.757009,0.422115,0.319545
13,50,9,2,2,9,1,I,7,L,7,L,17,0.752314,0.592936,0.446074
13,51,8,9,2,1,0,I,1,S,1,S,16,0.800279,0.428069,0.342574
13,52,2,1,1,9,1,I,1,S,8,L,13,0.765917,0.500971,0.383702
13,53,8,9,8,1,0,I,1,S,7,L,13,0.791841,0.413989,0.327814
13,54,9,1,8,2,1,C,8,L,6,S,10,0.815567,0.335847,0.273906
13,55,2,1,9,8,1,C,1,S,1,S,11,0.762279,0.408781,0.311605
13,56,1,8,9,2,1,I,7,L,7,L,15,0.567054,0.752464,0.426687
13,57,1,8,2,9,1,C,7,L,7,L,11,0.34361,0.824606,0.283343
13,58,1,9,2,8,1,C,8,L,6,S,10,0.339119,0.795827,0.26988
13,59,1,9,1,2,1,C,8,L,1,S,11,0.367264,0.792907,0.291206
13,60,2,9,1,8,1,C,7,L,7,L,10,0.354619,0.77639,0.275322
13,61,2,1,9,1,1,C,1,S,8,L,9,0.755121,0.335329,0.253214
13,62,9,2,8,9,1,I,7,L,1,S,13,0.752539,0.456249,0.343345
13,63,9,1,2,8,1,I,8,L,6,S,12,0.764267,0.504546,0.385608
13,64,1,9,1,9,1,C,8,L,8,L,11,0.339167,0.828374,0.280958
13,65,1,9,8,2,1,I,8,L,6,S,13,0.447991,0.776773,0.347987
13,66,1,8,2,1,1,I,7,L,1,S,12,0.438601,0.751366,0.32955
13,67,9,1,9,1,1,C,8,L,8,L,9,0.816407,0.293101,0.239289
13,68,8,9,8,9,0,C,1,S,1,S,22,0.761593,0.560475,0.426854
13,69,9,8,1,9,0,I,1,S,8,L,14,0.474831,0.757278,0.359579
13,70,9,1,1,8,1,I,8,L,7,L,12,0.757658,0.512717,0.388464
13,71,9,1,1,2,1,I,8,L,1,S,11,0.795341,0.405812,0.322759
13,72,8,1,2,8,1,I,7,L,6,S,12,0.758183,0.508478,0.385519
13,73,2,9,9,1,1,I,7,L,8,L,19,0.625715,0.762051,0.476827
13,74,9,2,9,2,1,C,7,L,7,L,11,0.795238,0.373718,0.297195
13,75,1,8,9,1,1,I,7,L,8,L,17,0.602323,0.767335,0.462183
13,76,1,9,2,9,1,C,8,L,7,L,11,0.350214,0.814778,0.285347
13,77,1,9,9,8,1,I,8,L,1,S,12,0.380613,0.808155,0.307594
13,78,8,1,8,9,1,I,7,L,1,S,10,0.777103,0.370239,0.287714
13,79,1,2,9,1,1,I,1,S,8,L,20,0.64125,0.754436,0.483782
13,80,9,1,1,9,1,I,8,L,8,L,11,0.767245,0.441279,0.338569
13,81,1,9,8,9,1,C,8,L,1,S,12,0.395696,0.792227,0.313481
13,82,9,1,2,9,1,I,8,L,7,L,11,0.778292,0.427683,0.332862
13,83,9,2,1,8,1,I,7,L,7,L,20,0.766956,0.635398,0.487322
13,84,8,2,2,8,1,I,6,S,6,S,20,0.751407,0.646695,0.485932
13,85,2,1,9,2,1,C,1,S,7,L,10,0.812086,0.328922,0.267113
13,86,2,1,2,8,1,I,1,S,6,S,15,0.776694,0.566018,0.439623
