ANN,trial,N1,N2,P1,P2,Succ.,Cong,Ndist,Ndist,Pdist,Pdist,rt,a1,a2,x_acc
1,1,9,8,1,9,0,I,1,S,8,L,10,0.383383,0.781952,0.299787
1,2,8,2,2,8,1,I,6,S,6,S,11,0.777104,0.517454,0.402115
1,3,1,2,2,9,1,C,1,S,7,L,8,0.246397,0.808176,0.199132
1,4,2,9,2,8,1,C,7,L,6,S,7,0.184009,0.826402,0.152065
1,5,2,8,2,9,1,C,6,S,7,L,7,0.178372,0.833812,0.148729
1,6,2,8,1,8,1,C,6,S,7,L,7,0.15961,0.862766,0.137706
1,7,1,8,2,8,1,C,7,L,6,S,7,0.153912,0.873036,0.134371
1,8,2,1,8,2,1,C,1,S,6,S,8,0.84795,0.217176,0.184154
1,9,9,1,9,2,1,C,8,L,7,L,7,0.894422,0.141109,0.126211
1,10,8,9,9,8,1,I,1,S,1,S,18,0.544179,0.765243,0.416429
1,11,9,8,2,1,1,C,1,S,1,S,10,0.7696,0.34657,0.26672
1,12,1,9,8,2,1,I,8,L,6,S,10,0.475482,0.783052,0.372327
1,13,2,1,9,2,1,C,1,S,7,L,8,0.855218,0.211065,0.180506
1,14,1,9,9,2,1,I,8,L,7,L,10,0.482763,0.77675,0.374986
1,15,8,9,2,9,1,C,1,S,7,L,9,0.305068,0.795242,0.242603
1,16,9,8,2,9,0,I,1,S,7,L,11,0.420808,0.777588,0.327215
1,17,2,1,2,1,1,C,1,S,1,S,9,0.857072,0.246306,0.211102
1,18,9,8,2,8,0,I,1,S,6,S,11,0.424385,0.772641,0.327897
1,19,9,8,9,1,1,C,1,S,8,L,8,0.752987,0.293873,0.221283
1,20,2,8,9,8,1,I,6,S,1,S,8,0.298202,0.757797,0.225977
1,21,1,8,1,9,1,C,7,L,8,L,6,0.166573,0.760025,0.1266
1,22,8,9,1,2,1,C,1,S,1,S,10,0.343749,0.777721,0.267341
1,23,1,8,9,8,1,I,7,L,1,S,8,0.268261,0.804299,0.215762
1,24,9,2,9,2,1,C,7,L,7,L,7,0.859175,0.164236,0.141107
1,25,2,8,2,1,1,I,6,S,1,S,9,0.380694,0.763315,0.29059
1,26,8,2,9,2,1,C,6,S,7,L,7,0.834967,0.178712,0.149218
1,27,1,2,9,2,1,I,1,S,7,L,17,0.635516,0.762534,0.484602
1,28,1,8,1,8,1,C,7,L,7,L,6,0.168424,0.75711,0.127515
1,29,2,8,8,1,1,I,6,S,7,L,11,0.543653,0.757119,0.41161
1,30,9,2,8,9,1,I,7,L,1,S,8,0.779465,0.291353,0.227099
1,31,2,8,8,2,1,I,6,S,6,S,11,0.515225,0.777778,0.400731
1,32,1,9,2,9,1,C,8,L,7,L,7,0.152785,0.875665,0.133788
1,33,8,2,8,9,1,I,6,S,1,S,8,0.753542,0.307331,0.231587
1,34,1,9,8,1,1,I,8,L,7,L,10,0.504552,0.762389,0.384665
1,35,9,1,2,8,1,I,8,L,6,S,9,0.753039,0.450973,0.3396
1,36,1,2,9,1,1,I,1,S,8,L,18,0.644662,0.768797,0.495614
1,37,8,9,8,2,0,I,1,S,6,S,10,0.758019,0.39203,0.297166
1,38,8,1,9,2,1,C,7,L,7,L,7,0.875893,0.151805,0.132965
1,39,2,1,9,1,1,C,1,S,8,L,7,0.758223,0.227872,0.172778
1,40,8,9,9,2,0,I,1,S,7,L,10,0.765299,0.385728,0.295198
1,41,9,2,2,9,1,I,7,L,7,L,10,0.759768,0.495881,0.376755
1,42,8,2,8,1,1,C,6,S,7,L,7,0.854913,0.166682,0.142499
1,43,1,8,1,2,1,C,7,L,1,S,7,0.198746,0.804115,0.159815
1,44,1,9,1,8,1,C,8,L,7,L,6,0.170185,0.755353,0.12855
1,45,9,1,8,1,1,C,8,L,7,L,6,0.764279,0.165911,0.126802
1,46,1,8,9,1,1,I,7,L,8,L,10,0.507566,0.759815,0.385656
1,47,2,9,9,1,1,I,7,L,8,L,12,0.555009,0.784447,0.435375
1,48,1,9,8,9,1,C,8,L,1,S,8,0.230668,0.844904,0.194893
1,49,1,8,8,2,1,I,7,L,6,S,10,0.473591,0.784913,0.371728
1,50,2,9,9,8,1,I,7,L,1,S,8,0.30098,0.754745,0.227163
1,51,9,1,9,8,1,C,8,L,1,S,7,0.752373,0.244708,0.184112
1,52,2,9,1,2,1,C,7,L,1,S,7,0.228843,0.75748,0.173344
1,53,8,9,2,8,1,C,1,S,6,S,9,0.308551,0.79019,0.243814
1,54,8,1,1,2,1,I,7,L,1,S,9,0.790314,0.377449,0.298303
1,55,2,1,8,1,1,C,1,S,7,L,7,0.753334,0.232127,0.174869
1,56,8,9,9,1,0,I,1,S,8,L,10,0.791994,0.366932,0.290608
1,57,9,2,9,1,1,C,7,L,8,L,7,0.884009,0.147951,0.13079
1,58,2,8,1,2,1,C,6,S,1,S,7,0.226216,0.760343,0.172001
1,59,1,9,2,1,1,I,8,L,1,S,9,0.351162,0.808893,0.284052
1,60,2,1,1,8,1,I,1,S,7,L,15,0.750187,0.635016,0.476381
1,61,1,9,1,2,1,C,8,L,1,S,7,0.200628,0.802196,0.160943
1,62,9,8,9,8,1,C,1,S,1,S,12,0.77089,0.38866,0.299614
1,63,8,9,2,1,1,I,1,S,1,S,23,0.635469,0.762789,0.484728
1,64,8,2,2,9,1,I,6,S,7,L,11,0.773527,0.5224,0.404091
1,65,1,2,2,1,1,I,1,S,1,S,14,0.547485,0.768136,0.420543
1,66,2,9,1,8,1,C,7,L,7,L,7,0.162238,0.859904,0.139509
1,67,8,2,1,8,1,I,6,S,7,L,11,0.751828,0.552827,0.415631
1,68,8,9,8,1,0,I,1,S,7,L,10,0.787088,0.371367,0.292299
1,69,9,1,9,1,1,C,8,L,8,L,6,0.768711,0.161991,0.124525
1,70,9,2,8,1,1,C,7,L,7,L,7,0.87912,0.152207,0.133808
1,71,1,9,9,8,1,I,8,L,1,S,8,0.270194,0.80233,0.216785
1,72,9,1,8,2,1,C,8,L,6,S,7,0.887634,0.146837,0.130337
1,73,1,2,8,2,1,I,1,S,6,S,17,0.630939,0.767047,0.48396
1,74,2,8,9,1,1,I,6,S,8,L,11,0.548334,0.7528,0.412786
1,75,8,9,1,9,1,C,1,S,8,L,9,0.281483,0.829896,0.233602
1,76,8,2,9,1,1,C,6,S,8,L,7,0.859801,0.162427,0.139655
1,77,9,2,8,2,1,C,7,L,6,S,7,0.852387,0.169964,0.144875
1,78,9,2,2,1,1,C,7,L,1,S,7,0.767653,0.225493,0.173101
1,79,8,2,9,8,1,C,6,S,1,S,8,0.793068,0.264757,0.20997
1,80,9,2,1,2,1,I,7,L,1,S,9,0.772659,0.391008,0.302116
1,81,8,1,8,9,1,I,7,L,1,S,8,0.796976,0.278159,0.221686
1,82,1,8,8,1,1,I,7,L,7,L,10,0.502661,0.76425,0.384158
1,83,2,1,2,9,1,I,1,S,7,L,15,0.769741,0.608899,0.468695
1,84,1,9,9,1,1,I,8,L,8,L,10,0.509457,0.757953,0.386145
1,85,2,9,9,2,1,I,7,L,7,L,11,0.524979,0.768709,0.403556
1,86,9,8,8,2,1,C,1,S,6,S,9,0.80346,0.297639,0.239141
1,87,8,9,1,8,1,C,1,S,7,L,9,0.283788,0.826513,0.234555
1,88,2,1,2,8,1,I,1,S,6,S,15,0.772942,0.604719,0.467413
1,89,2,9,1,9,1,C,7,L,8,L,7,0.160165,0.863109,0.138239
1,90,1,8,9,2,1,I,7,L,7,L,10,0.480871,0.778611,0.374412
1,91,8,2,1,9,1,I,6,S,8,L,12,0.783985,0.559824,0.438894
1,92,2,9,2,9,1,C,7,L,7,L,7,0.180999,0.83095,0.150401
1,93,9,8,8,9,1,I,1,S,1,S,17,0.765018,0.547546,0.418883
1,94,8,2,2,1,1,C,6,S,1,S,8,0.864368,0.207204,0.1791
1,95,8,1,2,9,1,I,7,L,7,L,10,0.777135,0.482267,0.374787
1,96,9,2,2,8,1,I,7,L,6,S,10,0.763336,0.490832,0.37467
1,97,1,2,8,1,1,I,1,S,7,L,17,0.652894,0.750125,0.489752
1,98,9,2,9,8,1,C,7,L,1,S,8,0.818991,0.248779,0.203748
1,99,9,8,9,2,1,C,1,S,7,L,9,0.810858,0.29135,0.236244
1,100,8,1,2,1,1,C,7,L,1,S,7,0.784372,0.213062,0.16712
1,101,2,1,1,9,1,I,1,S,8,L,16,0.771728,0.6299,0.486111
1,102,1,8,2,1,1,I,7,L,1,S,9,0.34923,0.810833,0.283167
1,103,2,9,8,2,1,I,7,L,6,S,11,0.517976,0.774899,0.401379
1,104,2,9,8,1,1,I,7,L,7,L,11,0.546404,0.75424,0.41212
1,105,9,2,1,9,1,I,7,L,8,L,11,0.775742,0.538476,0.417718
1,106,8,1,9,1,1,C,7,L,8,L,6,0.751861,0.171379,0.128853
1,107,1,2,1,2,1,C,1,S,1,S,9,0.268078,0.828465,0.222093
1,108,8,2,1,2,1,I,6,S,1,S,10,0.79688,0.419687,0.33444
1,109,8,9,8,9,1,C,1,S,1,S,12,0.397968,0.761506,0.303055
1,110,1,2,8,9,1,C,1,S,1,S,10,0.323826,0.802109,0.259744
1,111,9,8,1,8,0,I,1,S,7,L,10,0.385721,0.778603,0.300323
1,112,9,2,1,8,1,I,7,L,7,L,11,0.778073,0.535202,0.416426
1,113,1,9,2,8,1,C,8,L,6,S,7,0.155795,0.871117,0.135715
1,114,2,8,2,8,1,C,6,S,6,S,7,0.181382,0.829264,0.150413
1,115,9,1,8,9,1,I,8,L,1,S,8,0.816377,0.26654,0.217597
1,116,2,8,9,2,1,I,6,S,7,L,11,0.522228,0.771589,0.402945
1,117,2,8,8,9,1,C,6,S,1,S,8,0.258676,0.800371,0.207037
1,118,1,2,9,8,1,I,1,S,1,S,11,0.393113,0.773832,0.304204
1,119,8,1,1,8,1,I,7,L,7,L,10,0.755441,0.51336,0.387814
1,120,8,1,9,8,1,C,7,L,1,S,8,0.836502,0.235586,0.197068
1,121,1,9,1,9,1,C,8,L,8,L,6,0.168334,0.758268,0.127643
1,122,9,1,2,9,1,I,8,L,7,L,10,0.79676,0.469759,0.374285
1,123,1,2,2,8,1,C,1,S,6,S,8,0.249699,0.803271,0.200576
1,124,2,1,8,9,1,I,1,S,1,S,10,0.767945,0.374606,0.287677
1,125,1,8,8,9,1,C,7,L,1,S,8,0.228735,0.846873,0.193709
1,126,8,1,8,2,1,C,7,L,6,S,7,0.869105,0.157533,0.136913
1,127,9,8,1,2,1,I,1,S,1,S,22,0.767899,0.63342,0.486402
1,128,9,1,1,8,1,I,8,L,7,L,10,0.775066,0.500853,0.388194
1,129,2,9,8,9,1,C,7,L,1,S,8,0.261454,0.797319,0.208462
1,130,1,8,2,9,1,C,7,L,7,L,7,0.150903,0.877584,0.13243
1,131,2,9,2,1,1,I,7,L,1,S,9,0.38353,0.760225,0.291569
1,132,2,8,1,9,1,C,6,S,8,L,7,0.157537,0.865971,0.136423
1,133,8,1,2,8,1,I,7,L,6,S,10,0.780703,0.477218,0.372566
1,134,1,2,1,8,1,C,1,S,7,L,8,0.226057,0.838854,0.189629
1,135,2,1,1,2,1,I,1,S,1,S,13,0.778906,0.528621,0.411746
1,136,8,1,8,1,1,C,7,L,7,L,7,0.895839,0.139776,0.125216
1,137,2,1,9,8,1,C,1,S,1,S,9,0.762392,0.320364,0.244243
1,138,8,1,1,9,1,I,7,L,8,L,10,0.753104,0.51671,0.389136
1,139,9,1,1,2,1,I,8,L,1,S,9,0.810014,0.365246,0.295855
1,140,9,1,2,1,1,C,8,L,1,S,7,0.802901,0.202366,0.16248
1,141,9,8,8,1,1,C,1,S,7,L,9,0.832661,0.277383,0.230966
1,142,9,1,1,9,1,I,8,L,8,L,10,0.772728,0.504202,0.389611
1,143,1,2,1,9,1,C,1,S,8,L,8,0.223836,0.8422,0.188515
1,144,8,2,8,2,1,C,6,S,6,S,7,0.828179,0.18444,0.152749
2,1,8,9,2,8,1,C,1,S,6,S,8,0.280529,0.760107,0.213232
2,2,1,9,9,8,1,I,8,L,1,S,8,0.259869,0.815705,0.211977
2,3,9,1,8,9,1,I,8,L,1,S,8,0.785489,0.294828,0.231584
2,4,2,1,1,9,1,I,1,S,8,L,17,0.751459,0.650679,0.488959
2,5,1,2,8,1,1,I,1,S,7,L,18,0.653159,0.754963,0.493111
2,6,2,8,8,2,1,I,6,S,6,S,10,0.490579,0.751985,0.368909
2,7,8,9,9,2,1,I,1,S,7,L,20,0.649583,0.763208,0.495767
2,8,8,1,2,9,1,I,7,L,7,L,10,0.759357,0.496056,0.376684
2,9,9,2,1,2,1,I,7,L,1,S,9,0.76402,0.39397,0.301001
2,10,2,9,1,2,1,C,7,L,1,S,7,0.215096,0.775263,0.166756
2,11,1,9,8,1,1,I,8,L,7,L,10,0.499493,0.76841,0.383815
2,12,2,9,1,9,1,C,7,L,8,L,7,0.146819,0.881908,0.129481
2,13,2,9,8,9,1,C,7,L,1,S,8,0.227846,0.840024,0.191396
2,14,9,8,8,1,1,C,1,S,7,L,9,0.810053,0.298399,0.241719
2,15,1,9,1,9,1,C,8,L,8,L,6,0.163562,0.763541,0.124886
2,16,9,2,2,8,1,I,7,L,6,S,10,0.752882,0.497232,0.374357
2,17,2,1,2,9,1,I,1,S,7,L,17,0.766937,0.629697,0.482937
2,18,1,9,1,8,1,C,8,L,7,L,6,0.167502,0.756803,0.126766
2,19,8,2,8,2,1,C,6,S,6,S,7,0.814303,0.190691,0.15528
2,20,9,8,2,1,1,C,1,S,1,S,11,0.792977,0.356909,0.283021
2,21,2,8,9,1,1,I,6,S,8,L,11,0.545146,0.761376,0.415061
2,22,1,8,1,8,1,C,7,L,7,L,6,0.171082,0.751367,0.128545
2,23,2,9,9,1,1,I,7,L,8,L,11,0.539212,0.769454,0.414899
2,24,2,9,2,9,1,C,7,L,7,L,7,0.162728,0.85687,0.139437
2,25,1,8,8,2,1,I,7,L,6,S,10,0.465985,0.787817,0.367111
2,26,8,2,2,1,1,C,6,S,1,S,8,0.848074,0.216293,0.183432
2,27,1,9,9,2,1,I,8,L,7,L,10,0.47297,0.78669,0.372081
2,28,9,2,9,2,1,C,7,L,7,L,7,0.847475,0.171364,0.145227
2,29,2,1,9,2,1,C,1,S,7,L,8,0.81403,0.237365,0.193223
2,30,2,8,9,2,1,I,6,S,7,L,11,0.511347,0.784728,0.401268
2,31,9,2,8,1,1,C,7,L,7,L,7,0.871777,0.155839,0.135857
2,32,8,1,9,2,1,C,7,L,7,L,7,0.860805,0.160177,0.137881
2,33,9,1,2,9,1,I,8,L,7,L,10,0.779093,0.483814,0.376936
2,34,2,9,2,8,1,C,7,L,6,S,7,0.168721,0.847162,0.142934
2,35,1,2,8,9,1,C,1,S,1,S,10,0.299139,0.827542,0.24755
2,36,2,9,2,1,1,I,7,L,1,S,9,0.357095,0.788464,0.281557
2,37,1,8,2,1,1,I,7,L,1,S,8,0.331313,0.750695,0.248715
2,38,9,8,2,9,0,I,1,S,7,L,10,0.370293,0.782697,0.289827
2,39,8,9,1,8,1,C,1,S,7,L,8,0.261561,0.789133,0.206406
2,40,8,2,1,2,1,I,6,S,1,S,10,0.789094,0.421794,0.332835
2,41,9,8,1,2,0,I,1,S,1,S,13,0.460721,0.766991,0.353369
2,42,9,8,1,8,0,I,1,S,7,L,9,0.35511,0.753516,0.267581
2,43,9,1,1,9,1,I,8,L,8,L,10,0.760767,0.510485,0.38836
2,44,8,9,9,8,1,I,1,S,1,S,12,0.417193,0.763621,0.318578
2,45,9,2,1,8,1,I,7,L,7,L,11,0.772642,0.535139,0.413471
2,46,8,1,1,9,1,I,7,L,8,L,11,0.780541,0.53122,0.414639
2,47,9,1,9,1,1,C,8,L,8,L,6,0.760995,0.166859,0.126979
2,48,8,1,1,8,1,I,7,L,7,L,11,0.785737,0.523491,0.411326
2,49,9,2,8,9,1,I,7,L,1,S,8,0.752178,0.317814,0.239053
2,50,2,9,1,8,1,C,7,L,7,L,7,0.151288,0.874475,0.132298
2,51,8,1,8,2,1,C,7,L,6,S,7,0.850827,0.16604,0.141271
2,52,8,1,8,9,1,I,7,L,1,S,8,0.766129,0.306057,0.234479
2,53,2,9,9,2,1,I,7,L,7,L,10,0.496102,0.752874,0.373502
2,54,2,8,2,1,1,I,6,S,1,S,9,0.362927,0.780152,0.283138
2,55,1,8,2,9,1,C,7,L,7,L,7,0.146721,0.882554,0.129489
2,56,9,2,9,8,1,C,7,L,1,S,8,0.805876,0.26007,0.209584
2,57,8,2,2,9,1,I,6,S,7,L,11,0.760256,0.533513,0.405606
2,58,9,1,1,8,1,I,8,L,7,L,10,0.765942,0.502616,0.384975
2,59,1,2,2,9,1,C,1,S,7,L,8,0.246089,0.804323,0.197935
2,60,1,9,8,9,1,C,8,L,1,S,7,0.23393,0.760797,0.177973
2,61,2,9,8,1,1,I,7,L,7,L,11,0.531412,0.774469,0.411562
2,62,2,8,2,8,1,C,6,S,6,S,7,0.173852,0.839543,0.145956
2,63,9,8,1,9,0,I,1,S,8,L,9,0.350046,0.761426,0.266534
2,64,9,1,2,8,1,I,8,L,6,S,10,0.786284,0.473078,0.371974
2,65,1,2,9,8,1,I,1,S,1,S,11,0.385667,0.773285,0.298231
2,66,1,2,2,8,1,C,1,S,6,S,8,0.252689,0.793899,0.200609
2,67,1,9,2,8,1,C,8,L,6,S,7,0.148712,0.878837,0.130694
2,68,1,2,9,1,1,I,1,S,8,L,18,0.659555,0.750649,0.495094
2,69,8,9,1,2,1,C,1,S,1,S,9,0.309054,0.769138,0.237705
2,70,1,2,2,1,1,I,1,S,1,S,14,0.544799,0.759106,0.413561
2,71,8,1,8,1,1,C,7,L,7,L,7,0.885107,0.144651,0.128032
2,72,8,1,1,2,1,I,7,L,1,S,9,0.77802,0.381998,0.297202
2,73,1,9,1,2,1,C,8,L,1,S,7,0.195088,0.806938,0.157424
2,74,2,8,8,9,1,C,6,S,1,S,8,0.233418,0.831894,0.194179
2,75,2,8,1,2,1,C,6,S,1,S,7,0.220227,0.767644,0.169056
2,76,8,9,2,1,1,I,1,S,1,S,17,0.583634,0.773904,0.451677
2,77,8,2,9,8,1,C,6,S,1,S,8,0.780907,0.275043,0.214783
2,78,9,1,2,1,1,C,8,L,1,S,7,0.78503,0.212158,0.166551
2,79,9,2,8,2,1,C,7,L,6,S,7,0.837497,0.177227,0.148427
2,80,8,1,9,1,1,C,7,L,8,L,7,0.892461,0.140502,0.125393
2,81,9,1,9,2,1,C,8,L,7,L,7,0.879178,0.149933,0.131817
2,82,2,8,2,9,1,C,6,S,7,L,7,0.167859,0.849252,0.142555
2,83,2,1,8,9,1,I,1,S,1,S,12,0.773836,0.454854,0.351983
2,84,1,9,8,2,1,I,8,L,6,S,10,0.461506,0.79407,0.366468
2,85,9,2,1,9,1,I,7,L,8,L,11,0.767445,0.542869,0.416622
2,86,1,8,1,9,1,C,7,L,8,L,6,0.167142,0.758105,0.126711
2,87,2,1,2,1,1,C,1,S,1,S,9,0.802859,0.280253,0.225004
2,88,2,1,8,1,1,C,1,S,7,L,8,0.839985,0.220395,0.185129
2,89,9,1,1,2,1,I,8,L,1,S,9,0.797768,0.370122,0.295271
2,90,1,2,9,2,1,I,1,S,7,L,18,0.63351,0.769623,0.487564
2,91,2,1,8,2,1,C,1,S,6,S,8,0.803126,0.243959,0.19593
2,92,8,2,8,9,1,I,6,S,1,S,9,0.79735,0.333117,0.265611
2,93,9,1,8,1,1,C,8,L,7,L,6,0.754392,0.170448,0.128584
2,94,2,8,1,8,1,C,6,S,7,L,7,0.156419,0.866857,0.135593
2,95,8,2,9,2,1,C,6,S,7,L,7,0.824281,0.184828,0.15235
2,96,9,8,8,2,1,C,1,S,6,S,9,0.772102,0.323348,0.249658
2,97,8,9,8,1,1,I,1,S,7,L,21,0.654227,0.76926,0.503271
2,98,8,9,1,9,1,C,1,S,8,L,8,0.256724,0.796925,0.20459
2,99,1,9,2,1,1,I,8,L,1,S,8,0.327037,0.756955,0.247552
2,100,1,9,9,1,1,I,8,L,8,L,10,0.507407,0.763447,0.387379
2,101,2,1,9,1,1,C,1,S,8,L,8,0.847748,0.215842,0.182979
2,102,1,2,1,9,1,C,1,S,8,L,8,0.228884,0.830717,0.190138
2,103,1,9,2,9,1,C,8,L,7,L,7,0.14272,0.888546,0.126813
2,104,9,2,9,1,1,C,7,L,8,L,7,0.879132,0.151689,0.133355
2,105,8,1,2,1,1,C,7,L,1,S,7,0.766657,0.222402,0.170506
2,106,2,1,1,8,1,I,1,S,7,L,17,0.755981,0.644246,0.487038
2,107,1,2,1,2,1,C,1,S,1,S,9,0.274635,0.812959,0.223267
2,108,2,1,2,8,1,I,1,S,6,S,16,0.750799,0.630135,0.473104
2,109,1,8,9,1,1,I,7,L,8,L,10,0.511887,0.757194,0.387598
2,110,8,1,2,8,1,I,7,L,6,S,10,0.766548,0.485321,0.372022
2,111,1,8,9,2,1,I,7,L,7,L,10,0.477449,0.780437,0.372619
2,112,9,8,2,8,0,I,1,S,6,S,10,0.377483,0.771962,0.291402
2,113,9,8,9,2,1,C,1,S,7,L,9,0.783461,0.316257,0.247775
2,114,1,8,9,8,1,I,7,L,1,S,8,0.264145,0.809445,0.213811
2,115,9,8,8,9,1,I,1,S,1,S,22,0.750178,0.633424,0.47518
2,116,2,1,1,2,1,I,1,S,1,S,14,0.759332,0.560356,0.425496
2,117,1,8,8,9,1,C,7,L,1,S,7,0.237931,0.754805,0.179592
2,118,2,8,1,9,1,C,6,S,8,L,7,0.15195,0.87429,0.132849
2,119,1,2,8,2,1,I,1,S,6,S,17,0.635033,0.754312,0.479013
2,120,1,2,1,8,1,C,1,S,7,L,8,0.233721,0.822925,0.192335
2,121,2,8,8,1,1,I,6,S,7,L,11,0.537346,0.766391,0.411817
2,122,8,1,9,8,1,C,7,L,1,S,8,0.819828,0.248313,0.203574
2,123,9,2,2,1,1,C,7,L,1,S,7,0.753328,0.233589,0.175969
2,124,8,9,2,9,1,C,1,S,7,L,8,0.27393,0.770531,0.211071
2,125,8,2,2,8,1,I,6,S,6,S,11,0.7675,0.522958,0.401371
2,126,8,2,1,9,1,I,6,S,8,L,12,0.776474,0.563423,0.437483
2,127,2,9,9,8,1,I,7,L,1,S,8,0.281544,0.782279,0.220246
2,128,8,2,1,8,1,I,6,S,7,L,12,0.781627,0.555888,0.434497
2,129,8,9,9,1,0,I,1,S,8,L,12,0.75262,0.514221,0.387013
2,130,9,1,8,2,1,C,8,L,6,S,7,0.8692,0.155795,0.135417
2,131,2,8,9,8,1,I,6,S,1,S,8,0.287116,0.77415,0.222271
2,132,1,8,1,2,1,C,7,L,1,S,7,0.199088,0.800947,0.159459
2,133,8,2,9,1,1,C,6,S,8,L,7,0.855937,0.165154,0.141361
2,134,2,1,9,8,1,C,1,S,1,S,10,0.788321,0.333458,0.262872
2,135,8,9,8,2,1,I,1,S,6,S,20,0.641438,0.76894,0.493227
2,136,9,2,2,9,1,I,7,L,7,L,11,0.785787,0.516748,0.406054
2,137,9,8,9,8,1,C,1,S,1,S,14,0.804856,0.392749,0.316106
2,138,9,8,9,1,1,C,1,S,8,L,9,0.817976,0.293582,0.240143
2,139,8,2,8,1,1,C,6,S,7,L,7,0.848583,0.169303,0.143667
2,140,1,8,2,8,1,C,7,L,6,S,7,0.152713,0.872846,0.133295
2,141,2,9,8,2,1,I,7,L,6,S,10,0.484638,0.760254,0.368448
2,142,9,1,9,8,1,C,8,L,1,S,8,0.839187,0.237084,0.198958
2,143,8,9,8,9,1,C,1,S,1,S,10,0.33939,0.774694,0.262924
2,144,1,8,8,1,1,I,7,L,7,L,10,0.503972,0.762157,0.384106
3,1,2,9,8,9,1,C,7,L,1,S,8,0.246621,0.818653,0.201897
3,2,8,9,2,9,1,C,1,S,7,L,8,0.264569,0.780418,0.206475
3,3,8,9,1,8,1,C,1,S,7,L,8,0.240249,0.817955,0.196513
3,4,2,1,1,9,1,I,1,S,8,L,17,0.77008,0.638311,0.491551
3,5,2,8,9,2,1,I,6,S,7,L,11,0.547678,0.751271,0.411455
3,6,1,8,9,8,1,I,7,L,1,S,8,0.264361,0.808832,0.213824
3,7,8,2,2,9,1,I,6,S,7,L,11,0.767645,0.522861,0.401371
3,8,8,1,2,8,1,I,7,L,6,S,10,0.766376,0.484602,0.371388
3,9,2,1,1,8,1,I,1,S,7,L,17,0.771334,0.636517,0.490967
3,10,2,1,8,1,1,C,1,S,7,L,8,0.864746,0.203955,0.176369
3,11,1,9,2,9,1,C,8,L,7,L,7,0.139092,0.892165,0.124093
3,12,1,2,8,9,1,C,1,S,1,S,10,0.308929,0.812753,0.251083
3,13,8,1,8,9,1,I,7,L,1,S,8,0.783582,0.284974,0.223301
3,14,1,2,8,2,1,I,1,S,6,S,17,0.636776,0.758238,0.482828
3,15,8,9,9,8,1,I,1,S,1,S,12,0.396752,0.794948,0.315397
3,16,9,2,1,8,1,I,7,L,7,L,11,0.757652,0.550815,0.417326
3,17,8,2,9,2,1,C,6,S,7,L,7,0.848384,0.168427,0.142891
3,18,8,1,8,1,1,C,7,L,7,L,7,0.88999,0.141117,0.125592
3,19,1,9,9,1,1,I,8,L,8,L,10,0.50454,0.770624,0.388811
3,20,9,1,8,1,1,C,8,L,7,L,6,0.752656,0.171707,0.129236
3,21,9,8,1,2,0,I,1,S,1,S,13,0.457063,0.762141,0.348347
3,22,2,9,9,8,1,I,7,L,1,S,8,0.284044,0.780929,0.221818
3,23,8,9,1,2,1,C,1,S,1,S,9,0.304527,0.772559,0.235265
3,24,9,1,8,9,1,I,8,L,1,S,8,0.795948,0.278914,0.222001
3,25,8,1,9,1,1,C,7,L,8,L,7,0.8975,0.13694,0.122904
3,26,2,8,2,9,1,C,6,S,7,L,7,0.183169,0.826021,0.151301
3,27,1,9,8,2,1,I,8,L,6,S,10,0.478706,0.787694,0.377074
3,28,2,8,1,9,1,C,6,S,8,L,7,0.159489,0.863615,0.137737
3,29,9,8,2,1,1,C,1,S,1,S,11,0.807589,0.3492,0.28201
3,30,2,9,1,2,1,C,7,L,1,S,7,0.22522,0.761452,0.171494
3,31,1,8,1,2,1,C,7,L,1,S,7,0.206862,0.787942,0.162995
3,32,1,2,1,2,1,C,1,S,1,S,9,0.269344,0.813836,0.219202
3,33,9,2,2,1,1,C,7,L,1,S,7,0.760205,0.226465,0.17216
3,34,2,9,9,2,1,I,7,L,7,L,11,0.529596,0.776409,0.411183
3,35,2,8,8,2,1,I,6,S,6,S,11,0.538196,0.757402,0.407631
3,36,1,9,9,8,1,I,8,L,1,S,8,0.253145,0.825969,0.20909
3,37,9,8,2,8,0,I,1,S,6,S,10,0.369717,0.780029,0.28839
3,38,8,2,8,9,1,I,6,S,1,S,9,0.823637,0.300997,0.247912
3,39,1,9,8,1,1,I,8,L,7,L,10,0.496507,0.775604,0.385093
3,40,9,8,9,2,1,C,1,S,7,L,9,0.80183,0.30715,0.246283
3,41,9,1,1,8,1,I,8,L,7,L,10,0.750915,0.519133,0.389825
3,42,2,9,1,8,1,C,7,L,7,L,7,0.14548,0.884774,0.128717
3,43,1,8,8,2,1,I,7,L,6,S,10,0.490535,0.770525,0.377969
3,44,8,2,9,1,1,C,6,S,8,L,7,0.863687,0.158862,0.137207
3,45,1,8,2,1,1,I,7,L,1,S,9,0.359198,0.800408,0.287505
3,46,9,1,2,8,1,I,8,L,6,S,10,0.77921,0.477676,0.37221
3,47,2,9,1,9,1,C,7,L,8,L,7,0.144234,0.886846,0.127914
3,48,2,9,8,2,1,I,7,L,6,S,11,0.520115,0.78254,0.40701
3,49,1,8,2,9,1,C,7,L,7,L,7,0.149555,0.875741,0.130972
3,50,9,1,1,9,1,I,8,L,8,L,11,0.788943,0.52949,0.417738
3,51,8,2,8,2,1,C,6,S,6,S,7,0.839602,0.173413,0.145598
3,52,8,9,2,1,1,I,1,S,1,S,16,0.584896,0.765902,0.447973
3,53,1,2,2,1,1,I,1,S,1,S,14,0.548478,0.76355,0.41879
3,54,1,8,1,8,1,C,7,L,7,L,6,0.163666,0.761499,0.124631
3,55,2,8,2,8,1,C,6,S,6,S,7,0.185078,0.822956,0.152311
3,56,1,2,8,1,1,I,1,S,7,L,18,0.640546,0.768594,0.49232
3,57,2,8,8,1,1,I,6,S,7,L,12,0.559634,0.779877,0.436446
3,58,2,1,9,1,1,C,1,S,8,L,7,0.752116,0.232285,0.174705
3,59,8,2,1,9,1,I,6,S,8,L,12,0.774572,0.566061,0.438455
3,60,8,1,2,9,1,I,7,L,7,L,10,0.764075,0.488018,0.372883
3,61,9,8,8,2,1,C,1,S,6,S,9,0.792229,0.313011,0.247977
3,62,9,8,8,9,1,I,1,S,1,S,22,0.758636,0.615051,0.4666
3,63,2,1,2,8,1,I,1,S,6,S,15,0.750674,0.619088,0.464733
3,64,9,8,1,8,0,I,1,S,7,L,9,0.342045,0.771422,0.263861
3,65,8,9,1,9,1,C,1,S,8,L,8,0.238907,0.820115,0.195932
3,66,2,1,8,9,1,I,1,S,1,S,11,0.796578,0.38532,0.306937
3,67,2,9,2,9,1,C,7,L,7,L,7,0.167913,0.849251,0.142601
3,68,1,8,8,9,1,C,7,L,1,S,8,0.226938,0.846556,0.192116
3,69,8,9,2,8,1,C,1,S,6,S,8,0.266677,0.777113,0.207238
3,70,9,1,9,1,1,C,8,L,8,L,6,0.759445,0.168083,0.127649
3,71,9,1,9,2,1,C,8,L,7,L,7,0.893839,0.141153,0.126168
3,72,8,9,9,2,1,I,1,S,7,L,19,0.657202,0.757108,0.497573
3,73,2,9,2,8,1,C,7,L,6,S,7,0.169823,0.846186,0.143702
3,74,1,8,1,9,1,C,7,L,8,L,6,0.162558,0.763396,0.124096
3,75,9,8,1,9,0,I,1,S,8,L,9,0.340646,0.773608,0.263526
3,76,1,8,8,1,1,I,7,L,7,L,10,0.508336,0.758434,0.38554
3,77,1,9,9,2,1,I,8,L,7,L,10,0.488321,0.781637,0.38169
3,78,8,1,9,2,1,C,7,L,7,L,7,0.882197,0.146505,0.129246
3,79,1,8,9,1,1,I,7,L,8,L,10,0.516369,0.753455,0.389061
3,80,2,1,9,8,1,C,1,S,1,S,10,0.816596,0.314431,0.256763
3,81,2,8,2,1,1,I,6,S,1,S,10,0.407531,0.798477,0.325404
3,82,8,1,2,1,1,C,7,L,1,S,7,0.779895,0.211388,0.16486
3,83,8,9,9,1,1,I,1,S,8,L,20,0.656451,0.768167,0.504264
3,84,1,2,9,8,1,I,1,S,1,S,11,0.368285,0.795365,0.292921
3,85,1,2,9,2,1,I,1,S,7,L,17,0.644662,0.752843,0.485329
3,86,1,9,1,8,1,C,8,L,7,L,6,0.154327,0.776465,0.119829
3,87,2,1,2,1,1,C,1,S,1,S,9,0.847239,0.249213,0.211143
3,88,8,2,1,8,1,I,6,S,7,L,12,0.775992,0.563979,0.437643
3,89,1,8,9,2,1,I,7,L,7,L,10,0.50015,0.764468,0.382348
3,90,9,1,2,1,1,C,8,L,1,S,7,0.791537,0.206035,0.163085
3,91,8,1,1,2,1,I,7,L,1,S,9,0.790843,0.362112,0.286374
3,92,2,1,2,9,1,I,1,S,7,L,16,0.772374,0.614712,0.474787
3,93,1,2,9,1,1,I,1,S,8,L,18,0.647133,0.76421,0.494545
3,94,2,1,1,2,1,I,1,S,1,S,13,0.7727,0.518647,0.400759
3,95,8,2,8,1,1,C,6,S,7,L,7,0.856178,0.163039,0.13959
3,96,9,1,8,2,1,C,8,L,6,S,7,0.885057,0.146138,0.129341
3,97,1,2,2,8,1,C,1,S,6,S,8,0.236857,0.810033,0.191862
3,98,8,2,9,8,1,C,6,S,1,S,8,0.784958,0.271121,0.212818
3,99,8,1,1,9,1,I,7,L,8,L,11,0.776159,0.536627,0.416508
3,100,9,1,2,9,1,I,8,L,7,L,10,0.776909,0.481092,0.373765
3,101,9,2,2,9,1,I,7,L,7,L,11,0.783698,0.513532,0.402454
3,102,9,2,9,2,1,C,7,L,7,L,7,0.862507,0.161583,0.139366
3,103,8,2,1,2,1,I,6,S,1,S,9,0.75396,0.387168,0.291909
3,104,8,1,9,8,1,C,7,L,1,S,8,0.821005,0.24725,0.202993
3,105,2,9,8,1,1,I,7,L,7,L,11,0.537565,0.770417,0.414149
3,106,8,9,8,9,1,C,1,S,1,S,10,0.348386,0.764847,0.266462
3,107,9,2,8,2,1,C,7,L,6,S,7,0.853725,0.166568,0.142203
3,108,8,1,8,2,1,C,7,L,6,S,7,0.873415,0.151491,0.132314
3,109,9,2,8,1,1,C,7,L,7,L,7,0.870301,0.156194,0.135936
3,110,2,1,8,2,1,C,1,S,6,S,8,0.847204,0.215235,0.182348
3,111,9,2,8,9,1,I,7,L,1,S,8,0.762835,0.301005,0.229617
3,112,2,8,9,8,1,I,6,S,1,S,8,0.30076,0.755945,0.227358
3,113,2,8,9,1,1,I,6,S,8,L,12,0.567388,0.774856,0.439644
3,114,9,2,9,1,1,C,7,L,8,L,7,0.87781,0.152017,0.133442
3,115,8,9,8,1,1,I,1,S,7,L,19,0.662836,0.752662,0.498891
3,116,8,1,1,8,1,I,7,L,7,L,11,0.777592,0.534494,0.415618
3,117,8,2,2,8,1,I,6,S,6,S,11,0.769964,0.519501,0.399997
3,118,8,9,8,2,1,I,1,S,6,S,19,0.649778,0.762158,0.495233
3,119,9,2,2,8,1,I,7,L,6,S,11,0.786017,0.510172,0.401004
3,120,9,8,9,1,1,C,1,S,8,L,9,0.818158,0.296346,0.242458
3,121,2,9,9,1,1,I,7,L,8,L,11,0.545487,0.765382,0.417506
3,122,9,8,9,8,1,C,1,S,1,S,14,0.789744,0.406523,0.321049
3,123,9,8,8,1,1,C,1,S,7,L,9,0.810114,0.30118,0.24399
3,124,1,9,8,9,1,C,8,L,1,S,7,0.238746,0.7573,0.180802
3,125,1,2,2,9,1,C,1,S,7,L,8,0.23475,0.813338,0.190931
3,126,8,2,2,1,1,C,6,S,1,S,8,0.868436,0.199716,0.17344
3,127,1,9,2,8,1,C,8,L,6,S,7,0.141001,0.8891,0.125364
3,128,1,9,1,2,1,C,8,L,1,S,7,0.196398,0.804365,0.157976
3,129,2,1,9,2,1,C,1,S,7,L,8,0.856561,0.209722,0.17964
3,130,9,2,9,8,1,C,7,L,1,S,8,0.800258,0.26328,0.210692
3,131,2,8,1,2,1,C,6,S,1,S,8,0.207514,0.859608,0.178381
3,132,9,2,1,2,1,I,7,L,1,S,9,0.769872,0.3786,0.291474
3,133,2,8,8,9,1,C,6,S,1,S,8,0.263336,0.793669,0.209002
3,134,9,1,9,8,1,C,8,L,1,S,8,0.833371,0.24119,0.201001
3,135,1,9,1,9,1,C,8,L,8,L,6,0.15322,0.778361,0.11926
3,136,2,8,1,8,1,C,6,S,7,L,7,0.160735,0.861543,0.13848
3,137,9,1,1,2,1,I,8,L,1,S,9,0.803568,0.355535,0.285697
3,138,9,2,1,9,1,I,7,L,8,L,11,0.75622,0.552949,0.418151
3,139,1,8,2,8,1,C,7,L,6,S,7,0.151464,0.872676,0.132179
3,140,1,2,1,9,1,C,1,S,8,L,8,0.209088,0.853035,0.178359
3,141,2,9,2,1,1,I,7,L,1,S,9,0.379604,0.77212,0.2931
3,142,1,9,2,1,1,I,8,L,1,S,8,0.336623,0.754564,0.254004
3,143,9,8,2,9,0,I,1,S,7,L,10,0.367416,0.783445,0.28785
3,144,1,2,1,8,1,C,1,S,7,L,8,0.210429,0.850875,0.179049
4,1,8,9,1,8,1,C,1,S,7,L,9,0.284148,0.822853,0.233812
4,2,1,2,2,9,1,C,1,S,7,L,8,0.215739,0.847975,0.182941
4,3,8,9,8,9,1,C,1,S,1,S,12,0.360832,0.804338,0.290231
4,4,1,2,8,1,1,I,1,S,7,L,16,0.633804,0.76149,0.482635
4,5,2,8,2,9,1,C,6,S,7,L,7,0.176932,0.835711,0.147864
4,6,9,1,8,9,1,I,8,L,1,S,8,0.794235,0.287172,0.228082
4,7,8,2,8,9,1,I,6,S,1,S,9,0.795808,0.331086,0.263481
4,8,8,2,2,1,1,C,6,S,1,S,7,0.750623,0.232036,0.174171
4,9,8,1,8,1,1,C,7,L,7,L,7,0.891876,0.138871,0.123855
4,10,1,2,2,1,1,I,1,S,1,S,13,0.537554,0.763473,0.410408
4,11,2,1,8,1,1,C,1,S,7,L,8,0.835867,0.224296,0.187482
4,12,2,9,9,8,1,I,7,L,1,S,9,0.335119,0.801588,0.268627
4,13,8,1,9,1,1,C,7,L,8,L,6,0.757945,0.165787,0.125657
4,14,8,2,8,1,1,C,6,S,7,L,7,0.850598,0.166772,0.141856
4,15,9,2,2,1,1,C,7,L,1,S,7,0.7816,0.214307,0.167502
4,16,1,2,8,2,1,I,1,S,6,S,15,0.616776,0.756489,0.466584
4,17,1,8,8,9,1,C,7,L,1,S,8,0.213717,0.857713,0.183308
4,18,2,8,9,1,1,I,6,S,8,L,12,0.570489,0.7723,0.440589
4,19,9,1,2,8,1,I,8,L,6,S,10,0.796749,0.466083,0.371351
4,20,2,8,8,2,1,I,6,S,6,S,11,0.521302,0.770095,0.401452
4,21,8,1,8,9,1,I,7,L,1,S,8,0.769024,0.301528,0.231882
4,22,1,2,1,8,1,C,1,S,7,L,7,0.231832,0.752943,0.174556
4,23,1,2,8,9,1,C,1,S,1,S,9,0.297529,0.785959,0.233846
4,24,1,8,1,9,1,C,7,L,8,L,6,0.166093,0.758088,0.125913
4,25,9,1,2,1,1,C,8,L,1,S,7,0.815863,0.191053,0.155873
4,26,8,9,9,1,0,I,1,S,8,L,9,0.763666,0.34627,0.264435
4,27,8,1,2,8,1,I,7,L,6,S,10,0.771046,0.481774,0.37147
4,28,8,2,9,8,1,C,6,S,1,S,8,0.822421,0.237132,0.195022
4,29,8,1,1,2,1,I,7,L,1,S,9,0.786617,0.373807,0.294043
4,30,8,2,9,2,1,C,6,S,7,L,7,0.842581,0.172976,0.145746
4,31,2,9,8,9,1,C,7,L,1,S,8,0.235222,0.8275,0.194647
4,32,9,2,8,2,1,C,7,L,6,S,7,0.853329,0.167873,0.143251
4,33,8,9,8,1,0,I,1,S,7,L,10,0.79426,0.359999,0.285933
4,34,8,1,2,1,1,C,7,L,1,S,7,0.791901,0.204134,0.161654
4,35,1,2,1,9,1,C,1,S,8,L,7,0.227163,0.760337,0.172721
4,36,8,1,1,9,1,I,7,L,8,L,11,0.778939,0.53587,0.41741
4,37,8,1,8,2,1,C,7,L,6,S,7,0.86363,0.1577,0.136195
4,38,9,1,1,2,1,I,8,L,1,S,9,0.812325,0.358605,0.291303
4,39,9,2,8,1,1,C,7,L,7,L,7,0.881575,0.149044,0.131393
4,40,9,8,8,2,1,C,1,S,6,S,8,0.782937,0.264553,0.207128
4,41,9,1,9,8,1,C,8,L,1,S,7,0.776122,0.22254,0.172718
4,42,2,9,2,1,1,I,7,L,1,S,9,0.399982,0.75376,0.301491
4,43,9,2,2,9,1,I,7,L,7,L,10,0.752781,0.503776,0.379233
4,44,1,8,2,8,1,C,7,L,6,S,7,0.157055,0.864907,0.135838
4,45,2,9,8,2,1,I,7,L,6,S,11,0.513023,0.782438,0.401408
4,46,8,9,8,2,0,I,1,S,6,S,10,0.763843,0.381693,0.291553
4,47,9,2,8,9,1,I,7,L,1,S,8,0.758352,0.312042,0.236637
4,48,8,9,9,2,0,I,1,S,7,L,10,0.786006,0.366701,0.288229
4,49,8,2,2,9,1,I,6,S,7,L,11,0.758658,0.534761,0.405701
4,50,2,1,2,9,1,I,1,S,7,L,17,0.758525,0.6385,0.484318
4,51,9,2,1,8,1,I,7,L,7,L,11,0.774645,0.538295,0.416988
4,52,2,9,2,9,1,C,7,L,7,L,7,0.170245,0.846889,0.144178
4,53,1,2,9,8,1,I,1,S,1,S,11,0.446423,0.752597,0.335977
4,54,1,9,1,9,1,C,8,L,8,L,6,0.161797,0.765819,0.123907
4,55,2,8,1,8,1,C,6,S,7,L,7,0.161196,0.86033,0.138682
4,56,9,2,9,8,1,C,7,L,1,S,8,0.855774,0.217374,0.186023
4,57,1,2,1,2,1,C,1,S,1,S,8,0.28025,0.750475,0.210321
4,58,2,1,9,8,1,C,1,S,1,S,9,0.762959,0.312782,0.238639
4,59,8,9,2,8,1,C,1,S,6,S,9,0.309863,0.784728,0.243158
4,60,1,2,9,1,1,I,1,S,8,L,16,0.647455,0.751866,0.486799
4,61,2,8,1,2,1,C,6,S,1,S,7,0.232884,0.750783,0.174845
4,62,1,2,9,2,1,I,1,S,7,L,16,0.627736,0.766834,0.481369
4,63,9,8,8,9,1,I,1,S,1,S,13,0.762493,0.491188,0.374527
4,64,1,8,9,1,1,I,7,L,8,L,11,0.536171,0.779624,0.418011
4,65,9,2,9,1,1,C,7,L,8,L,7,0.896938,0.139743,0.125341
4,66,8,9,2,1,0,I,1,S,1,S,13,0.755193,0.469985,0.35493
4,67,1,8,1,2,1,C,7,L,1,S,7,0.206181,0.790524,0.162991
4,68,2,1,2,1,1,C,1,S,1,S,9,0.827822,0.264954,0.219335
4,69,8,2,9,1,1,C,6,S,8,L,7,0.865961,0.157472,0.136365
4,70,8,9,1,9,1,C,1,S,8,L,8,0.295718,0.751519,0.222238
4,71,1,9,8,1,1,I,8,L,7,L,10,0.50584,0.760077,0.384477
4,72,8,2,1,2,1,I,6,S,1,S,10,0.792838,0.416849,0.330494
4,73,1,8,1,8,1,C,7,L,7,L,6,0.170259,0.751336,0.127922
4,74,2,8,2,8,1,C,6,S,6,S,7,0.183758,0.825165,0.15163
4,75,2,9,9,1,1,I,7,L,8,L,11,0.558626,0.750047,0.418996
4,76,9,1,9,1,1,C,8,L,8,L,6,0.779611,0.154455,0.120415
4,77,9,2,2,8,1,I,7,L,6,S,10,0.760881,0.49212,0.374445
4,78,9,8,2,8,1,I,1,S,6,S,18,0.758945,0.643931,0.488708
4,79,2,8,9,2,1,I,6,S,7,L,11,0.543062,0.755022,0.410024
4,80,1,8,2,1,1,I,7,L,1,S,9,0.377658,0.784457,0.296256
4,81,1,8,2,9,1,C,7,L,7,L,7,0.150229,0.875453,0.131518
4,82,2,8,8,1,1,I,6,S,7,L,12,0.55501,0.78293,0.434534
4,83,9,2,1,2,1,I,7,L,1,S,9,0.776045,0.384353,0.298275
4,84,9,1,9,2,1,C,8,L,7,L,6,0.758394,0.168318,0.127651
4,85,1,9,8,9,1,C,8,L,1,S,7,0.235271,0.75525,0.177689
4,86,2,9,1,8,1,C,7,L,7,L,7,0.154509,0.871509,0.134656
4,87,2,1,2,8,1,I,1,S,6,S,17,0.765257,0.629612,0.481815
4,88,2,1,1,2,1,I,1,S,1,S,14,0.753493,0.565141,0.42583
4,89,9,8,9,2,1,C,1,S,7,L,8,0.804566,0.250709,0.201712
4,90,9,2,9,2,1,C,7,L,7,L,7,0.873558,0.155247,0.135617
4,91,1,9,9,8,1,I,8,L,1,S,8,0.30576,0.772076,0.23607
4,92,8,1,9,8,1,C,7,L,1,S,7,0.752161,0.235621,0.177225
4,93,2,1,8,9,1,I,1,S,1,S,12,0.764474,0.458583,0.350575
4,94,9,8,1,9,1,I,1,S,8,L,19,0.755189,0.665245,0.502385
4,95,8,9,1,2,1,C,1,S,1,S,10,0.352624,0.762064,0.268722
4,96,1,8,9,2,1,I,7,L,7,L,10,0.503413,0.757597,0.381384
4,97,1,8,8,1,1,I,7,L,7,L,10,0.511667,0.750895,0.384209
4,98,1,9,1,8,1,C,8,L,7,L,6,0.165964,0.759067,0.125977
4,99,2,9,2,8,1,C,7,L,6,S,7,0.177071,0.836344,0.148092
4,100,9,1,8,2,1,C,8,L,6,S,7,0.887592,0.144619,0.128363
4,101,2,1,1,8,1,I,1,S,7,L,18,0.764758,0.647997,0.495561
4,102,9,8,1,8,1,I,1,S,7,L,19,0.759398,0.659418,0.500761
4,103,8,2,1,9,1,I,6,S,8,L,12,0.769905,0.571703,0.440157
4,104,9,8,2,1,1,C,1,S,1,S,9,0.799094,0.288547,0.230576
4,105,2,8,9,8,1,I,6,S,1,S,9,0.343035,0.789115,0.270694
4,106,8,2,1,8,1,I,6,S,7,L,12,0.775115,0.564356,0.43744
4,107,9,1,2,9,1,I,8,L,7,L,10,0.788648,0.477738,0.376767
4,108,8,1,1,8,1,I,7,L,7,L,11,0.784216,0.52831,0.41431
4,109,9,2,1,9,1,I,7,L,8,L,11,0.769369,0.545855,0.419963
4,110,9,1,1,8,1,I,8,L,7,L,10,0.77049,0.504037,0.388355
4,111,9,1,1,9,1,I,8,L,8,L,10,0.765208,0.511757,0.391601
4,112,1,9,1,2,1,C,8,L,1,S,7,0.201254,0.799101,0.160822
4,113,2,9,1,9,1,C,7,L,8,L,7,0.14984,0.878903,0.131695
4,114,2,9,9,2,1,I,7,L,7,L,11,0.534783,0.767365,0.410374
4,115,2,9,1,2,1,C,7,L,1,S,7,0.226197,0.761961,0.172353
4,116,1,9,2,8,1,C,8,L,6,S,7,0.152127,0.873483,0.132881
4,117,2,8,2,1,1,I,6,S,1,S,10,0.419645,0.792188,0.332438
4,118,2,1,1,9,1,I,1,S,8,L,18,0.760406,0.654,0.497306
4,119,2,9,8,1,1,I,7,L,7,L,11,0.542746,0.760774,0.412907
4,120,8,2,8,2,1,C,6,S,6,S,7,0.822352,0.185602,0.15263
4,121,1,9,9,1,1,I,8,L,8,L,11,0.53029,0.788669,0.418223
4,122,2,8,1,9,1,C,6,S,8,L,7,0.156527,0.867725,0.135823
4,123,2,1,9,1,1,C,1,S,8,L,8,0.851924,0.214263,0.182536
4,124,9,8,9,1,1,C,1,S,8,L,8,0.828998,0.234127,0.194091
4,125,1,8,9,8,1,I,7,L,1,S,8,0.311139,0.763045,0.237413
4,126,1,9,8,2,1,I,8,L,6,S,10,0.475422,0.781771,0.371671
4,127,1,9,2,1,1,I,8,L,1,S,9,0.371987,0.793659,0.295231
4,128,2,1,9,2,1,C,1,S,7,L,8,0.827493,0.230845,0.191023
4,129,8,1,2,9,1,I,7,L,7,L,10,0.762945,0.493429,0.376459
4,130,8,1,9,2,1,C,7,L,7,L,7,0.883859,0.145074,0.128225
4,131,1,9,2,9,1,C,8,L,7,L,7,0.145301,0.884029,0.128451
4,132,1,8,8,2,1,I,7,L,6,S,10,0.48125,0.772589,0.371808
4,133,8,9,2,9,1,C,1,S,7,L,9,0.301961,0.796393,0.24048
4,134,8,9,9,8,1,I,1,S,1,S,23,0.620406,0.768504,0.476785
4,135,8,2,2,8,1,I,6,S,6,S,11,0.766789,0.523332,0.401286
4,136,1,9,9,2,1,I,8,L,7,L,10,0.497586,0.766779,0.381538
4,137,9,8,9,8,1,C,1,S,1,S,10,0.826132,0.301431,0.249021
4,138,9,8,2,9,1,I,1,S,7,L,18,0.752505,0.652436,0.490961
4,139,2,1,8,2,1,C,1,S,6,S,8,0.805864,0.244689,0.197186
4,140,9,8,8,1,1,C,1,S,7,L,8,0.81294,0.24416,0.198487
4,141,2,8,8,9,1,C,6,S,1,S,8,0.24265,0.81543,0.197864
4,142,1,2,2,8,1,C,1,S,6,S,8,0.223228,0.836635,0.186761
4,143,9,1,8,1,1,C,8,L,7,L,6,0.765622,0.162692,0.12456
4,144,9,8,1,2,1,I,1,S,1,S,16,0.770999,0.586988,0.452567
5,1,8,1,9,2,1,C,7,L,7,L,7,0.87303,0.153077,0.133641
5,2,1,2,9,8,1,I,1,S,1,S,11,0.400461,0.774058,0.30998
5,3,8,1,1,8,1,I,7,L,7,L,10,0.754491,0.509252,0.384226
5,4,8,2,1,2,1,I,6,S,1,S,10,0.796978,0.416566,0.331994
5,5,8,1,1,2,1,I,7,L,1,S,9,0.787059,0.376602,0.296408
5,6,1,8,2,8,1,C,7,L,6,S,7,0.156543,0.865578,0.1355
5,7,1,8,2,9,1,C,7,L,7,L,7,0.151024,0.876711,0.132404
5,8,8,9,8,2,0,I,1,S,6,S,11,0.77264,0.421371,0.325568
5,9,8,2,8,1,1,C,6,S,7,L,7,0.863151,0.159363,0.137554
5,10,9,2,8,9,1,I,7,L,1,S,8,0.775456,0.285233,0.221186
5,11,8,9,9,8,1,I,1,S,1,S,17,0.539765,0.766573,0.413769
5,12,8,2,1,9,1,I,6,S,8,L,12,0.782963,0.560166,0.438589
5,13,2,1,2,9,1,I,1,S,7,L,17,0.762412,0.635933,0.484843
5,14,9,2,8,2,1,C,7,L,6,S,7,0.839506,0.174503,0.146497
5,15,1,2,1,9,1,C,1,S,8,L,8,0.216367,0.852609,0.184477
5,16,1,9,8,9,1,C,8,L,1,S,8,0.24041,0.836119,0.201012
5,17,8,2,9,1,1,C,6,S,8,L,7,0.864863,0.159017,0.137528
5,18,8,9,8,9,1,C,1,S,1,S,13,0.382171,0.800252,0.305833
5,19,9,8,2,9,0,I,1,S,7,L,11,0.421909,0.77706,0.327849
5,20,2,9,9,2,1,I,7,L,7,L,11,0.512209,0.785559,0.402371
5,21,9,2,9,8,1,C,7,L,1,S,8,0.806978,0.253571,0.204627
5,22,9,8,1,2,1,I,1,S,1,S,21,0.753878,0.636215,0.479629
5,23,1,2,1,2,1,C,1,S,1,S,9,0.259831,0.837904,0.217713
5,24,9,8,1,9,0,I,1,S,8,L,10,0.389166,0.773312,0.300947
5,25,2,9,8,1,1,I,7,L,7,L,11,0.541434,0.764202,0.413765
5,26,8,9,2,9,1,C,1,S,7,L,9,0.281914,0.821167,0.231498
5,27,2,1,9,8,1,C,1,S,1,S,10,0.810147,0.312873,0.253473
5,28,8,1,2,1,1,C,7,L,1,S,7,0.772318,0.219398,0.169445
5,29,1,9,8,2,1,I,8,L,6,S,10,0.475124,0.785732,0.373321
5,30,1,9,1,2,1,C,8,L,1,S,7,0.195531,0.808047,0.157998
5,31,2,1,2,8,1,I,1,S,6,S,17,0.769282,0.625099,0.480877
5,32,2,9,1,8,1,C,7,L,7,L,7,0.152259,0.870872,0.132598
5,33,9,1,2,1,1,C,8,L,1,S,7,0.777211,0.216399,0.168188
5,34,9,8,9,1,1,C,1,S,8,L,8,0.760584,0.284945,0.216725
5,35,1,2,2,8,1,C,1,S,6,S,8,0.238825,0.816214,0.194932
5,36,1,2,9,2,1,I,1,S,7,L,16,0.636831,0.750559,0.477979
5,37,2,1,1,9,1,I,1,S,8,L,18,0.768898,0.644487,0.495545
5,38,8,9,1,8,1,C,1,S,7,L,8,0.291241,0.751469,0.218859
5,39,1,9,2,1,1,I,8,L,1,S,8,0.324141,0.760036,0.246359
5,40,1,8,9,2,1,I,7,L,7,L,10,0.488578,0.767487,0.374977
5,41,1,9,2,8,1,C,8,L,6,S,7,0.147271,0.881769,0.129859
5,42,9,2,9,1,1,C,7,L,8,L,7,0.871239,0.155,0.135042
5,43,9,8,2,8,0,I,1,S,6,S,11,0.429277,0.76456,0.328208
5,44,9,2,2,1,1,C,7,L,1,S,8,0.859187,0.20915,0.179699
5,45,8,2,2,1,1,C,6,S,1,S,8,0.852329,0.213571,0.182033
5,46,9,8,8,1,1,C,1,S,7,L,8,0.758746,0.285419,0.216561
5,47,9,8,9,8,1,C,1,S,1,S,12,0.803554,0.359371,0.288774
5,48,2,9,1,2,1,C,7,L,1,S,7,0.216846,0.771781,0.167357
5,49,2,8,9,1,1,I,6,S,8,L,12,0.562761,0.774842,0.436051
5,50,1,9,9,2,1,I,8,L,7,L,10,0.477596,0.784819,0.374827
5,51,8,9,2,8,1,C,1,S,6,S,9,0.288732,0.808726,0.233505
5,52,8,9,8,1,0,I,1,S,7,L,10,0.77497,0.385612,0.298838
5,53,8,2,1,8,1,I,6,S,7,L,11,0.754152,0.546579,0.412204
5,54,2,8,8,2,1,I,6,S,6,S,11,0.524829,0.763645,0.400783
5,55,8,1,8,9,1,I,7,L,1,S,8,0.808767,0.262594,0.212377
5,56,1,2,9,1,1,I,1,S,8,L,17,0.652174,0.754973,0.492374
5,57,1,2,8,9,1,C,1,S,1,S,10,0.342861,0.782378,0.268247
5,58,2,8,9,2,1,I,6,S,7,L,11,0.527345,0.762637,0.402173
5,59,2,9,2,9,1,C,7,L,7,L,7,0.163067,0.856635,0.139689
5,60,8,2,9,2,1,C,6,S,7,L,7,0.835184,0.178053,0.148707
5,61,2,1,9,1,1,C,1,S,8,L,8,0.847676,0.216041,0.183133
5,62,9,1,1,8,1,I,8,L,7,L,10,0.759676,0.50579,0.384236
5,63,8,9,1,9,1,C,1,S,8,L,8,0.286519,0.760928,0.21802
5,64,9,2,1,2,1,I,7,L,1,S,9,0.75315,0.400215,0.301422
5,65,8,9,1,2,1,C,1,S,1,S,10,0.323464,0.796465,0.257628
5,66,9,2,9,2,1,C,7,L,7,L,7,0.84156,0.174035,0.146461
5,67,1,2,2,9,1,C,1,S,7,L,8,0.23255,0.828217,0.192602
5,68,1,8,1,2,1,C,7,L,1,S,7,0.204803,0.791856,0.162175
5,69,1,9,1,8,1,C,8,L,7,L,6,0.167244,0.757694,0.12672
5,70,2,1,8,2,1,C,1,S,6,S,8,0.813966,0.237349,0.193194
5,71,1,2,8,1,1,I,1,S,7,L,17,0.650109,0.755925,0.491434
5,72,9,1,8,9,1,I,8,L,1,S,8,0.813903,0.259351,0.211086
5,73,2,9,1,9,1,C,7,L,8,L,7,0.148055,0.879822,0.130262
5,74,8,1,2,9,1,I,7,L,7,L,10,0.766296,0.494451,0.378896
5,75,2,8,2,1,1,I,6,S,1,S,9,0.369884,0.763681,0.282474
5,76,9,1,9,8,1,C,8,L,1,S,8,0.845425,0.227689,0.192494
5,77,9,1,2,9,1,I,8,L,7,L,10,0.77148,0.490989,0.378788
5,78,8,2,8,2,1,C,6,S,6,S,7,0.833129,0.178521,0.148731
5,79,9,8,8,2,1,C,1,S,6,S,9,0.812813,0.284606,0.231331
5,80,8,1,9,1,1,C,7,L,8,L,6,0.753667,0.170035,0.12815
5,81,9,2,2,9,1,I,7,L,7,L,11,0.772726,0.527436,0.407563
5,82,8,1,8,2,1,C,7,L,6,S,7,0.870975,0.153545,0.133734
5,83,1,8,8,9,1,C,7,L,1,S,8,0.25054,0.819072,0.20521
5,84,1,8,9,1,1,I,7,L,8,L,11,0.52903,0.784895,0.415233
5,85,2,9,2,8,1,C,7,L,6,S,7,0.168586,0.845503,0.14254
5,86,2,8,1,2,1,C,6,S,1,S,7,0.228979,0.751081,0.171982
5,87,9,1,1,2,1,I,8,L,1,S,9,0.792274,0.37321,0.295685
5,88,9,2,1,8,1,I,7,L,7,L,11,0.761089,0.541744,0.412315
5,89,8,1,8,1,1,C,7,L,7,L,6,0.752138,0.170239,0.128044
5,90,1,2,1,8,1,C,1,S,7,L,8,0.221089,0.84315,0.186412
5,91,9,1,9,2,1,C,8,L,7,L,7,0.877924,0.150078,0.131757
5,92,2,9,9,8,1,I,7,L,1,S,8,0.295257,0.766072,0.226188
5,93,2,9,8,9,1,C,7,L,1,S,8,0.263735,0.797734,0.21039
5,94,1,8,1,8,1,C,7,L,7,L,7,0.140216,0.890947,0.124925
5,95,9,1,9,1,1,C,8,L,8,L,6,0.75809,0.16739,0.126896
5,96,2,1,1,2,1,I,1,S,1,S,14,0.756295,0.563342,0.426053
5,97,1,9,2,9,1,C,8,L,7,L,7,0.141752,0.892901,0.12657
5,98,2,9,9,1,1,I,7,L,8,L,11,0.543447,0.763452,0.414895
5,99,2,8,2,9,1,C,6,S,7,L,7,0.1752,0.835936,0.146456
5,100,8,9,9,2,0,I,1,S,7,L,11,0.775156,0.420363,0.325847
5,101,1,2,8,2,1,I,1,S,6,S,16,0.634318,0.751772,0.476863
5,102,2,1,8,9,1,I,1,S,1,S,11,0.807455,0.357994,0.289065
5,103,1,9,9,1,1,I,8,L,8,L,10,0.5095,0.762735,0.388613
5,104,2,1,9,2,1,C,1,S,7,L,8,0.816224,0.236708,0.193206
5,105,9,2,1,9,1,I,7,L,8,L,11,0.7556,0.551458,0.416681
5,106,9,8,1,8,0,I,1,S,7,L,10,0.394509,0.763548,0.301227
5,107,1,8,8,2,1,I,7,L,6,S,10,0.486106,0.7684,0.373523
5,108,9,8,2,1,1,C,1,S,1,S,10,0.758786,0.347729,0.263852
5,109,1,9,9,8,1,I,8,L,1,S,8,0.271932,0.804458,0.218758
5,110,2,9,8,2,1,I,7,L,6,S,11,0.509693,0.786567,0.400908
5,111,2,8,1,8,1,C,6,S,7,L,7,0.164393,0.850172,0.139762
5,112,2,8,2,8,1,C,6,S,6,S,7,0.18072,0.824803,0.149058
5,113,2,1,2,1,1,C,1,S,1,S,9,0.796354,0.285113,0.227051
5,114,8,2,2,8,1,I,6,S,6,S,11,0.773157,0.519771,0.401865
5,115,1,2,2,1,1,I,1,S,1,S,13,0.516859,0.765022,0.395409
5,116,8,9,9,1,0,I,1,S,8,L,10,0.776947,0.384936,0.299075
5,117,1,8,8,1,1,I,7,L,7,L,11,0.527018,0.785644,0.414049
5,118,1,8,1,9,1,C,7,L,8,L,6,0.171781,0.751174,0.129038
5,119,2,8,8,1,1,I,6,S,7,L,12,0.560727,0.77565,0.434928
5,120,2,8,8,9,1,C,6,S,1,S,8,0.277236,0.775384,0.214965
5,121,2,1,8,1,1,C,1,S,7,L,8,0.845837,0.216515,0.183137
5,122,8,1,9,8,1,C,7,L,1,S,8,0.840289,0.230932,0.19405
5,123,2,8,9,8,1,I,6,S,1,S,9,0.299785,0.820655,0.24602
5,124,1,9,1,9,1,C,8,L,8,L,6,0.163709,0.765767,0.125363
5,125,2,1,1,8,1,I,1,S,7,L,17,0.753394,0.646307,0.486924
5,126,9,8,8,9,1,I,1,S,1,S,14,0.764821,0.446735,0.341672
5,127,1,9,8,1,1,I,8,L,7,L,10,0.507523,0.76341,0.387448
5,128,9,1,1,9,1,I,8,L,8,L,10,0.754332,0.515554,0.388899
5,129,9,1,8,2,1,C,8,L,6,S,7,0.875869,0.150546,0.131859
5,130,8,1,2,8,1,I,7,L,6,S,10,0.773468,0.481879,0.372718
5,131,9,8,9,2,1,C,1,S,7,L,9,0.815204,0.283815,0.231367
5,132,8,2,2,9,1,I,6,S,7,L,11,0.765789,0.532271,0.407607
5,133,9,1,8,1,1,C,8,L,7,L,6,0.756561,0.167594,0.126795
5,134,8,9,2,1,1,I,1,S,1,S,21,0.617962,0.766714,0.4738
5,135,8,1,1,9,1,I,7,L,8,L,11,0.788477,0.5275,0.415921
5,136,9,2,8,1,1,C,7,L,7,L,7,0.869527,0.155346,0.135077
5,137,1,8,2,1,1,I,7,L,1,S,9,0.34154,0.808623,0.276177
5,138,1,8,9,8,1,I,7,L,1,S,8,0.282063,0.78741,0.222099
5,139,2,9,2,1,1,I,7,L,1,S,9,0.355468,0.786788,0.279678
5,140,9,2,2,8,1,I,7,L,6,S,11,0.780094,0.514936,0.401698
5,141,8,2,9,8,1,C,6,S,1,S,8,0.800121,0.257992,0.206425
5,142,2,8,1,9,1,C,6,S,8,L,7,0.160188,0.859122,0.137621
5,143,8,2,8,9,1,I,6,S,1,S,8,0.768598,0.289654,0.222628
5,144,9,1,2,8,1,I,8,L,6,S,10,0.778652,0.478417,0.37252
6,1,2,8,8,1,1,I,6,S,7,L,12,0.552788,0.783385,0.433046
6,2,9,8,1,9,0,I,1,S,8,L,9,0.354236,0.755365,0.267578
6,3,9,1,9,2,1,C,8,L,7,L,6,0.752215,0.172609,0.129839
6,4,2,9,9,8,1,I,7,L,1,S,9,0.354875,0.789724,0.280254
6,5,2,9,1,8,1,C,7,L,7,L,7,0.158683,0.86737,0.137637
6,6,2,9,2,8,1,C,7,L,6,S,7,0.179368,0.832641,0.149349
6,7,9,2,9,8,1,C,7,L,1,S,8,0.841726,0.222919,0.187637
6,8,2,9,8,1,1,I,7,L,7,L,11,0.538322,0.766113,0.412416
6,9,2,1,2,1,1,C,1,S,1,S,8,0.756028,0.272643,0.206125
6,10,9,2,2,1,1,C,7,L,1,S,8,0.869794,0.19837,0.172541
6,11,9,2,9,2,1,C,7,L,7,L,7,0.844712,0.172078,0.145357
6,12,8,9,2,9,1,C,1,S,7,L,9,0.276406,0.827002,0.228588
6,13,2,9,1,9,1,C,7,L,8,L,7,0.155865,0.871939,0.135905
6,14,9,8,9,1,1,C,1,S,8,L,8,0.752809,0.297451,0.223924
6,15,8,2,1,8,1,I,6,S,7,L,12,0.767127,0.565518,0.433824
6,16,9,1,9,8,1,C,8,L,1,S,7,0.781835,0.217195,0.16981
6,17,1,9,9,1,1,I,8,L,8,L,11,0.531134,0.788789,0.418953
6,18,2,9,8,2,1,I,7,L,6,S,11,0.507254,0.789439,0.400446
6,19,9,8,2,9,0,I,1,S,7,L,10,0.379891,0.767057,0.291398
6,20,1,2,1,2,1,C,1,S,1,S,9,0.257028,0.838557,0.215532
6,21,8,2,2,8,1,I,6,S,6,S,11,0.757589,0.523615,0.396685
6,22,2,8,8,9,1,C,6,S,1,S,8,0.264595,0.789593,0.208922
6,23,9,2,8,9,1,I,7,L,1,S,9,0.827485,0.294862,0.243994
6,24,2,9,2,9,1,C,7,L,7,L,7,0.175395,0.838961,0.147149
6,25,1,8,1,8,1,C,7,L,7,L,7,0.14221,0.888667,0.126377
6,26,8,2,9,2,1,C,6,S,7,L,7,0.830267,0.179821,0.149299
6,27,1,9,8,2,1,I,8,L,6,S,10,0.472486,0.784939,0.370873
6,28,8,2,1,9,1,I,6,S,8,L,12,0.763904,0.570134,0.435528
6,29,9,1,2,9,1,I,8,L,7,L,10,0.789663,0.469801,0.370984
6,30,8,1,1,9,1,I,7,L,8,L,10,0.755301,0.512103,0.386792
6,31,1,9,1,9,1,C,8,L,8,L,6,0.169625,0.75621,0.128272
6,32,1,8,1,2,1,C,7,L,1,S,7,0.212108,0.783338,0.166152
6,33,9,1,8,2,1,C,8,L,6,S,7,0.877498,0.151396,0.13285
6,34,9,8,2,1,1,C,1,S,1,S,10,0.754909,0.357753,0.270071
6,35,1,2,9,8,1,I,1,S,1,S,13,0.498082,0.782899,0.389948
6,36,1,2,8,9,1,C,1,S,1,S,10,0.306886,0.817905,0.251003
6,37,2,1,2,8,1,I,1,S,6,S,15,0.772375,0.600045,0.46346
6,38,1,2,8,1,1,I,1,S,7,L,17,0.634292,0.766812,0.486383
6,39,9,8,8,1,1,C,1,S,7,L,9,0.812398,0.293419,0.238373
6,40,2,9,1,2,1,C,7,L,1,S,7,0.228581,0.762042,0.174188
6,41,9,1,1,8,1,I,8,L,7,L,10,0.76951,0.500999,0.385523
6,42,9,8,9,2,1,C,1,S,7,L,9,0.806287,0.29942,0.241418
6,43,1,9,1,8,1,C,8,L,7,L,6,0.17211,0.752084,0.129441
6,44,8,9,8,1,0,I,1,S,7,L,11,0.771704,0.440893,0.340239
6,45,1,8,9,1,1,I,7,L,8,L,11,0.538907,0.775376,0.417855
6,46,9,8,1,2,0,I,1,S,1,S,13,0.473667,0.752699,0.356529
6,47,9,2,8,2,1,C,7,L,6,S,7,0.821164,0.18673,0.153336
6,48,2,8,2,9,1,C,6,S,7,L,7,0.183263,0.823646,0.150943
6,49,8,2,1,2,1,I,6,S,1,S,10,0.783275,0.420363,0.329259
6,50,1,9,2,9,1,C,8,L,7,L,7,0.152924,0.872589,0.13344
6,51,2,8,9,8,1,I,6,S,1,S,9,0.364591,0.772477,0.281638
6,52,1,9,2,1,1,I,8,L,1,S,9,0.363675,0.797487,0.290026
6,53,8,2,8,9,1,I,6,S,1,S,9,0.810935,0.304468,0.246904
6,54,1,9,9,2,1,I,8,L,7,L,10,0.498466,0.767417,0.382531
6,55,8,2,8,1,1,C,6,S,7,L,7,0.836232,0.174035,0.145534
6,56,1,8,8,9,1,C,7,L,1,S,8,0.238135,0.828651,0.197331
6,57,1,8,2,9,1,C,7,L,7,L,7,0.158922,0.860257,0.136714
6,58,1,9,8,9,1,C,8,L,1,S,8,0.231406,0.841726,0.194781
6,59,1,8,2,8,1,C,7,L,6,S,7,0.162896,0.853938,0.139103
6,60,2,9,9,2,1,I,7,L,7,L,11,0.532778,0.771805,0.4112
6,61,8,1,2,8,1,I,7,L,6,S,10,0.783547,0.468909,0.367412
6,62,8,1,8,2,1,C,7,L,6,S,7,0.867373,0.15645,0.135701
6,63,8,9,9,2,0,I,1,S,7,L,11,0.76616,0.446585,0.342155
6,64,8,9,2,8,1,C,1,S,6,S,9,0.281098,0.819881,0.230467
6,65,2,8,9,2,1,I,6,S,7,L,11,0.543243,0.754488,0.40987
6,66,9,1,8,9,1,I,8,L,1,S,8,0.809124,0.266871,0.215931
6,67,2,8,2,8,1,C,6,S,6,S,7,0.187236,0.817326,0.153033
6,68,2,1,8,9,1,I,1,S,1,S,10,0.768182,0.368228,0.282866
6,69,1,9,8,1,1,I,8,L,7,L,10,0.504346,0.761525,0.384072
6,70,9,1,9,1,1,C,8,L,8,L,6,0.773682,0.157891,0.122157
6,71,9,8,8,2,1,C,1,S,6,S,9,0.780311,0.316467,0.246943
6,72,1,9,9,8,1,I,8,L,1,S,8,0.323828,0.759271,0.245873
6,73,8,1,1,8,1,I,7,L,7,L,10,0.75855,0.507263,0.384785
6,74,8,9,1,9,1,C,1,S,8,L,8,0.27954,0.771923,0.215784
6,75,2,8,1,9,1,C,6,S,8,L,7,0.163734,0.856624,0.140258
6,76,1,8,8,2,1,I,7,L,6,S,10,0.480071,0.771436,0.370344
6,77,9,2,2,8,1,I,7,L,6,S,11,0.774267,0.513262,0.397402
6,78,2,8,1,8,1,C,6,S,7,L,7,0.166551,0.852056,0.141911
6,79,2,9,2,1,1,I,7,L,1,S,9,0.38893,0.761357,0.296114
6,80,9,2,1,2,1,I,7,L,1,S,10,0.800057,0.410263,0.328234
6,81,9,2,2,9,1,I,7,L,7,L,11,0.769378,0.520308,0.400313
6,82,1,2,1,9,1,C,1,S,8,L,8,0.208915,0.856372,0.178909
6,83,9,1,2,8,1,I,8,L,6,S,10,0.794506,0.462645,0.367574
6,84,1,8,8,1,1,I,7,L,7,L,11,0.520518,0.787687,0.410005
6,85,2,1,8,2,1,C,1,S,6,S,8,0.842773,0.218807,0.184405
6,86,8,2,9,1,1,C,6,S,8,L,7,0.853929,0.163446,0.139572
6,87,1,9,2,8,1,C,8,L,6,S,7,0.156897,0.86627,0.135915
6,88,8,9,9,8,1,I,1,S,1,S,18,0.608817,0.75599,0.46026
6,89,8,9,1,8,1,C,1,S,7,L,8,0.282587,0.767126,0.21678
6,90,9,8,8,9,1,I,1,S,1,S,20,0.767613,0.577151,0.443029
6,91,8,1,2,1,1,C,7,L,1,S,7,0.792875,0.202196,0.160316
6,92,2,8,9,1,1,I,6,S,8,L,12,0.570724,0.771171,0.440126
6,93,8,2,2,9,1,I,6,S,7,L,11,0.7527,0.53066,0.399428
6,94,2,1,9,2,1,C,1,S,7,L,8,0.868037,0.20269,0.175942
6,95,1,8,9,8,1,I,7,L,1,S,9,0.336868,0.812431,0.273682
6,96,2,9,8,9,1,C,7,L,1,S,8,0.255648,0.806192,0.206101
6,97,8,1,9,8,1,C,7,L,1,S,7,0.771711,0.222249,0.171512
6,98,9,8,2,8,0,I,1,S,6,S,10,0.384734,0.759901,0.29236
6,99,1,2,2,9,1,C,1,S,7,L,8,0.230386,0.821232,0.1892
6,100,8,1,8,9,1,I,7,L,1,S,8,0.798448,0.27249,0.21757
6,101,9,2,9,1,1,C,7,L,8,L,7,0.868373,0.155704,0.135209
6,102,1,2,9,2,1,I,1,S,7,L,17,0.631063,0.770726,0.486377
6,103,8,1,9,1,1,C,7,L,8,L,6,0.764534,0.162195,0.124004
6,104,2,8,2,1,1,I,6,S,1,S,10,0.409309,0.795878,0.32576
6,105,8,1,1,2,1,I,7,L,1,S,9,0.79877,0.364857,0.291437
6,106,9,2,8,1,1,C,7,L,7,L,7,0.850676,0.166293,0.141461
6,107,2,9,9,1,1,I,7,L,8,L,11,0.556711,0.753803,0.41965
6,108,1,8,9,2,1,I,7,L,7,L,10,0.506051,0.753914,0.381519
6,109,8,1,8,1,1,C,7,L,7,L,7,0.896886,0.136013,0.121988
6,110,1,2,2,8,1,C,1,S,6,S,8,0.234794,0.814363,0.191208
6,111,2,8,1,2,1,C,6,S,1,S,8,0.202449,0.869811,0.176093
6,112,2,1,2,9,1,I,1,S,7,L,15,0.767915,0.606094,0.465429
6,113,9,1,1,2,1,I,8,L,1,S,9,0.809689,0.358842,0.290551
6,114,2,1,1,9,1,I,1,S,8,L,16,0.769713,0.629464,0.484506
6,115,8,9,9,1,0,I,1,S,8,L,10,0.766448,0.407047,0.31198
6,116,9,8,9,8,1,C,1,S,1,S,11,0.784159,0.363154,0.28477
6,117,9,1,8,1,1,C,8,L,7,L,6,0.757608,0.167237,0.1267
6,118,8,1,9,2,1,C,7,L,7,L,7,0.890921,0.141799,0.126332
6,119,1,2,2,1,1,I,1,S,1,S,14,0.539346,0.778235,0.419738
6,120,1,2,9,1,1,I,1,S,8,L,17,0.649667,0.756056,0.491185
6,121,2,1,9,1,1,C,1,S,8,L,7,0.769489,0.219926,0.169231
6,122,2,1,1,8,1,I,1,S,7,L,16,0.772602,0.625442,0.483217
6,123,8,9,8,9,1,C,1,S,1,S,11,0.382148,0.754272,0.288244
6,124,1,2,1,8,1,C,1,S,7,L,8,0.211962,0.851575,0.180501
6,125,1,8,1,9,1,C,7,L,8,L,7,0.139393,0.893236,0.124511
6,126,1,8,2,1,1,I,7,L,1,S,9,0.370922,0.784064,0.290827
6,127,1,2,8,2,1,I,1,S,6,S,16,0.619019,0.764108,0.472998
6,128,1,9,1,2,1,C,8,L,1,S,7,0.20611,0.79567,0.163995
6,129,9,1,2,1,1,C,8,L,1,S,7,0.803,0.197142,0.158305
6,130,2,1,9,8,1,C,1,S,1,S,9,0.832561,0.263629,0.219487
6,131,8,9,8,2,0,I,1,S,6,S,12,0.755078,0.489488,0.369602
6,132,9,2,1,8,1,I,7,L,7,L,12,0.783489,0.555101,0.434915
6,133,2,1,8,1,1,C,1,S,7,L,7,0.751792,0.230515,0.173299
6,134,8,1,2,9,1,I,7,L,7,L,10,0.778703,0.476065,0.370714
6,135,8,2,8,2,1,C,6,S,6,S,7,0.80672,0.194472,0.156884
6,136,2,8,8,2,1,I,6,S,6,S,11,0.517719,0.772122,0.399742
6,137,8,2,9,8,1,C,6,S,1,S,8,0.825899,0.23175,0.191402
6,138,8,2,2,1,1,C,6,S,1,S,8,0.853967,0.207201,0.176942
6,139,9,8,1,8,0,I,1,S,7,L,9,0.357421,0.750495,0.268243
6,140,8,9,2,1,1,I,1,S,1,S,19,0.624578,0.754389,0.471175
6,141,2,1,1,2,1,I,1,S,1,S,12,0.752196,0.514663,0.387128
6,142,9,1,1,9,1,I,8,L,8,L,10,0.766261,0.505838,0.387604
6,143,9,2,1,9,1,I,7,L,8,L,12,0.780267,0.559717,0.436729
6,144,8,9,1,2,1,C,1,S,1,S,10,0.313123,0.815299,0.255289
7,1,8,2,2,1,1,C,6,S,1,S,8,0.853737,0.213777,0.18251
7,2,2,1,9,8,1,C,1,S,1,S,9,0.766521,0.310861,0.238282
7,3,1,8,9,1,1,I,7,L,8,L,10,0.517749,0.755406,0.391111
7,4,1,9,2,9,1,C,8,L,7,L,6,0.170024,0.756441,0.128613
7,5,2,1,8,9,1,I,1,S,1,S,11,0.796135,0.379768,0.302346
7,6,9,2,1,8,1,I,7,L,7,L,12,0.78105,0.55959,0.437068
7,7,9,2,1,9,1,I,7,L,8,L,12,0.779438,0.563181,0.438965
7,8,8,1,1,2,1,I,7,L,1,S,9,0.790858,0.374401,0.296098
7,9,8,9,1,9,1,C,1,S,8,L,8,0.265609,0.789507,0.2097
7,10,8,9,1,8,1,C,1,S,7,L,8,0.266715,0.78617,0.209684
7,11,8,2,1,9,1,I,6,S,8,L,12,0.781307,0.561321,0.438564
7,12,9,8,8,9,1,I,1,S,1,S,19,0.752068,0.582123,0.437796
7,13,1,2,2,9,1,C,1,S,7,L,8,0.203863,0.863703,0.176077
7,14,2,8,2,1,1,I,6,S,1,S,9,0.380704,0.757314,0.288313
7,15,1,9,9,8,1,I,8,L,1,S,8,0.280987,0.803435,0.225755
7,16,8,1,1,9,1,I,7,L,8,L,10,0.750538,0.519408,0.389835
7,17,9,1,1,8,1,I,8,L,7,L,10,0.750613,0.517258,0.38826
7,18,2,9,2,1,1,I,7,L,1,S,9,0.35834,0.788935,0.282708
7,19,9,2,8,2,1,C,7,L,6,S,7,0.826453,0.183994,0.152062
7,20,8,1,8,1,1,C,7,L,7,L,7,0.89613,0.139675,0.125167
7,21,9,8,9,1,1,C,1,S,8,L,8,0.750185,0.303388,0.227597
7,22,9,8,8,2,1,C,1,S,6,S,9,0.785273,0.316958,0.248898
7,23,2,1,8,1,1,C,1,S,7,L,8,0.850081,0.214819,0.182613
7,24,9,8,2,8,0,I,1,S,6,S,10,0.37642,0.778153,0.292913
7,25,1,2,1,9,1,C,1,S,8,L,7,0.220484,0.767351,0.169189
7,26,8,9,9,2,0,I,1,S,7,L,12,0.751248,0.506903,0.38081
7,27,2,1,8,2,1,C,1,S,6,S,8,0.820684,0.234099,0.192122
7,28,8,9,9,8,1,I,1,S,1,S,15,0.544043,0.755513,0.411032
7,29,1,9,1,8,1,C,8,L,7,L,6,0.155496,0.777248,0.120859
7,30,8,2,9,8,1,C,6,S,1,S,8,0.818517,0.241263,0.197478
7,31,8,1,1,8,1,I,7,L,7,L,10,0.751963,0.515868,0.387914
7,32,1,9,9,1,1,I,8,L,8,L,10,0.503499,0.775155,0.39029
7,33,1,8,9,2,1,I,7,L,7,L,10,0.492699,0.77256,0.380639
7,34,9,1,1,9,1,I,8,L,8,L,11,0.788636,0.529204,0.41735
7,35,1,9,8,1,1,I,8,L,7,L,10,0.490398,0.784431,0.384683
7,36,8,2,1,2,1,I,6,S,1,S,10,0.798105,0.414554,0.330858
7,37,1,8,1,2,1,C,7,L,1,S,7,0.20027,0.802961,0.160809
7,38,2,1,9,1,1,C,1,S,8,L,8,0.863184,0.205984,0.177802
7,39,8,1,9,1,1,C,7,L,8,L,6,0.759066,0.167854,0.127412
7,40,2,1,1,2,1,I,1,S,1,S,14,0.772608,0.551453,0.426057
7,41,1,2,2,1,1,I,1,S,1,S,12,0.477645,0.780338,0.372725
7,42,9,8,9,2,1,C,1,S,7,L,9,0.803368,0.30438,0.244529
7,43,8,9,8,9,1,C,1,S,1,S,11,0.365588,0.780781,0.285444
7,44,8,9,9,1,0,I,1,S,8,L,11,0.764682,0.460198,0.351905
7,45,1,8,1,8,1,C,7,L,7,L,6,0.167128,0.759709,0.126968
7,46,9,1,2,1,1,C,8,L,1,S,7,0.773906,0.221533,0.171446
7,47,2,9,1,9,1,C,7,L,8,L,7,0.147806,0.882429,0.130428
7,48,2,9,2,9,1,C,7,L,7,L,7,0.165001,0.856042,0.141248
7,49,2,8,9,8,1,I,6,S,1,S,9,0.335004,0.791726,0.265231
7,50,1,9,8,9,1,C,8,L,1,S,7,0.240942,0.760106,0.183142
7,51,9,1,9,8,1,C,8,L,1,S,8,0.859788,0.215573,0.185347
7,52,9,2,2,8,1,I,7,L,6,S,11,0.766779,0.527353,0.404363
7,53,2,8,1,8,1,C,6,S,7,L,7,0.168207,0.8507,0.143094
7,54,2,8,8,2,1,I,6,S,6,S,11,0.528129,0.762044,0.402458
7,55,2,9,9,1,1,I,7,L,8,L,11,0.54747,0.762865,0.417645
7,56,2,9,1,8,1,C,7,L,7,L,7,0.148696,0.8793,0.130749
7,57,9,2,2,9,1,I,7,L,7,L,11,0.764732,0.531827,0.406705
7,58,8,1,2,1,1,C,7,L,1,S,7,0.775296,0.220151,0.170682
7,59,8,1,9,2,1,C,7,L,7,L,7,0.885039,0.146357,0.129532
7,60,1,2,8,9,1,C,1,S,1,S,9,0.315814,0.769041,0.242874
7,61,8,2,2,9,1,I,6,S,7,L,11,0.76673,0.529889,0.406281
7,62,2,8,1,2,1,C,6,S,1,S,8,0.203489,0.868032,0.176635
7,63,1,8,9,8,1,I,7,L,1,S,8,0.294683,0.78356,0.230902
7,64,2,8,1,9,1,C,6,S,8,L,7,0.167316,0.853828,0.142859
7,65,8,2,8,1,1,C,6,S,7,L,7,0.856031,0.16446,0.140783
7,66,8,9,8,2,1,I,1,S,6,S,20,0.661469,0.75042,0.496379
7,67,9,1,9,1,1,C,8,L,8,L,6,0.757799,0.169146,0.128178
7,68,2,8,2,9,1,C,6,S,7,L,7,0.184512,0.827442,0.152673
7,69,9,1,9,2,1,C,8,L,7,L,7,0.883649,0.14774,0.13055
7,70,9,2,9,1,1,C,7,L,8,L,7,0.866578,0.158066,0.136976
7,71,8,1,8,9,1,I,7,L,1,S,8,0.799941,0.275146,0.2201
7,72,1,9,2,1,1,I,8,L,1,S,8,0.316207,0.77595,0.245361
7,73,9,8,8,1,1,C,1,S,7,L,9,0.815352,0.296697,0.241912
7,74,2,8,8,1,1,I,6,S,7,L,12,0.561557,0.775966,0.435749
7,75,9,8,2,1,1,C,1,S,1,S,11,0.797449,0.357029,0.284712
7,76,2,8,9,1,1,I,6,S,8,L,12,0.573947,0.766876,0.440146
7,77,8,9,8,1,0,I,1,S,7,L,11,0.751889,0.469436,0.352964
7,78,9,1,2,8,1,I,8,L,6,S,10,0.770791,0.488307,0.376383
7,79,1,8,2,1,1,I,7,L,1,S,8,0.329903,0.756074,0.249431
7,80,1,2,9,2,1,I,1,S,7,L,15,0.617673,0.761352,0.470267
7,81,9,1,1,2,1,I,8,L,1,S,9,0.78945,0.375821,0.296692
7,82,8,9,2,9,1,C,1,S,7,L,8,0.284174,0.761685,0.216451
7,83,1,8,8,1,1,I,7,L,7,L,10,0.504647,0.764682,0.385895
7,84,1,9,1,9,1,C,8,L,8,L,6,0.154854,0.780058,0.120796
7,85,2,9,2,8,1,C,7,L,6,S,7,0.166192,0.852255,0.141638
7,86,9,1,8,9,1,I,8,L,1,S,8,0.798512,0.276567,0.220842
7,87,9,1,8,2,1,C,8,L,6,S,7,0.867159,0.15873,0.137644
7,88,8,1,9,8,1,C,7,L,1,S,7,0.750028,0.240764,0.18058
7,89,1,2,2,8,1,C,1,S,6,S,8,0.205348,0.859581,0.176513
7,90,8,2,2,8,1,I,6,S,6,S,11,0.768777,0.525415,0.403927
7,91,9,2,2,1,1,C,7,L,1,S,8,0.85161,0.215742,0.183728
7,92,2,9,8,1,1,I,7,L,7,L,11,0.534677,0.772103,0.412826
7,93,8,2,9,2,1,C,6,S,7,L,7,0.844939,0.171142,0.144605
7,94,8,1,8,2,1,C,7,L,6,S,7,0.868549,0.157348,0.136664
7,95,2,8,2,8,1,C,6,S,6,S,7,0.185702,0.823654,0.152955
7,96,8,2,8,9,1,I,6,S,1,S,8,0.757241,0.302257,0.228881
7,97,9,8,1,8,0,I,1,S,7,L,9,0.35409,0.759228,0.268835
7,98,8,2,8,2,1,C,6,S,6,S,7,0.828449,0.182133,0.150888
7,99,1,8,2,9,1,C,7,L,7,L,7,0.146937,0.886157,0.130209
7,100,9,8,1,2,0,I,1,S,1,S,13,0.468153,0.763125,0.357259
7,101,9,8,1,9,0,I,1,S,8,L,9,0.352806,0.762693,0.269083
7,102,1,2,9,1,1,I,1,S,8,L,16,0.631411,0.768957,0.485528
7,103,1,9,1,2,1,C,8,L,1,S,7,0.187379,0.822101,0.154044
7,104,2,8,9,2,1,I,6,S,7,L,12,0.550131,0.783825,0.431206
7,105,8,2,1,8,1,I,6,S,7,L,12,0.78292,0.55773,0.436658
7,106,1,2,1,2,1,C,1,S,1,S,8,0.265486,0.76842,0.204004
7,107,9,8,9,8,1,C,1,S,1,S,12,0.800692,0.371548,0.297495
7,108,2,9,1,2,1,C,7,L,1,S,7,0.218333,0.772846,0.168738
7,109,2,9,8,9,1,C,7,L,1,S,8,0.253117,0.812708,0.20571
7,110,9,2,8,1,1,C,7,L,7,L,7,0.854035,0.166321,0.142044
7,111,8,1,2,9,1,I,7,L,7,L,10,0.77023,0.491349,0.378451
7,112,1,2,8,1,1,I,1,S,7,L,15,0.627975,0.754056,0.473528
7,113,9,2,9,8,1,C,7,L,1,S,8,0.81639,0.243227,0.198568
7,114,8,9,2,8,1,C,1,S,6,S,8,0.285659,0.757564,0.216405
7,115,2,9,8,2,1,I,7,L,6,S,10,0.495943,0.753005,0.373447
7,116,1,2,9,8,1,I,1,S,1,S,11,0.408036,0.788606,0.321779
7,117,1,2,8,2,1,I,1,S,6,S,15,0.602771,0.772809,0.465827
7,118,9,1,2,9,1,I,8,L,7,L,10,0.76888,0.492738,0.378857
7,119,1,9,2,8,1,C,8,L,6,S,6,0.170876,0.753148,0.128695
7,120,1,9,8,2,1,I,8,L,6,S,9,0.446499,0.758139,0.338508
7,121,8,9,2,1,1,I,1,S,1,S,17,0.600761,0.756203,0.454297
7,122,9,2,8,9,1,I,7,L,1,S,8,0.755114,0.304221,0.229721
7,123,8,9,1,2,1,C,1,S,1,S,9,0.323031,0.754657,0.243778
7,124,9,2,1,2,1,I,7,L,1,S,10,0.796007,0.416543,0.331571
7,125,2,1,2,1,1,C,1,S,1,S,9,0.812222,0.276449,0.224538
7,126,2,1,1,9,1,I,1,S,8,L,17,0.759848,0.646818,0.491483
7,127,1,8,8,9,1,C,7,L,1,S,8,0.233407,0.844553,0.197125
7,128,1,9,9,2,1,I,8,L,7,L,10,0.478449,0.792308,0.379079
7,129,1,8,2,8,1,C,7,L,6,S,7,0.148128,0.882369,0.130704
7,130,1,8,1,9,1,C,7,L,8,L,6,0.166486,0.762519,0.126949
7,131,9,8,2,9,0,I,1,S,7,L,10,0.374509,0.782585,0.293085
7,132,1,2,1,8,1,C,1,S,7,L,7,0.221375,0.764222,0.16918
7,133,2,9,9,2,1,I,7,L,7,L,11,0.522939,0.780027,0.407906
7,134,2,1,9,2,1,C,1,S,7,L,8,0.838339,0.222116,0.186209
7,135,2,1,1,8,1,I,1,S,7,L,17,0.761613,0.643276,0.489927
7,136,1,8,8,2,1,I,7,L,6,S,10,0.47467,0.7854,0.372806
7,137,2,9,9,8,1,I,7,L,1,S,8,0.314393,0.751714,0.236333
7,138,2,1,2,8,1,I,1,S,6,S,16,0.756472,0.629646,0.476309
7,139,2,8,8,9,1,C,6,S,1,S,8,0.274412,0.781936,0.214572
7,140,2,1,2,9,1,I,1,S,7,L,16,0.754213,0.633965,0.478144
7,141,8,2,9,1,1,C,6,S,8,L,7,0.868574,0.156205,0.135675
7,142,8,1,2,8,1,I,7,L,6,S,10,0.772141,0.486918,0.375969
7,143,9,2,9,2,1,C,7,L,7,L,7,0.842943,0.173003,0.145832
7,144,9,1,8,1,1,C,8,L,7,L,7,0.894741,0.141057,0.12621
8,1,9,1,8,1,1,C,8,L,7,L,6,0.750705,0.171836,0.128999
8,2,9,1,2,1,1,C,8,L,1,S,7,0.778832,0.214622,0.167155
8,3,8,2,8,1,1,C,6,S,7,L,7,0.857811,0.162227,0.13916
8,4,2,9,8,2,1,I,7,L,6,S,11,0.513689,0.781471,0.401433
8,5,1,2,8,2,1,I,1,S,6,S,16,0.623901,0.76166,0.4752
8,6,9,8,2,8,0,I,1,S,6,S,13,0.532615,0.751359,0.400185
8,7,2,8,2,8,1,C,6,S,6,S,7,0.183701,0.824694,0.151497
8,8,2,1,1,8,1,I,1,S,7,L,18,0.756095,0.654117,0.494575
8,9,9,2,9,2,1,C,7,L,7,L,7,0.84603,0.169792,0.143649
8,10,1,9,1,9,1,C,8,L,8,L,6,0.166377,0.760843,0.126587
8,11,8,9,2,9,1,C,1,S,7,L,9,0.301398,0.799314,0.240912
8,12,1,9,2,8,1,C,8,L,6,S,7,0.146599,0.882445,0.129366
8,13,8,1,8,2,1,C,7,L,6,S,7,0.858591,0.162536,0.139552
8,14,2,1,9,2,1,C,1,S,7,L,8,0.805091,0.247512,0.19927
8,15,1,2,9,8,1,I,1,S,1,S,11,0.389496,0.784844,0.305694
8,16,2,8,9,1,1,I,6,S,8,L,12,0.571393,0.768364,0.439038
8,17,9,8,9,1,1,C,1,S,8,L,8,0.785988,0.265943,0.209028
8,18,2,1,2,1,1,C,1,S,1,S,9,0.788866,0.292986,0.231127
8,19,8,1,2,1,1,C,7,L,1,S,7,0.770032,0.220276,0.16962
8,20,2,8,8,2,1,I,6,S,6,S,11,0.526967,0.762588,0.401859
8,21,8,2,1,9,1,I,6,S,8,L,12,0.779317,0.561077,0.437257
8,22,8,1,9,8,1,C,7,L,1,S,8,0.829657,0.237795,0.197288
8,23,8,1,1,9,1,I,7,L,8,L,11,0.780266,0.532643,0.415603
8,24,8,2,8,9,1,I,6,S,1,S,8,0.757837,0.299046,0.226628
8,25,2,8,9,2,1,I,6,S,7,L,11,0.53703,0.755351,0.405646
8,26,8,9,2,8,1,C,1,S,6,S,9,0.30347,0.794325,0.241054
8,27,8,1,9,2,1,C,7,L,7,L,7,0.867886,0.156434,0.135767
8,28,2,1,9,1,1,C,1,S,8,L,8,0.836153,0.226976,0.189787
8,29,8,9,8,2,0,I,1,S,6,S,10,0.762626,0.384568,0.293282
8,30,9,1,2,9,1,I,8,L,7,L,10,0.767636,0.492292,0.377901
8,31,9,1,1,2,1,I,8,L,1,S,9,0.789746,0.372976,0.294556
8,32,8,9,9,2,0,I,1,S,7,L,10,0.772897,0.37735,0.291652
8,33,1,2,2,1,1,I,1,S,1,S,13,0.522166,0.763967,0.398918
8,34,1,2,1,8,1,C,1,S,7,L,8,0.211142,0.854234,0.180365
8,35,1,8,2,9,1,C,7,L,7,L,7,0.15303,0.874114,0.133766
8,36,2,8,1,2,1,C,6,S,1,S,8,0.202556,0.86751,0.175719
8,37,2,9,9,2,1,I,7,L,7,L,11,0.523752,0.774233,0.405506
8,38,9,2,1,9,1,I,7,L,8,L,11,0.756875,0.548591,0.415215
8,39,2,9,2,1,1,I,7,L,1,S,9,0.374544,0.769874,0.288352
8,40,2,1,2,8,1,I,1,S,6,S,18,0.770783,0.634316,0.48892
8,41,9,8,2,1,1,C,1,S,1,S,10,0.810464,0.310328,0.25151
8,42,8,9,9,8,1,I,1,S,1,S,20,0.579882,0.767977,0.445336
8,43,1,9,9,2,1,I,8,L,7,L,10,0.484442,0.777594,0.376699
8,44,2,8,2,1,1,I,6,S,1,S,9,0.387359,0.750704,0.290792
8,45,9,1,8,9,1,I,8,L,1,S,8,0.802186,0.270486,0.21698
8,46,1,8,9,2,1,I,7,L,7,L,10,0.493546,0.764117,0.377127
8,47,2,9,8,1,1,I,7,L,7,L,11,0.547584,0.757269,0.414668
8,48,1,8,8,9,1,C,7,L,1,S,8,0.245004,0.82625,0.202435
8,49,2,9,9,1,1,I,7,L,8,L,11,0.554439,0.752416,0.417169
8,50,2,8,1,9,1,C,6,S,8,L,7,0.166898,0.85291,0.142349
8,51,2,1,1,9,1,I,1,S,8,L,18,0.753998,0.6582,0.496281
8,52,1,2,2,9,1,C,1,S,7,L,8,0.226336,0.83301,0.18854
8,53,8,2,9,8,1,C,6,S,1,S,8,0.794572,0.260254,0.206791
8,54,9,1,9,8,1,C,8,L,1,S,8,0.83892,0.231694,0.194373
8,55,9,8,9,2,1,C,1,S,7,L,8,0.754926,0.286479,0.21627
8,56,2,1,8,2,1,C,1,S,6,S,8,0.795092,0.2542,0.202112
8,57,8,1,9,1,1,C,7,L,8,L,7,0.897335,0.13743,0.123321
8,58,8,1,2,8,1,I,7,L,6,S,10,0.760576,0.493663,0.375468
8,59,1,8,8,2,1,I,7,L,6,S,10,0.483276,0.771335,0.372768
8,60,2,8,9,8,1,I,6,S,1,S,9,0.304584,0.81626,0.24862
8,61,9,1,8,2,1,C,8,L,6,S,7,0.867391,0.156882,0.136078
8,62,8,9,8,9,1,C,1,S,1,S,13,0.398037,0.77941,0.310234
8,63,2,9,2,8,1,C,7,L,6,S,7,0.172765,0.841823,0.145437
8,64,9,2,9,1,1,C,7,L,8,L,7,0.87548,0.150788,0.132012
8,65,1,8,2,8,1,C,7,L,6,S,7,0.1545,0.869733,0.134373
8,66,2,8,1,8,1,C,6,S,7,L,7,0.16803,0.84924,0.142698
8,67,9,8,9,8,1,C,1,S,1,S,11,0.779831,0.359919,0.280676
8,68,1,8,1,9,1,C,7,L,8,L,7,0.137697,0.897948,0.123645
8,69,1,9,9,8,1,I,8,L,1,S,8,0.273197,0.800815,0.21878
8,70,2,8,2,9,1,C,6,S,7,L,7,0.182231,0.829076,0.151083
8,71,8,1,2,9,1,I,7,L,7,L,10,0.758298,0.498769,0.378215
8,72,8,9,1,8,1,C,1,S,7,L,9,0.285674,0.82081,0.234484
8,73,9,1,9,2,1,C,8,L,7,L,7,0.876686,0.15078,0.132187
8,74,2,1,8,1,1,C,1,S,7,L,8,0.829156,0.23159,0.192024
8,75,9,2,8,1,1,C,7,L,7,L,7,0.86878,0.155092,0.134741
8,76,1,9,1,8,1,C,8,L,7,L,6,0.167218,0.757551,0.126676
8,77,1,2,9,2,1,I,1,S,7,L,16,0.632037,0.75544,0.477466
8,78,8,1,1,2,1,I,7,L,1,S,9,0.780339,0.37934,0.296013
8,79,1,8,2,1,1,I,7,L,1,S,9,0.353781,0.800153,0.283079
8,80,2,9,1,2,1,C,7,L,1,S,7,0.225884,0.761028,0.171904
8,81,1,9,2,1,1,I,8,L,1,S,9,0.344854,0.813716,0.280613
8,82,2,1,2,9,1,I,1,S,7,L,18,0.768178,0.639146,0.490978
8,83,1,2,8,1,1,I,1,S,7,L,17,0.641937,0.763419,0.490067
8,84,9,2,9,8,1,C,7,L,1,S,8,0.806378,0.252427,0.203551
8,85,8,2,1,8,1,I,6,S,7,L,12,0.781268,0.556882,0.435073
8,86,9,8,1,9,0,I,1,S,8,L,11,0.45353,0.765262,0.347069
8,87,1,8,8,1,1,I,7,L,7,L,11,0.526411,0.78673,0.414143
8,88,1,8,9,8,1,I,7,L,1,S,8,0.281739,0.787458,0.221858
8,89,9,1,1,8,1,I,8,L,7,L,10,0.751753,0.513533,0.38605
8,90,8,1,1,8,1,I,7,L,7,L,11,0.782129,0.528458,0.413322
8,91,8,2,2,9,1,I,6,S,7,L,11,0.762592,0.532247,0.405887
8,92,2,9,9,8,1,I,7,L,1,S,8,0.30157,0.757798,0.228529
8,93,8,2,2,8,1,I,6,S,6,S,11,0.765019,0.527097,0.403239
8,94,1,8,1,2,1,C,7,L,1,S,7,0.207618,0.788938,0.163798
8,95,9,8,8,2,1,C,1,S,6,S,9,0.838674,0.265908,0.22301
8,96,9,2,1,2,1,I,7,L,1,S,9,0.756497,0.394776,0.298647
8,97,8,9,1,9,1,C,1,S,8,L,9,0.284089,0.824875,0.234338
8,98,1,9,2,9,1,C,8,L,7,L,7,0.145129,0.886827,0.128704
8,99,8,9,8,1,0,I,1,S,7,L,9,0.750494,0.356991,0.26792
8,100,1,8,1,8,1,C,7,L,7,L,7,0.138829,0.894278,0.124152
8,101,1,2,8,9,1,C,1,S,1,S,10,0.321495,0.806434,0.259264
8,102,8,2,9,2,1,C,6,S,7,L,7,0.835062,0.176928,0.147746
8,103,8,2,8,2,1,C,6,S,6,S,7,0.825767,0.18303,0.15114
8,104,9,2,1,8,1,I,7,L,7,L,11,0.758738,0.544406,0.413061
8,105,2,8,8,1,1,I,6,S,7,L,12,0.564741,0.773149,0.43663
8,106,1,2,1,9,1,C,1,S,8,L,8,0.20976,0.85815,0.180006
8,107,8,2,1,2,1,I,6,S,1,S,10,0.795435,0.414505,0.329712
8,108,2,9,8,9,1,C,7,L,1,S,8,0.264835,0.79659,0.210965
8,109,1,2,9,1,1,I,1,S,8,L,17,0.647487,0.759321,0.49165
8,110,9,2,8,9,1,I,7,L,1,S,8,0.769643,0.291219,0.224134
8,111,8,2,9,1,1,C,6,S,8,L,7,0.864511,0.157924,0.136527
8,112,9,2,2,1,1,C,7,L,1,S,8,0.868933,0.200886,0.174556
8,113,8,9,1,2,1,C,1,S,1,S,10,0.350245,0.765542,0.268127
8,114,8,2,2,1,1,C,6,S,1,S,8,0.857128,0.208713,0.178894
8,115,9,8,8,9,1,I,1,S,1,S,13,0.761357,0.447857,0.340979
8,116,1,2,1,2,1,C,1,S,1,S,9,0.25417,0.842709,0.214192
8,117,9,1,9,1,1,C,8,L,8,L,6,0.756799,0.167999,0.127141
8,118,1,9,1,2,1,C,8,L,1,S,7,0.199718,0.801651,0.160104
8,119,9,1,2,8,1,I,8,L,6,S,10,0.769914,0.487186,0.375091
8,120,1,9,9,1,1,I,8,L,8,L,10,0.515807,0.755768,0.389831
8,121,2,9,2,9,1,C,7,L,7,L,7,0.171295,0.846204,0.144951
8,122,9,1,1,9,1,I,8,L,8,L,10,0.750009,0.51768,0.388265
8,123,1,9,8,9,1,C,8,L,1,S,8,0.236462,0.839607,0.198535
8,124,9,8,1,2,1,I,1,S,1,S,19,0.767695,0.615697,0.472668
8,125,8,1,8,9,1,I,7,L,1,S,8,0.792923,0.276587,0.219312
8,126,2,8,8,9,1,C,6,S,1,S,8,0.276918,0.778043,0.215454
8,127,8,9,9,1,0,I,1,S,8,L,9,0.757569,0.3522,0.266816
8,128,8,1,8,1,1,C,7,L,7,L,7,0.890635,0.141734,0.126233
8,129,2,9,1,9,1,C,7,L,8,L,7,0.155962,0.870038,0.135693
8,130,9,2,2,8,1,I,7,L,6,S,11,0.776925,0.5186,0.402913
8,131,2,1,9,8,1,C,1,S,1,S,10,0.787224,0.331126,0.26067
8,132,9,8,1,8,0,I,1,S,7,L,11,0.455393,0.761077,0.346589
8,133,1,2,2,8,1,C,1,S,6,S,8,0.228139,0.828249,0.188956
8,134,9,8,2,9,0,I,1,S,7,L,12,0.499297,0.752616,0.375779
8,135,9,2,8,2,1,C,7,L,6,S,7,0.836735,0.175895,0.147177
8,136,1,9,8,1,1,I,8,L,7,L,10,0.508799,0.760631,0.387008
8,137,1,8,9,1,1,I,7,L,8,L,11,0.533266,0.781877,0.416948
8,138,9,2,2,9,1,I,7,L,7,L,11,0.774498,0.523749,0.405643
8,139,2,1,8,9,1,I,1,S,1,S,11,0.768103,0.39613,0.304269
8,140,2,9,1,8,1,C,7,L,7,L,7,0.157095,0.866368,0.136102
8,141,9,8,8,1,1,C,1,S,7,L,8,0.778991,0.270557,0.210761
8,142,2,1,1,2,1,I,1,S,1,S,15,0.764705,0.575661,0.440211
8,143,8,9,2,1,1,I,1,S,1,S,23,0.642315,0.750623,0.482136
8,144,1,9,8,2,1,I,8,L,6,S,10,0.474171,0.784813,0.372136
9,1,9,8,9,2,1,C,1,S,7,L,9,0.802172,0.297854,0.23893
9,2,8,1,1,2,1,I,7,L,1,S,9,0.80547,0.353363,0.284623
9,3,9,1,1,8,1,I,8,L,7,L,10,0.766377,0.504531,0.386661
9,4,8,2,1,2,1,I,6,S,1,S,9,0.752552,0.386513,0.290871
9,5,2,1,8,1,1,C,1,S,7,L,8,0.859482,0.21064,0.181041
9,6,2,8,9,8,1,I,6,S,1,S,9,0.310604,0.816727,0.253678
9,7,1,8,8,2,1,I,7,L,6,S,10,0.476412,0.781811,0.372464
9,8,8,1,9,2,1,C,7,L,7,L,7,0.880218,0.150083,0.132106
9,9,1,8,1,2,1,C,7,L,1,S,7,0.209099,0.787409,0.164646
9,10,9,8,9,8,1,C,1,S,1,S,12,0.782569,0.378746,0.296395
9,11,1,9,1,2,1,C,8,L,1,S,7,0.20612,0.795739,0.164018
9,12,8,2,2,9,1,I,6,S,7,L,11,0.753673,0.538312,0.405711
9,13,2,1,2,1,1,C,1,S,1,S,9,0.824268,0.270186,0.222706
9,14,9,1,1,9,1,I,8,L,8,L,10,0.761153,0.510803,0.388799
9,15,2,8,9,1,1,I,6,S,8,L,12,0.560067,0.781251,0.437553
9,16,2,1,2,8,1,I,1,S,6,S,16,0.770905,0.620075,0.478019
9,17,9,1,8,1,1,C,8,L,7,L,6,0.757045,0.169645,0.128429
9,18,1,2,1,9,1,C,1,S,8,L,7,0.227057,0.753622,0.171115
9,19,2,8,1,2,1,C,6,S,1,S,8,0.207981,0.860353,0.178937
9,20,9,2,1,2,1,I,7,L,1,S,9,0.76985,0.373922,0.287864
9,21,2,1,9,2,1,C,1,S,7,L,8,0.843603,0.220172,0.185738
9,22,8,1,8,1,1,C,7,L,7,L,7,0.895174,0.141411,0.126587
9,23,8,1,9,1,1,C,7,L,8,L,6,0.753776,0.172182,0.129786
9,24,1,9,1,9,1,C,8,L,8,L,6,0.161471,0.768726,0.124127
9,25,8,1,9,8,1,C,7,L,1,S,8,0.849196,0.225998,0.191917
9,26,8,9,2,9,1,C,1,S,7,L,8,0.296066,0.750457,0.222185
9,27,9,1,9,1,1,C,8,L,8,L,6,0.76404,0.164908,0.125996
9,28,1,9,9,2,1,I,8,L,7,L,10,0.482998,0.783188,0.378278
9,29,1,9,2,1,1,I,8,L,1,S,8,0.325626,0.763246,0.248533
9,30,8,9,8,1,0,I,1,S,7,L,10,0.75468,0.417741,0.315261
9,31,2,9,2,9,1,C,7,L,7,L,7,0.168766,0.851137,0.143643
9,32,9,1,9,2,1,C,8,L,7,L,7,0.891524,0.14202,0.126614
9,33,1,9,8,9,1,C,8,L,1,S,7,0.236777,0.758751,0.179654
9,34,2,8,8,9,1,C,6,S,1,S,8,0.248755,0.80884,0.201203
9,35,8,9,8,2,0,I,1,S,6,S,11,0.752628,0.456907,0.343881
9,36,9,2,1,8,1,I,7,L,7,L,11,0.758814,0.543629,0.412513
9,37,8,9,2,1,1,I,1,S,1,S,19,0.612378,0.76944,0.471188
9,38,8,1,2,9,1,I,7,L,7,L,10,0.766218,0.495023,0.379296
9,39,2,1,9,1,1,C,1,S,8,L,8,0.867543,0.205005,0.177851
9,40,1,9,2,8,1,C,8,L,6,S,7,0.145226,0.887974,0.128957
9,41,9,2,9,8,1,C,7,L,1,S,8,0.814582,0.245175,0.199715
9,42,1,2,9,8,1,I,1,S,1,S,11,0.39613,0.78765,0.312012
9,43,2,9,2,1,1,I,7,L,1,S,9,0.366916,0.780309,0.286308
9,44,1,8,8,1,1,I,7,L,7,L,10,0.503489,0.763512,0.38442
9,45,1,2,9,2,1,I,1,S,7,L,16,0.619485,0.768594,0.476132
9,46,2,9,9,8,1,I,7,L,1,S,8,0.310897,0.754158,0.234465
9,47,9,8,1,8,0,I,1,S,7,L,10,0.364807,0.792328,0.289046
9,48,8,1,8,9,1,I,7,L,1,S,8,0.782009,0.292316,0.228594
9,49,9,2,2,8,1,I,7,L,6,S,11,0.777532,0.517028,0.402006
9,50,1,2,1,8,1,C,1,S,7,L,8,0.199013,0.868248,0.172792
9,51,2,1,9,8,1,C,1,S,1,S,9,0.762282,0.318782,0.243002
9,52,8,9,9,8,1,I,1,S,1,S,16,0.543452,0.769082,0.41796
9,53,9,8,9,1,1,C,1,S,8,L,9,0.826559,0.281943,0.233043
9,54,1,9,9,1,1,I,8,L,8,L,10,0.507276,0.766918,0.389039
9,55,1,9,8,1,1,I,8,L,7,L,10,0.499241,0.772795,0.385811
9,56,2,1,8,9,1,I,1,S,1,S,11,0.77432,0.412533,0.319432
9,57,8,9,9,1,0,I,1,S,8,L,10,0.762716,0.411863,0.314134
9,58,1,9,1,8,1,C,8,L,7,L,6,0.165982,0.763076,0.126657
9,59,8,9,8,9,1,C,1,S,1,S,11,0.357933,0.789593,0.282621
9,60,2,8,2,1,1,I,6,S,1,S,9,0.37259,0.768131,0.286198
9,61,8,1,1,8,1,I,7,L,7,L,10,0.754688,0.513382,0.387443
9,62,9,2,1,9,1,I,7,L,8,L,11,0.753693,0.549665,0.414278
9,63,8,2,1,9,1,I,6,S,8,L,12,0.771532,0.566309,0.436925
9,64,9,8,8,9,1,I,1,S,1,S,21,0.765029,0.603749,0.461886
9,65,1,2,2,9,1,C,1,S,7,L,8,0.209543,0.850326,0.17818
9,66,2,1,8,2,1,C,1,S,6,S,8,0.832959,0.227597,0.189579
9,67,9,8,1,2,1,I,1,S,1,S,23,0.755213,0.639334,0.482833
9,68,9,1,8,9,1,I,8,L,1,S,8,0.793796,0.283761,0.225248
9,69,9,2,8,9,1,I,7,L,1,S,9,0.820909,0.307021,0.252036
9,70,1,2,9,1,1,I,1,S,8,L,16,0.639564,0.754135,0.482318
9,71,1,8,1,8,1,C,7,L,7,L,6,0.168319,0.75557,0.127177
9,72,9,8,1,9,0,I,1,S,8,L,9,0.355364,0.752603,0.267448
9,73,9,8,8,1,1,C,1,S,7,L,9,0.818422,0.287764,0.235513
9,74,8,9,2,8,1,C,1,S,6,S,9,0.278564,0.831578,0.231648
9,75,8,2,8,9,1,I,6,S,1,S,9,0.803611,0.319612,0.256844
9,76,9,1,8,2,1,C,8,L,6,S,7,0.881572,0.148858,0.131229
9,77,1,8,9,8,1,I,7,L,1,S,8,0.282103,0.792846,0.223664
9,78,9,1,2,8,1,I,8,L,6,S,10,0.785057,0.47738,0.37477
9,79,1,2,8,1,1,I,1,S,7,L,16,0.633191,0.75911,0.480661
9,80,9,2,2,9,1,I,7,L,7,L,11,0.77048,0.525524,0.404906
9,81,1,2,8,9,1,C,1,S,1,S,9,0.30415,0.773164,0.235157
9,82,2,9,9,2,1,I,7,L,7,L,11,0.525849,0.775699,0.407901
9,83,9,8,2,8,0,I,1,S,6,S,10,0.383487,0.765176,0.293435
9,84,9,1,1,2,1,I,8,L,1,S,8,0.753023,0.335274,0.252469
9,85,8,9,1,9,1,C,1,S,8,L,8,0.280378,0.7748,0.217237
9,86,9,2,8,1,1,C,7,L,7,L,7,0.862759,0.158584,0.136819
9,87,2,1,1,2,1,I,1,S,1,S,13,0.776599,0.516421,0.401052
9,88,2,9,8,9,1,C,7,L,1,S,8,0.24371,0.820476,0.199958
9,89,2,1,1,8,1,I,1,S,7,L,16,0.754591,0.642066,0.484498
9,90,8,2,8,2,1,C,6,S,6,S,7,0.82222,0.185143,0.152228
9,91,9,8,8,2,1,C,1,S,6,S,9,0.791278,0.305621,0.241832
9,92,8,2,8,1,1,C,6,S,7,L,7,0.847129,0.169632,0.143701
9,93,1,2,1,2,1,C,1,S,1,S,9,0.253091,0.840065,0.212613
9,94,9,1,9,8,1,C,8,L,1,S,7,0.752781,0.241865,0.182071
9,95,8,9,1,2,1,C,1,S,1,S,10,0.329059,0.79575,0.261849
9,96,2,9,1,9,1,C,7,L,8,L,7,0.154284,0.874218,0.134878
9,97,2,9,8,1,1,I,7,L,7,L,11,0.541846,0.765205,0.414623
9,98,1,2,2,8,1,C,1,S,6,S,8,0.216437,0.841544,0.182141
9,99,2,8,8,1,1,I,6,S,7,L,11,0.548285,0.75274,0.412716
9,100,1,8,9,1,1,I,7,L,8,L,10,0.511525,0.757634,0.387549
9,101,8,2,1,8,1,I,6,S,7,L,12,0.776495,0.560556,0.435269
9,102,8,1,2,1,1,C,7,L,1,S,7,0.774811,0.22124,0.171419
9,103,9,2,8,2,1,C,7,L,6,S,7,0.837851,0.174094,0.145865
9,104,9,1,2,9,1,I,8,L,7,L,10,0.777907,0.486172,0.378197
9,105,9,2,2,1,1,C,7,L,1,S,8,0.861617,0.206728,0.17812
9,106,8,1,8,2,1,C,7,L,6,S,7,0.870266,0.156921,0.136563
9,107,1,9,9,8,1,I,8,L,1,S,8,0.278591,0.801693,0.223344
9,108,2,8,1,9,1,C,6,S,8,L,7,0.15852,0.863531,0.136887
9,109,1,8,9,2,1,I,7,L,7,L,10,0.487246,0.773905,0.377082
9,110,9,1,2,1,1,C,8,L,1,S,7,0.786117,0.213177,0.167582
9,111,8,2,9,8,1,C,6,S,1,S,8,0.797745,0.257197,0.205178
9,112,2,8,1,8,1,C,6,S,7,L,7,0.163445,0.857335,0.140127
9,113,8,2,9,1,1,C,6,S,8,L,7,0.854845,0.164349,0.140493
9,114,1,8,2,1,1,I,7,L,1,S,8,0.329138,0.754399,0.248302
9,115,1,8,2,9,1,C,7,L,7,L,7,0.141751,0.887906,0.125862
9,116,2,8,2,9,1,C,6,S,7,L,7,0.173002,0.84045,0.145399
9,117,8,2,9,2,1,C,6,S,7,L,7,0.832172,0.178305,0.14838
9,118,8,1,2,8,1,I,7,L,6,S,10,0.773368,0.486231,0.376035
9,119,2,9,8,2,1,I,7,L,6,S,11,0.515274,0.783587,0.403762
9,120,2,8,2,8,1,C,6,S,6,S,7,0.179455,0.832188,0.14934
9,121,2,9,2,8,1,C,7,L,6,S,7,0.175219,0.842875,0.147688
9,122,2,8,9,2,1,I,6,S,7,L,11,0.532288,0.763234,0.406261
9,123,9,2,9,2,1,C,7,L,7,L,7,0.847803,0.167256,0.1418
9,124,1,2,2,1,1,I,1,S,1,S,12,0.49201,0.758695,0.373285
9,125,8,9,1,8,1,C,1,S,7,L,8,0.285536,0.768379,0.2194
9,126,2,8,8,2,1,I,6,S,6,S,11,0.521713,0.771122,0.402305
9,127,1,8,2,8,1,C,7,L,6,S,7,0.148205,0.879644,0.130367
9,128,1,8,1,9,1,C,7,L,8,L,6,0.163808,0.76122,0.124694
9,129,2,9,1,8,1,C,7,L,7,L,7,0.159209,0.868022,0.138197
9,130,9,2,9,1,1,C,7,L,8,L,7,0.870476,0.1533,0.133444
9,131,2,1,1,9,1,I,1,S,8,L,16,0.750467,0.646641,0.485283
9,132,8,2,2,8,1,I,6,S,6,S,11,0.760725,0.529816,0.403044
9,133,1,9,8,2,1,I,8,L,6,S,10,0.472163,0.791095,0.373526
9,134,9,8,2,1,1,C,1,S,1,S,11,0.806232,0.343158,0.276665
9,135,8,1,1,9,1,I,7,L,8,L,11,0.789138,0.527855,0.41655
9,136,2,9,1,2,1,C,7,L,1,S,7,0.236113,0.75064,0.177236
9,137,2,1,2,9,1,I,1,S,7,L,16,0.76524,0.626411,0.479355
9,138,9,8,2,9,0,I,1,S,7,L,10,0.376337,0.773969,0.291273
9,139,2,9,9,1,1,I,7,L,8,L,11,0.549671,0.759369,0.417403
9,140,1,9,2,9,1,C,8,L,7,L,7,0.138772,0.896236,0.124373
9,141,1,8,8,9,1,C,7,L,1,S,7,0.239756,0.750421,0.179918
9,142,1,2,8,2,1,I,1,S,6,S,15,0.61777,0.752092,0.46462
9,143,8,9,9,2,0,I,1,S,7,L,11,0.763203,0.44902,0.342693
9,144,8,2,2,1,1,C,6,S,1,S,8,0.844781,0.21875,0.184796
10,1,9,1,1,8,1,I,8,L,7,L,10,0.768253,0.504298,0.387428
10,2,2,1,9,1,1,C,1,S,8,L,7,0.750855,0.234045,0.175734
10,3,2,1,1,9,1,I,1,S,8,L,16,0.757942,0.640467,0.485436
10,4,9,1,1,2,1,I,8,L,1,S,8,0.756675,0.333274,0.25218
10,5,2,8,8,9,1,C,6,S,1,S,8,0.26741,0.788981,0.210981
10,6,1,2,8,9,1,C,1,S,1,S,10,0.326495,0.797941,0.260524
10,7,8,9,2,9,1,C,1,S,7,L,9,0.307665,0.793249,0.244055
10,8,8,1,8,1,1,C,7,L,7,L,6,0.75134,0.17144,0.12881
10,9,8,2,8,2,1,C,6,S,6,S,7,0.838461,0.174776,0.146543
10,10,9,8,2,9,0,I,1,S,7,L,11,0.437669,0.764131,0.334436
10,11,1,8,2,9,1,C,7,L,7,L,7,0.153237,0.875556,0.134168
10,12,1,2,2,1,1,I,1,S,1,S,14,0.551189,0.767394,0.422979
10,13,8,1,2,9,1,I,7,L,7,L,10,0.779914,0.480456,0.374715
10,14,9,2,9,8,1,C,7,L,1,S,8,0.808206,0.256755,0.207511
10,15,8,2,1,9,1,I,6,S,8,L,11,0.759303,0.547098,0.415413
10,16,9,1,2,8,1,I,8,L,6,S,10,0.790141,0.472321,0.373201
10,17,9,1,9,1,1,C,8,L,8,L,6,0.765623,0.163835,0.125436
10,18,9,8,8,9,1,I,1,S,1,S,15,0.76089,0.498579,0.379363
10,19,8,1,1,8,1,I,7,L,7,L,10,0.759246,0.509867,0.387114
10,20,8,9,9,2,0,I,1,S,7,L,10,0.774689,0.378573,0.293277
10,21,1,9,9,1,1,I,8,L,8,L,10,0.50788,0.765753,0.38891
10,22,2,8,1,8,1,C,6,S,7,L,7,0.164523,0.856313,0.140884
10,23,1,8,8,1,1,I,7,L,7,L,10,0.506347,0.759982,0.384815
10,24,8,9,1,2,1,C,1,S,1,S,11,0.339128,0.815833,0.276672
10,25,1,2,9,8,1,I,1,S,1,S,11,0.374656,0.793429,0.297263
10,26,8,9,9,8,1,I,1,S,1,S,17,0.522819,0.755626,0.395056
10,27,2,8,9,2,1,I,6,S,7,L,11,0.532766,0.762069,0.406004
10,28,8,2,1,2,1,I,6,S,1,S,9,0.772721,0.374005,0.289001
10,29,2,8,2,9,1,C,6,S,7,L,7,0.182421,0.828933,0.151215
10,30,9,1,8,2,1,C,8,L,6,S,7,0.883245,0.147218,0.13003
10,31,9,8,8,1,1,C,1,S,7,L,8,0.756389,0.289632,0.219074
10,32,2,8,9,8,1,I,6,S,1,S,8,0.298292,0.757595,0.225985
10,33,8,2,9,2,1,C,6,S,7,L,7,0.847764,0.169435,0.143641
10,34,8,2,2,9,1,I,6,S,7,L,11,0.78089,0.516351,0.403214
10,35,8,2,8,9,1,I,6,S,1,S,8,0.765869,0.294937,0.225883
10,36,8,1,9,2,1,C,7,L,7,L,7,0.884106,0.146563,0.129577
10,37,1,9,8,2,1,I,8,L,6,S,10,0.472491,0.789656,0.373105
10,38,9,2,1,8,1,I,7,L,7,L,11,0.771898,0.537524,0.414914
10,39,2,1,2,1,1,C,1,S,1,S,9,0.84954,0.250981,0.213219
10,40,8,2,1,8,1,I,6,S,7,L,11,0.760231,0.545115,0.414414
10,41,8,9,8,2,0,I,1,S,6,S,10,0.764276,0.385177,0.294381
10,42,2,9,1,8,1,C,7,L,7,L,7,0.157178,0.869531,0.136671
10,43,2,1,2,9,1,I,1,S,7,L,15,0.753029,0.622254,0.468575
10,44,1,2,2,9,1,C,1,S,7,L,8,0.241539,0.813782,0.19656
10,45,9,8,2,1,1,C,1,S,1,S,10,0.792764,0.327867,0.259921
10,46,9,2,8,2,1,C,7,L,6,S,7,0.849151,0.168651,0.14321
10,47,1,9,1,2,1,C,8,L,1,S,7,0.208622,0.793628,0.165568
10,48,2,9,2,9,1,C,7,L,7,L,7,0.175076,0.842151,0.147441
10,49,9,1,2,9,1,I,8,L,7,L,10,0.788921,0.474887,0.374649
10,50,2,9,1,2,1,C,7,L,1,S,7,0.235723,0.750306,0.176865
10,51,8,9,2,1,0,I,1,S,1,S,15,0.750499,0.530041,0.397796
10,52,9,2,8,9,1,I,7,L,1,S,8,0.777323,0.288141,0.223979
10,53,9,8,9,2,1,C,1,S,7,L,9,0.826691,0.278755,0.230444
10,54,1,8,2,8,1,C,7,L,6,S,7,0.154052,0.873365,0.134544
10,55,1,8,2,1,1,I,7,L,1,S,9,0.360456,0.801853,0.289033
10,56,1,2,8,2,1,I,1,S,6,S,17,0.626784,0.770349,0.482842
10,57,2,9,8,9,1,C,7,L,1,S,8,0.259158,0.803285,0.208178
10,58,2,1,8,1,1,C,1,S,7,L,8,0.863794,0.205621,0.177614
10,59,1,9,9,8,1,I,8,L,1,S,8,0.260599,0.817699,0.213091
10,60,9,8,9,1,1,C,1,S,8,L,8,0.764141,0.28516,0.217902
10,61,9,2,2,8,1,I,7,L,6,S,10,0.753883,0.497037,0.374707
10,62,1,9,1,9,1,C,8,L,8,L,6,0.166399,0.764367,0.127189
10,63,8,2,9,1,1,C,6,S,8,L,7,0.871142,0.154435,0.134535
10,64,2,8,9,1,1,I,6,S,8,L,12,0.561125,0.779262,0.437264
10,65,2,9,9,1,1,I,7,L,8,L,11,0.547795,0.759545,0.416075
10,66,8,1,8,2,1,C,7,L,6,S,7,0.874803,0.151904,0.132886
10,67,1,9,2,1,1,I,8,L,1,S,9,0.354297,0.8125,0.287866
10,68,1,9,1,8,1,C,8,L,7,L,6,0.166855,0.76279,0.127275
10,69,8,2,2,1,1,C,6,S,1,S,7,0.756427,0.229294,0.173444
10,70,2,8,2,8,1,C,6,S,6,S,7,0.183237,0.826741,0.151489
10,71,9,1,2,1,1,C,8,L,1,S,7,0.801212,0.201736,0.161633
10,72,1,2,1,8,1,C,1,S,7,L,8,0.222139,0.842808,0.187221
10,73,8,9,8,1,0,I,1,S,7,L,10,0.791759,0.366156,0.289907
10,74,8,1,9,8,1,C,7,L,1,S,8,0.835242,0.238691,0.199364
10,75,2,9,8,2,1,I,7,L,6,S,11,0.513068,0.783549,0.402014
10,76,1,9,2,9,1,C,8,L,7,L,7,0.147975,0.885473,0.131028
10,77,2,1,9,8,1,C,1,S,1,S,10,0.820937,0.312032,0.256159
10,78,1,2,9,2,1,I,1,S,7,L,17,0.635219,0.764494,0.485622
10,79,2,1,8,9,1,I,1,S,1,S,10,0.759065,0.375421,0.284969
10,80,1,8,9,8,1,I,7,L,1,S,8,0.266397,0.807264,0.215052
10,81,1,8,1,9,1,C,7,L,8,L,6,0.170932,0.755397,0.129121
10,82,8,2,2,8,1,I,6,S,6,S,11,0.782179,0.513771,0.401861
10,83,1,2,1,9,1,C,1,S,8,L,8,0.221427,0.84468,0.187035
10,84,8,1,1,2,1,I,7,L,1,S,9,0.811975,0.347933,0.282513
10,85,1,8,8,2,1,I,7,L,6,S,10,0.478863,0.779003,0.373036
10,86,2,1,2,8,1,I,1,S,6,S,15,0.754391,0.61979,0.467564
10,87,2,1,8,2,1,C,1,S,6,S,8,0.836823,0.223343,0.186898
10,88,9,2,9,1,1,C,7,L,8,L,7,0.881832,0.14831,0.130784
10,89,1,2,8,1,1,I,1,S,7,L,17,0.648019,0.754443,0.488893
10,90,2,9,8,1,1,I,7,L,7,L,11,0.539994,0.764487,0.412818
10,91,8,1,1,9,1,I,7,L,8,L,10,0.75837,0.511838,0.388162
10,92,9,1,9,8,1,C,8,L,1,S,8,0.844104,0.233568,0.197155
10,93,9,2,8,1,1,C,7,L,7,L,7,0.874477,0.152384,0.133256
10,94,9,1,1,9,1,I,8,L,8,L,10,0.767377,0.506269,0.388499
10,95,9,2,1,2,1,I,7,L,1,S,9,0.784511,0.366764,0.28773
10,96,1,9,9,2,1,I,8,L,7,L,10,0.482905,0.783053,0.37814
10,97,1,8,8,9,1,C,7,L,1,S,8,0.235514,0.83865,0.197514
10,98,1,9,8,9,1,C,8,L,1,S,8,0.229716,0.849085,0.195049
10,99,9,8,1,2,1,I,1,S,1,S,20,0.760037,0.624967,0.474998
10,100,9,1,8,1,1,C,8,L,7,L,6,0.758996,0.167362,0.127027
10,101,8,1,2,1,1,C,7,L,1,S,7,0.79277,0.206422,0.163645
10,102,2,9,9,8,1,I,7,L,1,S,8,0.290041,0.771899,0.223882
10,103,8,9,1,9,1,C,1,S,8,L,9,0.286573,0.824775,0.236358
10,104,9,1,9,2,1,C,8,L,7,L,7,0.892549,0.141878,0.126633
10,105,8,9,1,8,1,C,1,S,7,L,9,0.287379,0.822837,0.236466
10,106,9,8,8,2,1,C,1,S,6,S,9,0.816329,0.285121,0.232753
10,107,2,9,2,1,1,I,7,L,1,S,9,0.385161,0.765834,0.29497
10,108,2,8,1,2,1,C,6,S,1,S,8,0.210863,0.857302,0.180773
10,109,1,2,2,8,1,C,1,S,6,S,8,0.242524,0.811389,0.196781
10,110,2,1,1,2,1,I,1,S,1,S,12,0.750986,0.506803,0.380602
10,111,8,1,2,8,1,I,7,L,6,S,10,0.781134,0.477891,0.373297
10,112,2,1,9,2,1,C,1,S,7,L,8,0.846852,0.217389,0.184096
10,113,1,9,8,1,1,I,8,L,7,L,10,0.499975,0.770635,0.385298
10,114,8,1,9,1,1,C,7,L,8,L,6,0.757968,0.167913,0.127273
10,115,8,2,8,1,1,C,6,S,7,L,7,0.863787,0.158509,0.136918
10,116,1,8,1,2,1,C,7,L,1,S,7,0.213884,0.783712,0.167623
10,117,8,2,9,8,1,C,6,S,1,S,8,0.796752,0.263551,0.209984
10,118,9,2,2,1,1,C,7,L,1,S,7,0.767117,0.223169,0.171196
10,119,1,2,1,2,1,C,1,S,1,S,9,0.281133,0.807722,0.227078
10,120,1,8,9,1,1,I,7,L,8,L,10,0.514252,0.7551,0.388312
10,121,1,9,2,8,1,C,8,L,6,S,7,0.14879,0.883281,0.131424
10,122,9,2,1,9,1,I,7,L,8,L,11,0.770971,0.539507,0.415944
10,123,2,8,8,2,1,I,6,S,6,S,11,0.522483,0.768768,0.401668
10,124,1,2,9,1,1,I,1,S,8,L,17,0.65468,0.750005,0.491013
10,125,2,9,1,9,1,C,7,L,8,L,7,0.156583,0.871289,0.136429
10,126,2,9,2,8,1,C,7,L,6,S,7,0.175891,0.839959,0.147742
10,127,9,8,1,8,0,I,1,S,7,L,10,0.399896,0.765996,0.306319
10,128,2,8,1,9,1,C,6,S,8,L,7,0.163928,0.858071,0.140662
10,129,2,8,8,1,1,I,6,S,7,L,12,0.553487,0.784196,0.434042
10,130,1,8,1,8,1,C,7,L,7,L,6,0.171388,0.75382,0.129196
10,131,8,9,8,9,1,C,1,S,1,S,13,0.383159,0.799552,0.306355
10,132,9,8,2,8,0,I,1,S,6,S,11,0.438958,0.761551,0.334289
10,133,1,8,9,2,1,I,7,L,7,L,10,0.489277,0.7724,0.377917
10,134,8,9,2,8,1,C,1,S,6,S,9,0.308785,0.790739,0.244168
10,135,9,8,1,9,0,I,1,S,8,L,10,0.39902,0.767967,0.306434
10,136,9,2,2,9,1,I,7,L,7,L,10,0.752663,0.499603,0.376032
10,137,2,1,1,8,1,I,1,S,7,L,16,0.75895,0.638542,0.484622
10,138,9,8,9,8,1,C,1,S,1,S,12,0.775895,0.386867,0.300168
10,139,9,1,8,9,1,I,8,L,1,S,8,0.813221,0.264954,0.215466
10,140,2,8,2,1,1,I,6,S,1,S,9,0.394036,0.75101,0.295925
10,141,8,9,9,1,0,I,1,S,8,L,9,0.75321,0.357471,0.269251
10,142,8,1,8,9,1,I,7,L,1,S,8,0.804359,0.270077,0.217239
10,143,2,9,9,2,1,I,7,L,7,L,11,0.52335,0.776851,0.406565
10,144,9,2,9,2,1,C,7,L,7,L,7,0.858454,0.16331,0.140194
11,1,2,8,9,8,1,I,6,S,1,S,8,0.294743,0.762398,0.224712
11,2,8,1,2,8,1,I,7,L,6,S,10,0.770716,0.483625,0.372738
11,3,9,8,1,2,1,I,1,S,1,S,24,0.768317,0.6291,0.483348
11,4,9,2,1,2,1,I,7,L,1,S,9,0.763927,0.381158,0.291177
11,5,2,1,2,9,1,I,1,S,7,L,18,0.766724,0.639644,0.49043
11,6,8,2,1,8,1,I,6,S,7,L,12,0.782674,0.554306,0.433841
11,7,2,9,9,1,1,I,7,L,8,L,11,0.545008,0.762253,0.415434
11,8,1,2,8,9,1,C,1,S,1,S,9,0.288769,0.800368,0.231122
11,9,8,2,9,2,1,C,6,S,7,L,7,0.823824,0.185719,0.153
11,10,8,1,9,8,1,C,7,L,1,S,8,0.829431,0.241235,0.200088
11,11,2,9,8,2,1,I,7,L,6,S,10,0.487515,0.754952,0.36805
11,12,8,9,2,9,1,C,1,S,7,L,9,0.294796,0.809012,0.238494
11,13,9,8,9,1,1,C,1,S,8,L,9,0.822426,0.283356,0.233039
11,14,2,1,9,8,1,C,1,S,1,S,10,0.774236,0.342675,0.265311
11,15,1,8,9,8,1,I,7,L,1,S,8,0.270395,0.800924,0.216565
11,16,2,9,1,2,1,C,7,L,1,S,7,0.230658,0.754998,0.174146
11,17,9,8,1,8,0,I,1,S,7,L,10,0.365286,0.787029,0.28749
11,18,9,2,1,8,1,I,7,L,7,L,11,0.760151,0.540629,0.41096
11,19,1,9,9,2,1,I,8,L,7,L,10,0.477817,0.782673,0.373974
11,20,8,2,2,8,1,I,6,S,6,S,11,0.764552,0.524971,0.401368
11,21,1,8,8,1,1,I,7,L,7,L,10,0.50325,0.760371,0.382657
11,22,1,2,8,2,1,I,1,S,6,S,15,0.608726,0.761839,0.463751
11,23,2,1,1,8,1,I,1,S,7,L,18,0.760513,0.648652,0.493308
11,24,2,9,9,8,1,I,7,L,1,S,8,0.291641,0.769652,0.224462
11,25,2,8,8,1,1,I,6,S,7,L,11,0.538273,0.761296,0.409785
11,26,1,2,9,2,1,I,1,S,7,L,15,0.62232,0.752323,0.468186
11,27,1,8,2,1,1,I,7,L,1,S,9,0.343137,0.809756,0.277857
11,28,2,9,9,2,1,I,7,L,7,L,11,0.512253,0.785164,0.402203
11,29,1,2,9,8,1,I,1,S,1,S,10,0.374943,0.758136,0.284258
11,30,9,1,9,1,1,C,8,L,8,L,6,0.75677,0.168583,0.127579
11,31,9,2,9,1,1,C,7,L,8,L,7,0.866253,0.157569,0.136494
11,32,8,1,2,9,1,I,7,L,7,L,10,0.761527,0.498035,0.379267
11,33,2,8,2,1,1,I,6,S,1,S,9,0.368777,0.770361,0.284091
11,34,1,2,2,1,1,I,1,S,1,S,12,0.500167,0.752309,0.37628
11,35,9,2,9,8,1,C,7,L,1,S,8,0.795785,0.262054,0.208539
11,36,9,8,2,1,1,C,1,S,1,S,11,0.804018,0.3402,0.273526
11,37,1,8,1,8,1,C,7,L,7,L,7,0.138954,0.89424,0.124259
11,38,1,8,8,9,1,C,7,L,1,S,7,0.230966,0.761121,0.175793
11,39,9,8,2,8,0,I,1,S,6,S,10,0.381706,0.761284,0.290587
11,40,1,9,8,9,1,C,8,L,1,S,7,0.228954,0.766648,0.175527
11,41,8,1,9,2,1,C,7,L,7,L,7,0.866881,0.158177,0.13712
11,42,2,8,8,2,1,I,6,S,6,S,11,0.50071,0.787593,0.394355
11,43,9,8,1,9,0,I,1,S,8,L,9,0.354462,0.751932,0.266532
11,44,1,8,2,9,1,C,7,L,7,L,7,0.144982,0.883819,0.128138
11,45,9,2,8,9,1,I,7,L,1,S,9,0.794627,0.341314,0.271217
11,46,8,9,8,2,0,I,1,S,6,S,11,0.778843,0.409848,0.319207
11,47,9,2,2,1,1,C,7,L,1,S,8,0.860212,0.205931,0.177144
11,48,9,1,1,9,1,I,8,L,8,L,10,0.755746,0.513856,0.388345
11,49,1,9,1,8,1,C,8,L,7,L,6,0.172743,0.750994,0.129729
11,50,9,8,8,9,1,I,1,S,1,S,23,0.769995,0.619286,0.476847
11,51,8,2,1,2,1,I,6,S,1,S,9,0.75126,0.390837,0.293621
11,52,1,8,2,8,1,C,7,L,6,S,7,0.152483,0.870874,0.132793
11,53,8,9,2,8,1,C,1,S,6,S,9,0.303672,0.794661,0.241316
11,54,2,8,9,2,1,I,6,S,7,L,11,0.516221,0.777401,0.40131
11,55,9,2,2,9,1,I,7,L,7,L,11,0.767458,0.529459,0.406338
11,56,1,9,2,9,1,C,8,L,7,L,7,0.14297,0.889346,0.12715
11,57,1,9,1,9,1,C,8,L,8,L,6,0.167521,0.760493,0.127399
11,58,2,9,8,1,1,I,7,L,7,L,11,0.534305,0.769059,0.410913
11,59,8,1,1,9,1,I,7,L,8,L,11,0.786848,0.52895,0.416203
11,60,9,1,2,8,1,I,8,L,6,S,10,0.779289,0.476816,0.371577
11,61,8,9,1,9,1,C,1,S,8,L,8,0.298966,0.750561,0.224392
11,62,9,8,9,2,1,C,1,S,7,L,9,0.788881,0.305705,0.241165
11,63,9,8,8,1,1,C,1,S,7,L,9,0.811577,0.289875,0.235256
11,64,2,1,8,2,1,C,1,S,6,S,8,0.78265,0.261314,0.204517
11,65,9,2,1,9,1,I,7,L,8,L,11,0.752959,0.55176,0.415453
11,66,2,1,8,1,1,C,1,S,7,L,8,0.819793,0.237225,0.194475
11,67,2,8,9,1,1,I,6,S,8,L,11,0.548975,0.75449,0.414196
11,68,2,1,2,1,1,C,1,S,1,S,9,0.78308,0.295554,0.231443
11,69,8,1,8,1,1,C,7,L,7,L,7,0.887758,0.144221,0.128033
11,70,1,9,9,1,1,I,8,L,8,L,10,0.51123,0.759824,0.388445
11,71,2,1,2,8,1,I,1,S,6,S,17,0.752699,0.63923,0.481148
11,72,8,1,8,9,1,I,7,L,1,S,8,0.760227,0.316986,0.240981
11,73,1,8,8,2,1,I,7,L,6,S,10,0.465002,0.786519,0.365733
11,74,1,2,2,8,1,C,1,S,6,S,8,0.224908,0.83427,0.187634
11,75,1,9,2,1,1,I,8,L,1,S,8,0.332449,0.750684,0.249564
11,76,8,9,8,9,1,C,1,S,1,S,11,0.365677,0.779233,0.284947
11,77,1,8,9,2,1,I,7,L,7,L,10,0.480684,0.776495,0.373248
11,78,9,1,9,2,1,C,8,L,7,L,7,0.875216,0.151891,0.132938
11,79,8,1,8,2,1,C,7,L,6,S,7,0.853209,0.166143,0.141755
11,80,8,1,9,1,1,C,7,L,8,L,7,0.897826,0.138615,0.124452
11,81,1,9,1,2,1,C,8,L,1,S,7,0.208966,0.790099,0.165104
11,82,8,9,1,2,1,C,1,S,1,S,10,0.358219,0.755959,0.270799
11,83,9,2,8,2,1,C,7,L,6,S,7,0.821636,0.185097,0.152083
11,84,2,9,1,9,1,C,7,L,8,L,7,0.152632,0.875206,0.133585
11,85,8,2,2,1,1,C,6,S,1,S,8,0.847854,0.215222,0.182477
11,86,2,1,8,9,1,I,1,S,1,S,13,0.761841,0.505536,0.385138
11,87,1,8,1,9,1,C,7,L,8,L,6,0.169097,0.755537,0.127759
11,88,9,2,8,1,1,C,7,L,7,L,7,0.856185,0.163175,0.139708
11,89,1,8,9,1,1,I,7,L,8,L,10,0.514097,0.753646,0.387447
11,90,8,2,9,1,1,C,6,S,8,L,7,0.854769,0.166157,0.142026
11,91,9,1,1,2,1,I,8,L,1,S,9,0.807142,0.352347,0.284394
11,92,1,9,8,1,1,I,8,L,7,L,10,0.500384,0.766549,0.383569
11,93,8,2,9,8,1,C,6,S,1,S,8,0.783427,0.271346,0.21258
11,94,1,9,9,8,1,I,8,L,1,S,8,0.268022,0.806808,0.216242
11,95,2,8,2,9,1,C,6,S,7,L,7,0.167266,0.847566,0.141769
11,96,9,8,8,2,1,C,1,S,6,S,9,0.773346,0.315333,0.243861
11,97,1,8,1,2,1,C,7,L,1,S,7,0.210978,0.784572,0.165528
11,98,2,1,1,9,1,I,1,S,8,L,18,0.75431,0.657813,0.496195
11,99,2,9,8,9,1,C,7,L,1,S,8,0.222437,0.845402,0.188048
11,100,1,2,1,9,1,C,1,S,8,L,7,0.235948,0.7502,0.177008
11,101,8,1,1,2,1,I,7,L,1,S,9,0.798408,0.359147,0.286746
11,102,8,9,8,1,0,I,1,S,7,L,10,0.782867,0.375623,0.294063
11,103,9,1,8,1,1,C,8,L,7,L,7,0.896093,0.137935,0.123603
11,104,8,9,9,2,0,I,1,S,7,L,10,0.7603,0.391747,0.297846
11,105,8,2,2,9,1,I,6,S,7,L,11,0.75524,0.539193,0.40722
11,106,9,2,2,8,1,I,7,L,6,S,11,0.77677,0.515238,0.400221
11,107,1,2,8,1,1,I,1,S,7,L,16,0.632587,0.762695,0.482471
11,108,1,2,1,2,1,C,1,S,1,S,9,0.258069,0.840212,0.216833
11,109,2,9,1,8,1,C,7,L,7,L,7,0.158634,0.864666,0.137165
11,110,8,1,1,8,1,I,7,L,7,L,10,0.754295,0.50937,0.384215
11,111,8,9,1,8,1,C,1,S,7,L,9,0.28778,0.820345,0.236079
11,112,2,8,1,9,1,C,6,S,8,L,7,0.155237,0.868528,0.134828
11,113,1,2,1,8,1,C,1,S,7,L,8,0.209957,0.859254,0.180407
11,114,2,8,2,8,1,C,6,S,6,S,7,0.174768,0.834621,0.145865
11,115,8,2,8,9,1,I,6,S,1,S,9,0.78196,0.350994,0.274463
11,116,8,2,8,2,1,C,6,S,6,S,7,0.810153,0.193686,0.156915
11,117,9,2,9,2,1,C,7,L,7,L,7,0.835308,0.177131,0.147959
11,118,8,9,9,1,0,I,1,S,8,L,10,0.793713,0.368899,0.2928
11,119,9,1,1,8,1,I,8,L,7,L,10,0.762869,0.50256,0.383387
11,120,2,8,1,2,1,C,6,S,1,S,8,0.199989,0.869985,0.173988
11,121,9,1,8,2,1,C,8,L,6,S,7,0.861544,0.159858,0.137724
11,122,2,1,9,1,1,C,1,S,8,L,8,0.830419,0.231069,0.191884
11,123,2,9,2,9,1,C,7,L,7,L,7,0.164661,0.854245,0.140661
11,124,2,9,2,1,1,I,7,L,1,S,9,0.365287,0.777944,0.284173
11,125,8,2,8,1,1,C,6,S,7,L,7,0.844701,0.171763,0.145089
11,126,2,8,8,9,1,C,6,S,1,S,8,0.225539,0.838148,0.189035
11,127,8,1,2,1,1,C,7,L,1,S,7,0.772249,0.218953,0.169086
11,128,2,8,1,8,1,C,6,S,7,L,7,0.161239,0.857987,0.138341
11,129,1,9,8,2,1,I,8,L,6,S,10,0.462136,0.792697,0.366334
11,130,1,2,2,9,1,C,1,S,7,L,8,0.216583,0.848185,0.183702
11,131,1,2,9,1,1,I,1,S,8,L,16,0.641953,0.756424,0.485588
11,132,8,9,2,1,1,I,1,S,1,S,22,0.633348,0.75661,0.479198
11,133,8,9,9,8,1,I,1,S,1,S,17,0.536745,0.754216,0.404822
11,134,1,9,2,8,1,C,8,L,6,S,7,0.150471,0.8764,0.131873
11,135,2,1,1,2,1,I,1,S,1,S,14,0.751451,0.559342,0.420318
11,136,9,8,9,8,1,C,1,S,1,S,13,0.787773,0.386623,0.304572
11,137,8,2,1,9,1,I,6,S,8,L,12,0.775509,0.565189,0.438309
11,138,9,1,8,9,1,I,8,L,1,S,8,0.768917,0.310346,0.23863
11,139,2,1,9,2,1,C,1,S,7,L,8,0.797571,0.25236,0.201275
11,140,9,1,2,9,1,I,8,L,7,L,10,0.7701,0.491225,0.378292
11,141,9,1,9,8,1,C,8,L,1,S,8,0.838121,0.234596,0.19662
11,142,9,8,2,9,0,I,1,S,7,L,10,0.372517,0.775693,0.288959
11,143,2,9,2,8,1,C,7,L,6,S,7,0.172162,0.841299,0.14484
11,144,9,1,2,1,1,C,8,L,1,S,7,0.780584,0.212667,0.166005
12,1,2,1,1,9,1,I,1,S,8,L,18,0.766576,0.643751,0.493484
12,2,8,9,9,1,0,I,1,S,8,L,9,0.750606,0.360252,0.270407
12,3,2,8,9,8,1,I,6,S,1,S,8,0.300915,0.759137,0.228435
12,4,9,2,8,9,1,I,7,L,1,S,8,0.771148,0.292584,0.225626
12,5,9,1,8,9,1,I,8,L,1,S,8,0.800428,0.273263,0.218728
12,6,8,9,9,2,0,I,1,S,7,L,10,0.766942,0.386082,0.296102
12,7,9,8,2,1,1,C,1,S,1,S,10,0.773166,0.347892,0.268979
12,8,2,1,9,1,1,C,1,S,8,L,8,0.846667,0.215057,0.182081
12,9,1,9,2,9,1,C,8,L,7,L,7,0.148254,0.881144,0.130633
12,10,1,9,9,8,1,I,8,L,1,S,8,0.269086,0.806613,0.217048
12,11,1,2,1,8,1,C,1,S,7,L,8,0.224349,0.834628,0.187248
12,12,2,9,2,9,1,C,7,L,7,L,7,0.174122,0.839511,0.146178
12,13,8,9,8,9,1,C,1,S,1,S,12,0.396593,0.762526,0.302413
12,14,8,2,9,1,1,C,6,S,8,L,7,0.874855,0.151953,0.132937
12,15,1,2,8,9,1,C,1,S,1,S,10,0.321895,0.800268,0.257603
12,16,1,2,2,8,1,C,1,S,6,S,8,0.247796,0.800528,0.198367
12,17,2,1,8,2,1,C,1,S,6,S,8,0.812902,0.237685,0.193215
12,18,9,1,9,8,1,C,8,L,1,S,8,0.842697,0.230405,0.194162
12,19,1,8,9,2,1,I,7,L,7,L,10,0.48563,0.776935,0.377303
12,20,2,8,8,2,1,I,6,S,6,S,11,0.5202,0.775398,0.403362
12,21,9,2,1,8,1,I,7,L,7,L,11,0.770694,0.534038,0.41158
12,22,1,9,1,8,1,C,8,L,7,L,6,0.167829,0.756096,0.126895
12,23,8,1,8,1,1,C,7,L,7,L,6,0.751334,0.171424,0.128797
12,24,9,8,8,1,1,C,1,S,7,L,9,0.815542,0.292441,0.238498
12,25,2,8,1,8,1,C,6,S,7,L,7,0.161117,0.860461,0.138635
12,26,2,8,2,9,1,C,6,S,7,L,7,0.177695,0.836255,0.148598
12,27,8,1,9,2,1,C,7,L,7,L,7,0.877666,0.150057,0.1317
12,28,8,2,2,9,1,I,6,S,7,L,11,0.78265,0.514969,0.40304
12,29,8,9,1,9,1,C,1,S,8,L,9,0.28017,0.829623,0.232435
12,30,2,9,9,2,1,I,7,L,7,L,11,0.522515,0.77409,0.404473
12,31,2,9,1,8,1,C,7,L,7,L,7,0.157545,0.863716,0.136074
12,32,2,1,8,9,1,I,1,S,1,S,11,0.769752,0.398964,0.307104
12,33,8,1,2,1,1,C,7,L,1,S,7,0.804828,0.196716,0.158322
12,34,9,2,8,1,1,C,7,L,7,L,7,0.87775,0.148751,0.130566
12,35,8,1,8,9,1,I,7,L,1,S,8,0.794886,0.278187,0.221126
12,36,8,9,1,2,1,C,1,S,1,S,11,0.337615,0.812134,0.274189
12,37,2,1,9,8,1,C,1,S,1,S,10,0.80106,0.32009,0.256411
12,38,9,8,9,2,1,C,1,S,7,L,9,0.791394,0.308772,0.24436
12,39,8,2,8,2,1,C,6,S,6,S,7,0.842904,0.172896,0.145735
12,40,9,2,8,2,1,C,7,L,6,S,7,0.84983,0.166947,0.141877
12,41,9,8,9,1,1,C,1,S,8,L,9,0.819774,0.289425,0.237263
12,42,8,2,2,1,1,C,6,S,1,S,7,0.775528,0.215794,0.167354
12,43,1,8,1,2,1,C,7,L,1,S,7,0.214185,0.781151,0.167311
12,44,9,8,1,2,0,I,1,S,1,S,15,0.512029,0.751411,0.384744
12,45,2,1,2,8,1,I,1,S,6,S,17,0.769327,0.623679,0.479813
12,46,1,8,2,9,1,C,7,L,7,L,7,0.15084,0.879065,0.132598
12,47,9,1,8,2,1,C,8,L,6,S,7,0.877571,0.149074,0.130823
12,48,1,2,2,9,1,C,1,S,7,L,8,0.242248,0.808942,0.195965
12,49,8,2,8,9,1,I,6,S,1,S,8,0.763832,0.298865,0.228282
12,50,1,8,8,1,1,I,7,L,7,L,10,0.509627,0.760293,0.387466
12,51,9,1,9,1,1,C,8,L,8,L,6,0.759899,0.164562,0.125051
12,52,8,1,2,9,1,I,7,L,7,L,10,0.774012,0.483708,0.374396
12,53,9,2,2,1,1,C,7,L,1,S,7,0.782453,0.209845,0.164194
12,54,9,1,1,9,1,I,8,L,8,L,10,0.756385,0.510694,0.386281
12,55,8,2,2,8,1,I,6,S,6,S,11,0.788727,0.506414,0.399423
12,56,8,2,1,8,1,I,6,S,7,L,11,0.763789,0.540286,0.412664
12,57,9,1,9,2,1,C,8,L,7,L,7,0.883033,0.145314,0.128317
12,58,8,2,1,2,1,I,6,S,1,S,9,0.779631,0.362465,0.282589
12,59,1,8,9,8,1,I,7,L,1,S,8,0.271689,0.804523,0.21858
12,60,9,2,9,8,1,C,7,L,1,S,8,0.813416,0.249726,0.203131
12,61,9,8,1,9,0,I,1,S,8,L,9,0.349338,0.758796,0.265076
12,62,9,2,1,9,1,I,7,L,8,L,11,0.766663,0.539847,0.413881
12,63,2,9,1,2,1,C,7,L,1,S,8,0.205958,0.860418,0.17721
12,64,1,8,8,2,1,I,7,L,6,S,10,0.479687,0.781279,0.37477
12,65,2,1,2,1,1,C,1,S,1,S,9,0.842874,0.252111,0.212498
12,66,1,8,2,8,1,C,7,L,6,S,7,0.155864,0.871299,0.135804
12,67,2,8,2,8,1,C,6,S,6,S,7,0.182719,0.828489,0.151381
12,68,9,8,9,8,1,C,1,S,1,S,13,0.784633,0.394474,0.309517
12,69,9,8,1,8,0,I,1,S,7,L,9,0.35329,0.752826,0.265966
12,70,9,2,2,9,1,I,7,L,7,L,11,0.789555,0.508721,0.401664
12,71,2,1,8,1,1,C,1,S,7,L,8,0.842468,0.217979,0.18364
12,72,9,2,9,2,1,C,7,L,7,L,7,0.855291,0.163187,0.139572
12,73,8,9,2,9,1,C,1,S,7,L,9,0.302772,0.797486,0.241457
12,74,8,9,1,8,1,C,1,S,7,L,9,0.284122,0.823653,0.234018
12,75,2,8,1,9,1,C,6,S,8,L,7,0.157608,0.866069,0.136499
12,76,9,1,2,8,1,I,8,L,6,S,10,0.78539,0.470093,0.369206
12,77,8,1,9,1,1,C,7,L,8,L,6,0.755006,0.168953,0.12756
12,78,2,1,2,9,1,I,1,S,7,L,17,0.764306,0.630291,0.481736
12,79,2,9,8,1,1,I,7,L,7,L,11,0.546001,0.757443,0.413565
12,80,2,8,9,2,1,I,6,S,7,L,11,0.525999,0.771065,0.40558
12,81,1,2,1,2,1,C,1,S,1,S,9,0.28764,0.791851,0.227768
12,82,1,9,1,9,1,C,8,L,8,L,6,0.164727,0.761163,0.125384
12,83,2,9,9,1,1,I,7,L,8,L,11,0.550071,0.754421,0.414985
12,84,8,9,8,1,0,I,1,S,7,L,10,0.790939,0.36944,0.292204
12,85,9,1,2,1,1,C,8,L,1,S,7,0.810195,0.191972,0.155535
12,86,8,1,9,8,1,C,7,L,1,S,8,0.837154,0.235328,0.197006
12,87,9,1,2,9,1,I,8,L,7,L,10,0.779346,0.478806,0.373156
12,88,1,9,8,2,1,I,8,L,6,S,10,0.477235,0.783147,0.373745
12,89,1,8,1,8,1,C,7,L,7,L,6,0.170307,0.754163,0.128439
12,90,8,1,1,8,1,I,7,L,7,L,10,0.755077,0.509667,0.384838
12,91,8,2,1,9,1,I,6,S,8,L,11,0.759758,0.546095,0.4149
12,92,9,8,8,9,1,I,1,S,1,S,21,0.76092,0.597733,0.454826
12,93,2,9,2,1,1,I,7,L,1,S,10,0.423147,0.795035,0.336417
12,94,2,8,1,2,1,C,6,S,1,S,8,0.209657,0.857003,0.179677
12,95,8,1,8,2,1,C,7,L,6,S,7,0.872204,0.153818,0.134161
12,96,1,2,2,1,1,I,1,S,1,S,15,0.578541,0.766256,0.443311
12,97,2,8,2,1,1,I,6,S,1,S,10,0.426775,0.791788,0.337915
12,98,2,1,1,8,1,I,1,S,7,L,18,0.76989,0.639177,0.492096
12,99,1,8,8,9,1,C,7,L,1,S,8,0.229421,0.847381,0.194407
12,100,1,2,9,1,1,I,1,S,8,L,18,0.648625,0.76287,0.494816
12,101,8,1,1,2,1,I,7,L,1,S,9,0.811285,0.340838,0.276517
12,102,1,8,2,1,1,I,7,L,1,S,9,0.383675,0.787858,0.302282
12,103,1,2,8,1,1,I,1,S,7,L,18,0.645543,0.765259,0.494007
12,104,8,1,2,8,1,I,7,L,6,S,10,0.780056,0.474995,0.370522
12,105,1,9,8,9,1,C,8,L,1,S,8,0.226818,0.849471,0.192675
12,106,8,9,2,8,1,C,1,S,6,S,9,0.30865,0.78879,0.24346
12,107,1,9,2,1,1,I,8,L,1,S,9,0.381124,0.789866,0.301037
12,108,8,2,8,1,1,C,6,S,7,L,7,0.870824,0.1547,0.134716
12,109,1,9,9,2,1,I,8,L,7,L,10,0.483177,0.778804,0.3763
12,110,9,1,1,8,1,I,8,L,7,L,10,0.760411,0.504765,0.383829
12,111,1,9,9,1,1,I,8,L,8,L,10,0.511352,0.759118,0.388176
12,112,8,9,2,1,0,I,1,S,1,S,13,0.751309,0.485173,0.364515
12,113,9,8,2,8,0,I,1,S,6,S,10,0.378995,0.767208,0.290768
12,114,1,9,2,8,1,C,8,L,6,S,7,0.153278,0.873378,0.13387
12,115,1,2,9,8,1,I,1,S,1,S,11,0.399433,0.768465,0.30695
12,116,1,8,1,9,1,C,7,L,8,L,6,0.167205,0.75923,0.126947
12,117,2,9,9,8,1,I,7,L,1,S,8,0.297216,0.762552,0.226642
12,118,9,2,2,8,1,I,7,L,6,S,10,0.755802,0.490647,0.370832
12,119,2,9,8,9,1,C,7,L,1,S,8,0.254947,0.80541,0.205337
12,120,9,1,1,2,1,I,8,L,1,S,8,0.751439,0.328271,0.246676
12,121,9,8,2,9,0,I,1,S,7,L,10,0.372951,0.775921,0.289381
12,122,8,9,8,2,0,I,1,S,6,S,10,0.760999,0.390426,0.297114
12,123,2,8,9,1,1,I,6,S,8,L,11,0.553555,0.751397,0.415939
12,124,1,9,1,2,1,C,8,L,1,S,7,0.211599,0.78323,0.165731
12,125,2,9,8,2,1,I,7,L,6,S,11,0.516715,0.778422,0.402223
12,126,9,2,1,2,1,I,7,L,1,S,9,0.787007,0.356053,0.280216
12,127,8,2,9,2,1,C,6,S,7,L,7,0.848365,0.169136,0.143489
12,128,2,8,8,9,1,C,6,S,1,S,8,0.258646,0.801995,0.207433
12,129,2,1,9,2,1,C,1,S,7,L,8,0.818742,0.233604,0.191261
12,130,9,1,8,1,1,C,8,L,7,L,6,0.756226,0.167034,0.126315
12,131,1,2,1,9,1,C,1,S,8,L,8,0.220563,0.840513,0.185386
12,132,8,1,1,9,1,I,7,L,8,L,10,0.751051,0.515596,0.387238
12,133,2,9,2,8,1,C,7,L,6,S,7,0.179147,0.831744,0.149004
12,134,8,2,9,8,1,C,6,S,1,S,8,0.806101,0.256006,0.206367
12,135,9,2,9,1,1,C,7,L,8,L,7,0.881781,0.146004,0.128744
12,136,1,9,8,1,1,I,8,L,7,L,10,0.507174,0.762161,0.386549
12,137,8,9,9,8,1,I,1,S,1,S,18,0.559897,0.76015,0.425605
12,138,2,1,1,2,1,I,1,S,1,S,13,0.752789,0.522347,0.393217
12,139,1,8,9,1,1,I,7,L,8,L,10,0.513805,0.75725,0.389078
12,140,9,8,8,2,1,C,1,S,6,S,9,0.785417,0.313041,0.245867
12,141,2,8,8,1,1,I,6,S,7,L,11,0.549486,0.754418,0.414542
12,142,1,2,9,2,1,I,1,S,7,L,17,0.6377,0.757928,0.483331
12,143,2,9,1,9,1,C,7,L,8,L,7,0.154036,0.869324,0.133907
12,144,1,2,8,2,1,I,1,S,6,S,17,0.633319,0.761418,0.48222
13,1,8,2,8,2,1,C,6,S,6,S,7,0.847276,0.169587,0.143687
13,2,8,1,8,1,1,C,7,L,7,L,6,0.75267,0.171671,0.129212
13,3,9,2,1,9,1,I,7,L,8,L,11,0.779039,0.534493,0.416391
13,4,8,2,1,8,1,I,6,S,7,L,11,0.774207,0.534312,0.413668
13,5,8,1,9,2,1,C,7,L,7,L,7,0.874246,0.152693,0.133492
13,6,8,9,8,9,1,C,1,S,1,S,12,0.393256,0.76933,0.302544
13,7,8,1,1,2,1,I,7,L,1,S,9,0.796868,0.369843,0.294716
13,8,2,9,1,2,1,C,7,L,1,S,7,0.220437,0.774474,0.170723
13,9,1,8,2,9,1,C,7,L,7,L,7,0.145819,0.88565,0.129145
13,10,9,8,9,8,1,C,1,S,1,S,11,0.810403,0.343822,0.278634
13,11,9,8,9,1,1,C,1,S,8,L,8,0.802998,0.254975,0.204745
13,12,1,2,9,2,1,I,1,S,7,L,16,0.629507,0.752622,0.47378
13,13,9,1,1,8,1,I,8,L,7,L,10,0.767979,0.504226,0.387236
13,14,8,2,2,8,1,I,6,S,6,S,10,0.756196,0.493857,0.373452
13,15,9,1,1,9,1,I,8,L,8,L,10,0.762672,0.511091,0.389795
13,16,1,9,9,2,1,I,8,L,7,L,9,0.451308,0.753412,0.340021
13,17,9,1,1,2,1,I,8,L,1,S,9,0.8055,0.36466,0.293734
13,18,8,2,8,1,1,C,6,S,7,L,7,0.878599,0.149242,0.131123
13,19,9,2,2,9,1,I,7,L,7,L,10,0.758822,0.497394,0.377433
13,20,1,2,1,8,1,C,1,S,7,L,8,0.215408,0.84783,0.182629
13,21,9,2,8,2,1,C,7,L,6,S,7,0.856625,0.164316,0.140757
13,22,2,8,1,9,1,C,6,S,8,L,7,0.162302,0.861822,0.139875
13,23,1,8,2,8,1,C,7,L,6,S,7,0.152466,0.876504,0.133637
13,24,9,8,1,8,1,I,1,S,7,L,20,0.766324,0.658619,0.504715
13,25,8,9,1,8,1,C,1,S,7,L,9,0.293181,0.818083,0.239846
13,26,2,8,1,8,1,C,6,S,7,L,7,0.167183,0.855139,0.142965
13,27,1,9,8,1,1,I,8,L,7,L,10,0.494818,0.780596,0.386253
13,28,2,8,8,2,1,I,6,S,6,S,11,0.520075,0.772743,0.401884
13,29,8,1,2,9,1,I,7,L,7,L,10,0.773463,0.487755,0.377261
13,30,2,8,9,1,1,I,6,S,8,L,12,0.559615,0.781265,0.437207
13,31,9,2,8,1,1,C,7,L,7,L,7,0.887947,0.14397,0.127838
13,32,8,9,9,8,1,I,1,S,1,S,19,0.563396,0.76297,0.429854
13,33,8,1,2,1,1,C,7,L,1,S,7,0.789287,0.209383,0.165263
13,34,1,8,9,1,1,I,7,L,8,L,10,0.509019,0.7606,0.38716
13,35,1,2,1,9,1,C,1,S,8,L,8,0.210248,0.854781,0.179716
13,36,1,2,2,8,1,C,1,S,6,S,8,0.235563,0.816695,0.192383
13,37,1,2,8,1,1,I,1,S,7,L,17,0.644249,0.757671,0.488129
13,38,8,9,9,2,0,I,1,S,7,L,10,0.770781,0.379957,0.292864
13,39,1,8,8,2,1,I,7,L,6,S,10,0.472406,0.786798,0.371688
13,40,9,2,2,8,1,I,7,L,6,S,10,0.766403,0.487466,0.373595
13,41,2,1,8,9,1,I,1,S,1,S,12,0.786512,0.429751,0.338005
13,42,9,1,2,1,1,C,8,L,1,S,7,0.797357,0.204897,0.163376
13,43,9,8,2,9,1,I,1,S,7,L,19,0.757088,0.655578,0.49633
13,44,1,8,8,1,1,I,7,L,7,L,10,0.506402,0.763053,0.386412
13,45,8,9,8,2,0,I,1,S,6,S,10,0.766579,0.383661,0.294107
13,46,2,1,1,8,1,I,1,S,7,L,18,0.766109,0.647272,0.495881
13,47,1,8,9,2,1,I,7,L,7,L,10,0.476608,0.783094,0.373229
13,48,8,2,9,2,1,C,6,S,7,L,7,0.851196,0.166207,0.141475
13,49,8,2,9,1,1,C,6,S,8,L,7,0.881243,0.146854,0.129414
13,50,9,1,2,9,1,I,8,L,7,L,10,0.782082,0.482419,0.377291
13,51,2,9,9,1,1,I,7,L,8,L,11,0.538177,0.772051,0.4155
13,52,2,8,9,2,1,I,6,S,7,L,11,0.52411,0.76911,0.403098
13,53,2,9,8,1,1,I,7,L,7,L,11,0.53569,0.774432,0.414855
13,54,9,1,9,1,1,C,8,L,8,L,6,0.762392,0.165555,0.126218
13,55,9,2,9,8,1,C,7,L,1,S,8,0.823558,0.244344,0.201231
13,56,9,8,2,8,1,I,1,S,6,S,19,0.762403,0.649255,0.494993
13,57,8,1,1,8,1,I,7,L,7,L,10,0.75936,0.509563,0.386942
13,58,2,1,2,8,1,I,1,S,6,S,17,0.762753,0.63363,0.483303
13,59,8,9,2,1,0,I,1,S,1,S,14,0.755326,0.497104,0.375475
13,60,2,1,9,2,1,C,1,S,7,L,8,0.804848,0.24663,0.1985
13,61,1,9,9,8,1,I,8,L,1,S,8,0.256666,0.824757,0.211687
13,62,9,1,8,9,1,I,8,L,1,S,8,0.799272,0.279409,0.223324
13,63,1,2,9,1,1,I,1,S,8,L,17,0.645843,0.755963,0.488233
13,64,9,1,8,2,1,C,8,L,6,S,7,0.878396,0.151587,0.133154
13,65,9,2,1,8,1,I,7,L,7,L,11,0.784278,0.52784,0.413973
13,66,8,2,1,2,1,I,6,S,1,S,9,0.771976,0.38544,0.29755
13,67,2,1,1,2,1,I,1,S,1,S,14,0.750158,0.56993,0.427537
13,68,1,8,2,1,1,I,7,L,1,S,9,0.354004,0.80905,0.286407
13,69,2,9,2,8,1,C,7,L,6,S,7,0.170989,0.849326,0.145225
13,70,8,2,2,9,1,I,6,S,7,L,11,0.788429,0.512851,0.404347
13,71,2,8,8,9,1,C,6,S,1,S,8,0.256367,0.802473,0.205728
13,72,8,2,2,1,1,C,6,S,1,S,7,0.766237,0.222897,0.170792
13,73,2,8,2,8,1,C,6,S,6,S,7,0.185655,0.825878,0.153329
13,74,8,1,9,8,1,C,7,L,1,S,8,0.837997,0.235379,0.197247
13,75,9,8,9,2,1,C,1,S,7,L,8,0.771097,0.276003,0.212825
13,76,2,9,8,2,1,I,7,L,6,S,10,0.493279,0.758127,0.373969
13,77,1,9,1,8,1,C,8,L,7,L,6,0.161308,0.771622,0.124469
13,78,1,9,8,9,1,C,8,L,1,S,7,0.234273,0.765243,0.179276
13,79,2,1,2,1,1,C,1,S,1,S,9,0.80702,0.281355,0.227059
13,80,1,2,9,8,1,I,1,S,1,S,11,0.376589,0.791749,0.298164
13,81,2,9,2,1,1,I,7,L,1,S,9,0.374621,0.780076,0.292233
13,82,2,8,1,2,1,C,6,S,1,S,7,0.235104,0.751026,0.176569
13,83,8,9,9,1,0,I,1,S,8,L,9,0.755487,0.355119,0.268288
13,84,8,1,9,1,1,C,7,L,8,L,6,0.755083,0.169456,0.127954
13,85,2,1,1,9,1,I,1,S,8,L,18,0.762129,0.652076,0.496966
13,86,8,1,2,8,1,I,7,L,6,S,10,0.781043,0.477828,0.373204
13,87,9,8,1,9,1,I,1,S,8,L,20,0.762679,0.663032,0.505681
13,88,2,8,8,1,1,I,6,S,7,L,12,0.557278,0.783549,0.436654
13,89,9,2,9,1,1,C,7,L,8,L,7,0.890591,0.141583,0.126092
13,90,8,1,8,9,1,I,7,L,1,S,8,0.790795,0.284316,0.224836
13,91,2,9,8,9,1,C,7,L,1,S,8,0.240218,0.827665,0.19882
13,92,8,2,1,9,1,I,6,S,8,L,11,0.768969,0.540965,0.415985
13,93,9,2,1,2,1,I,7,L,1,S,9,0.782169,0.379256,0.296642
13,94,8,9,2,8,1,C,1,S,6,S,9,0.314371,0.786244,0.247172
13,95,2,9,2,9,1,C,7,L,7,L,7,0.164341,0.858472,0.141082
13,96,9,8,8,1,1,C,1,S,7,L,8,0.80027,0.257448,0.206028
13,97,9,2,8,9,1,I,7,L,1,S,8,0.776355,0.293281,0.22769
13,98,8,9,1,2,1,C,1,S,1,S,10,0.358059,0.762679,0.273084
13,99,2,9,9,8,1,I,7,L,1,S,8,0.287421,0.778728,0.223823
13,100,1,9,2,1,1,I,8,L,1,S,8,0.332564,0.762972,0.253737
13,101,2,1,9,8,1,C,1,S,1,S,10,0.78581,0.334711,0.263019
13,102,9,8,1,2,1,I,1,S,1,S,17,0.772947,0.600049,0.463806
