ANN,trial,N1,N2,P1,P2,Succ.,Cong,Ndist,Ndist,Pdist,Pdist,rt,a1,a2,x_acc
1,1,2,8,8,9,1,C,6,S,1,S,11,0.407158,0.779202,0.317259
1,2,1,9,2,8,1,C,8,L,6,S,9,0.293849,0.813646,0.239089
1,3,9,2,8,9,1,I,7,L,1,S,9,0.780833,0.32495,0.253732
1,4,8,2,8,9,1,I,6,S,1,S,10,0.803748,0.338132,0.271773
1,5,1,8,1,2,1,C,7,L,1,S,9,0.347605,0.750301,0.260808
1,6,1,2,1,8,1,C,1,S,7,L,11,0.382322,0.792359,0.302936
1,7,8,1,2,1,1,C,7,L,1,S,9,0.827501,0.281734,0.233135
1,8,8,1,8,1,1,C,7,L,7,L,8,0.781595,0.272629,0.213086
1,9,2,8,2,8,1,C,6,S,6,S,9,0.302772,0.799285,0.242001
1,10,2,1,8,2,1,C,1,S,6,S,9,0.773712,0.321463,0.24872
1,11,8,9,2,1,0,I,1,S,1,S,13,0.785876,0.429516,0.337547
1,12,1,8,8,2,1,I,7,L,6,S,12,0.498361,0.777845,0.387647
1,13,9,8,2,9,1,I,1,S,7,L,23,0.757034,0.648747,0.491123
1,14,9,1,9,8,1,C,8,L,1,S,9,0.79294,0.3219,0.255248
1,15,9,8,1,9,0,I,1,S,8,L,14,0.505827,0.754026,0.381407
1,16,1,2,2,9,1,C,1,S,7,L,12,0.400337,0.791878,0.317018
1,17,2,9,1,2,1,C,7,L,1,S,11,0.375903,0.789709,0.296854
1,18,1,9,2,9,1,C,8,L,7,L,9,0.314298,0.786796,0.247288
1,19,2,8,2,9,1,C,6,S,7,L,9,0.323221,0.772434,0.249667
1,20,9,8,1,2,1,I,1,S,1,S,17,0.772004,0.49882,0.385091
1,21,8,2,1,9,1,I,6,S,8,L,13,0.766808,0.532523,0.408343
1,22,9,1,9,1,1,C,8,L,8,L,8,0.832011,0.240224,0.199869
1,23,9,8,8,9,1,I,1,S,1,S,13,0.788104,0.408265,0.321755
1,24,8,1,8,2,1,C,7,L,6,S,9,0.850011,0.265418,0.225609
1,25,2,1,1,8,1,I,1,S,7,L,15,0.761611,0.590364,0.449628
1,26,8,1,1,9,1,I,7,L,8,L,12,0.78522,0.488898,0.383892
1,27,2,1,9,8,1,C,1,S,1,S,11,0.80615,0.367856,0.296547
1,28,9,8,8,1,1,C,1,S,7,L,10,0.784776,0.354959,0.278563
1,29,8,2,9,2,1,C,6,S,7,L,9,0.81672,0.292247,0.238684
1,30,1,2,2,1,0,I,1,S,1,S,13,0.764657,0.457122,0.349542
1,31,9,2,1,8,1,I,7,L,7,L,12,0.779818,0.507969,0.396123
1,32,9,8,2,1,1,C,1,S,1,S,11,0.773007,0.386359,0.298659
1,33,9,2,9,8,1,C,7,L,1,S,9,0.759863,0.346195,0.263061
1,34,1,2,8,2,0,I,1,S,6,S,12,0.762119,0.4397,0.335104
1,35,2,9,1,9,1,C,7,L,8,L,10,0.305507,0.843103,0.257574
1,36,2,1,8,9,1,I,1,S,1,S,10,0.766877,0.364537,0.279555
1,37,2,9,2,9,1,C,7,L,7,L,10,0.324111,0.817018,0.264805
1,38,2,9,1,8,1,C,7,L,7,L,9,0.324714,0.772266,0.250765
1,39,2,1,2,1,1,C,1,S,1,S,9,0.751203,0.337779,0.25374
1,40,2,8,9,8,1,I,6,S,1,S,10,0.385748,0.753167,0.290533
1,41,8,1,9,1,1,C,7,L,8,L,8,0.789359,0.268887,0.212248
1,42,2,1,1,2,1,I,1,S,1,S,11,0.772295,0.399129,0.308246
1,43,2,9,9,8,1,I,7,L,1,S,11,0.409758,0.758435,0.310775
1,44,9,2,1,9,1,I,7,L,8,L,11,0.763433,0.473054,0.361145
1,45,1,8,1,8,1,C,7,L,7,L,8,0.292819,0.756488,0.221514
1,46,2,8,9,1,1,I,6,S,8,L,15,0.599425,0.767477,0.460045
1,47,1,8,1,9,1,C,7,L,8,L,9,0.272652,0.843712,0.23004
1,48,9,1,9,2,1,C,8,L,7,L,8,0.794055,0.267574,0.212468
1,49,8,2,2,1,1,C,6,S,1,S,9,0.782819,0.314918,0.246523
1,50,2,1,2,9,1,I,1,S,7,L,14,0.778444,0.534166,0.415819
1,51,8,9,9,2,0,I,1,S,7,L,12,0.791563,0.41033,0.324802
1,52,8,9,2,8,1,C,1,S,6,S,11,0.408705,0.754553,0.308389
1,53,2,9,8,9,1,C,7,L,1,S,12,0.444991,0.765895,0.340816
1,54,1,8,2,8,1,C,7,L,6,S,9,0.267999,0.848699,0.22745
1,55,1,9,9,1,1,I,8,L,8,L,14,0.591578,0.757212,0.44795
1,56,9,8,9,8,1,C,1,S,1,S,14,0.763423,0.443666,0.338705
1,57,8,2,8,2,1,C,6,S,6,S,9,0.805328,0.298602,0.240473
1,58,8,2,1,2,1,I,6,S,1,S,11,0.812662,0.370123,0.300784
1,59,9,2,2,1,1,C,7,L,1,S,9,0.842275,0.27362,0.230464
1,60,9,1,2,9,1,I,8,L,7,L,10,0.771895,0.413372,0.31908
1,61,2,9,9,2,1,I,7,L,7,L,16,0.599201,0.768171,0.460289
1,62,1,8,8,9,1,C,7,L,1,S,10,0.377173,0.778749,0.293723
1,63,1,8,9,2,1,I,7,L,7,L,12,0.512574,0.769084,0.394212
1,64,8,2,9,1,1,C,6,S,8,L,8,0.751758,0.297378,0.223556
1,65,8,9,8,1,0,I,1,S,7,L,11,0.786192,0.391562,0.307842
1,66,8,1,2,8,1,I,7,L,6,S,12,0.779615,0.495241,0.386097
1,67,1,8,9,1,1,I,7,L,8,L,13,0.562762,0.765899,0.431018
1,68,1,2,1,2,1,C,1,S,1,S,15,0.455336,0.759614,0.34588
1,69,8,2,2,8,1,I,6,S,6,S,13,0.761226,0.538757,0.410116
1,70,8,1,8,9,1,I,7,L,1,S,9,0.76606,0.333064,0.255147
1,71,1,2,9,2,0,I,1,S,7,L,12,0.776332,0.430939,0.334552
1,72,9,2,1,2,1,I,7,L,1,S,10,0.814521,0.343414,0.279718
1,73,9,2,9,1,1,C,7,L,8,L,8,0.802254,0.262105,0.210275
1,74,1,2,9,8,1,I,1,S,1,S,20,0.538398,0.768984,0.414019
1,75,8,9,2,9,1,C,1,S,7,L,12,0.415568,0.771268,0.320514
1,76,9,2,9,2,1,C,7,L,7,L,8,0.764298,0.289455,0.22123
1,77,9,2,8,2,1,C,7,L,6,S,8,0.754856,0.294528,0.222326
1,78,1,9,1,9,1,C,8,L,8,L,9,0.298502,0.808659,0.241386
1,79,9,2,2,8,1,I,7,L,6,S,11,0.757962,0.479257,0.363259
1,80,9,2,2,9,1,I,7,L,7,L,11,0.784214,0.443906,0.348117
1,81,2,8,1,2,1,C,6,S,1,S,10,0.361118,0.775139,0.279917
1,82,9,8,2,8,0,I,1,S,6,S,14,0.500391,0.759974,0.380284
1,83,9,1,1,9,1,I,8,L,8,L,10,0.753292,0.439457,0.331039
1,84,8,9,8,2,0,I,1,S,6,S,12,0.77735,0.419091,0.32578
1,85,1,9,9,2,1,I,8,L,7,L,13,0.546522,0.76251,0.416729
1,86,1,8,2,1,1,I,7,L,1,S,11,0.463583,0.760294,0.35246
1,87,1,9,8,2,1,I,8,L,6,S,13,0.532299,0.771552,0.410696
1,88,1,2,8,1,0,I,1,S,7,L,11,0.775604,0.406896,0.31559
1,89,2,9,8,1,1,I,7,L,7,L,17,0.620657,0.767249,0.476199
1,90,9,1,8,9,1,I,8,L,1,S,9,0.81391,0.300655,0.244706
1,91,2,8,1,8,1,C,6,S,7,L,9,0.28985,0.817917,0.237073
1,92,1,9,9,8,1,I,8,L,1,S,10,0.375474,0.769425,0.288899
1,93,9,2,8,1,1,C,7,L,7,L,8,0.794491,0.265847,0.211213
1,94,2,8,8,2,1,I,6,S,6,S,13,0.544427,0.753728,0.41035
1,95,2,1,2,8,1,I,1,S,6,S,15,0.777665,0.569356,0.442768
1,96,8,1,2,9,1,I,7,L,7,L,11,0.767655,0.453745,0.348319
1,97,2,9,2,1,1,I,7,L,1,S,15,0.563007,0.772436,0.434886
1,98,2,1,9,1,1,C,1,S,8,L,9,0.828657,0.283921,0.235273
1,99,1,9,8,1,1,I,8,L,7,L,14,0.582445,0.762849,0.444318
1,100,1,9,1,2,1,C,8,L,1,S,10,0.350844,0.791396,0.277657
1,101,8,9,1,9,1,C,1,S,8,L,12,0.393331,0.802144,0.315508
1,102,8,1,1,2,1,I,7,L,1,S,10,0.798546,0.352552,0.281528
1,103,2,8,2,1,1,I,6,S,1,S,13,0.514506,0.775914,0.399213
1,104,8,1,9,2,1,C,7,L,7,L,8,0.751402,0.296237,0.222593
1,105,2,1,9,2,1,C,1,S,7,L,9,0.785104,0.315109,0.247393
1,106,2,8,9,2,1,I,6,S,7,L,14,0.559275,0.774543,0.433183
1,107,9,1,1,8,1,I,8,L,7,L,11,0.777169,0.47523,0.369334
1,108,8,2,8,1,1,C,6,S,7,L,9,0.851581,0.2655,0.226095
1,109,8,1,9,8,1,C,7,L,1,S,10,0.823175,0.33058,0.272125
1,110,1,8,2,9,1,C,7,L,7,L,9,0.288448,0.821848,0.23706
1,111,8,9,9,1,0,I,1,S,8,L,11,0.795692,0.386223,0.307315
1,112,2,1,8,1,1,C,1,S,7,L,9,0.819965,0.288361,0.236446
1,113,2,9,9,1,1,I,7,L,8,L,17,0.628854,0.761987,0.479178
1,114,1,2,8,9,1,C,1,S,1,S,24,0.642312,0.751375,0.482617
1,115,8,2,9,8,1,C,6,S,1,S,10,0.773707,0.36722,0.284121
1,116,8,9,1,8,1,C,1,S,7,L,11,0.392909,0.777025,0.3053
1,117,1,2,1,9,1,C,1,S,8,L,11,0.403588,0.763684,0.308214
1,118,9,1,8,2,1,C,8,L,6,S,8,0.784613,0.272647,0.213922
1,119,2,8,8,1,1,I,6,S,7,L,15,0.590588,0.773034,0.456544
1,120,2,8,1,9,1,C,6,S,8,L,9,0.307425,0.794297,0.244187
1,121,8,1,1,8,1,I,7,L,7,L,12,0.763161,0.518214,0.395481
1,122,9,8,9,2,1,C,1,S,7,L,11,0.81545,0.35754,0.291556
1,123,9,8,8,2,1,C,1,S,6,S,11,0.801652,0.36577,0.29322
1,124,9,1,8,1,1,C,8,L,7,L,8,0.824248,0.243966,0.201089
1,125,8,9,9,8,1,I,1,S,1,S,25,0.603428,0.763465,0.460696
1,126,8,2,2,9,1,I,6,S,7,L,12,0.755215,0.497769,0.375922
1,127,9,8,1,8,0,I,1,S,7,L,13,0.471764,0.767528,0.362092
1,128,1,9,1,8,1,C,8,L,7,L,9,0.280927,0.832278,0.233809
1,129,1,2,2,8,1,C,1,S,6,S,11,0.398117,0.769887,0.306505
1,130,1,8,8,1,1,I,7,L,7,L,13,0.553388,0.771544,0.426963
1,131,9,1,2,8,1,I,8,L,6,S,11,0.792965,0.452759,0.359022
1,132,2,9,2,8,1,C,7,L,6,S,9,0.337636,0.753635,0.254454
1,133,1,2,9,1,0,I,1,S,8,L,11,0.785105,0.401558,0.315265
1,134,2,9,8,2,1,I,7,L,6,S,15,0.590974,0.750795,0.4437
1,135,2,1,1,9,1,I,1,S,8,L,14,0.755306,0.565109,0.426831
1,136,8,9,8,9,0,C,1,S,1,S,17,0.755653,0.504815,0.381464
1,137,8,9,1,2,1,C,1,S,1,S,16,0.465647,0.752509,0.350404
1,138,1,8,9,8,1,I,7,L,1,S,10,0.347132,0.807836,0.280426
1,139,8,2,1,8,1,I,6,S,7,L,14,0.774582,0.561875,0.435218
1,140,9,8,9,1,1,C,1,S,8,L,10,0.794028,0.349987,0.277899
1,141,9,1,2,1,1,C,8,L,1,S,8,0.766649,0.286002,0.219263
1,142,1,9,8,9,1,C,8,L,1,S,11,0.395905,0.796615,0.315384
1,143,9,1,1,2,1,I,8,L,1,S,9,0.775227,0.336968,0.261227
1,144,1,9,2,1,1,I,8,L,1,S,12,0.498978,0.759532,0.37899
2,1,1,8,8,9,1,C,7,L,1,S,11,0.425579,0.764432,0.325326
2,2,1,8,2,1,1,I,7,L,1,S,11,0.376818,0.80784,0.304409
2,3,9,8,2,9,1,I,1,S,7,L,20,0.766321,0.638931,0.489626
2,4,9,8,9,2,1,C,1,S,7,L,10,0.797357,0.344851,0.274969
2,5,8,1,2,9,1,I,7,L,7,L,13,0.763649,0.547383,0.418008
2,6,8,1,1,9,1,I,7,L,8,L,13,0.753306,0.559543,0.421507
2,7,1,8,2,8,1,C,7,L,6,S,9,0.301584,0.801522,0.241726
2,8,1,2,1,9,1,C,1,S,8,L,11,0.364809,0.808901,0.295094
2,9,1,9,2,8,1,C,8,L,6,S,9,0.27493,0.834925,0.229546
2,10,9,1,8,2,1,C,8,L,6,S,9,0.846725,0.272049,0.230351
2,11,8,2,1,2,1,I,6,S,1,S,11,0.787951,0.414066,0.326264
2,12,2,9,2,1,1,I,7,L,1,S,11,0.394514,0.782488,0.308703
2,13,8,2,2,9,1,I,6,S,7,L,13,0.774603,0.538308,0.416975
2,14,9,8,8,1,1,C,1,S,7,L,10,0.826141,0.322375,0.266327
2,15,9,1,2,8,1,I,8,L,6,S,13,0.782806,0.524617,0.410673
2,16,9,1,1,8,1,I,8,L,7,L,13,0.770678,0.539172,0.415528
2,17,2,8,2,9,1,C,6,S,7,L,9,0.343868,0.750689,0.258138
2,18,2,8,2,1,1,I,6,S,1,S,12,0.429289,0.770296,0.330679
2,19,1,9,2,9,1,C,8,L,7,L,9,0.265403,0.849818,0.225544
2,20,2,1,1,9,1,I,1,S,8,L,21,0.763863,0.648014,0.494994
2,21,1,9,2,1,1,I,8,L,1,S,10,0.364802,0.782954,0.285623
2,22,1,2,2,9,1,C,1,S,7,L,11,0.375181,0.796293,0.298754
2,23,9,1,8,1,1,C,8,L,7,L,8,0.754628,0.296057,0.223413
2,24,8,2,2,1,1,C,6,S,1,S,10,0.808408,0.340183,0.275007
2,25,1,8,9,1,1,I,7,L,8,L,14,0.583465,0.757207,0.441804
2,26,9,1,1,2,1,I,8,L,1,S,11,0.783085,0.418929,0.328057
2,27,8,9,2,8,1,C,1,S,6,S,11,0.408189,0.753619,0.307619
2,28,2,8,1,9,1,C,6,S,8,L,9,0.334688,0.761745,0.254947
2,29,9,2,9,8,1,C,7,L,1,S,9,0.762976,0.334663,0.25534
2,30,1,8,9,8,1,I,7,L,1,S,11,0.430443,0.760854,0.327505
2,31,9,2,1,9,1,I,7,L,8,L,13,0.770208,0.546419,0.420856
2,32,2,1,8,9,1,I,1,S,1,S,12,0.813296,0.375342,0.305264
2,33,2,1,2,9,1,I,1,S,7,L,21,0.769863,0.642029,0.494275
2,34,1,8,1,9,1,C,7,L,8,L,9,0.282877,0.82747,0.234072
2,35,2,9,8,9,1,C,7,L,1,S,12,0.439766,0.784154,0.344845
2,36,9,2,8,1,1,C,7,L,7,L,8,0.762564,0.289409,0.220693
2,37,9,8,2,8,1,I,1,S,6,S,19,0.752652,0.638921,0.480885
2,38,1,2,1,8,1,C,1,S,7,L,11,0.375193,0.792956,0.297512
2,39,8,2,9,2,1,C,6,S,7,L,9,0.842721,0.274935,0.231694
2,40,9,1,2,9,1,I,8,L,7,L,13,0.77006,0.542989,0.418134
2,41,1,2,9,2,0,I,1,S,7,L,12,0.767858,0.438763,0.336908
2,42,2,9,8,2,1,I,7,L,6,S,15,0.587481,0.767953,0.451158
2,43,8,9,9,1,0,I,1,S,8,L,11,0.773998,0.40084,0.310249
2,44,9,8,8,2,1,C,1,S,6,S,10,0.806471,0.33692,0.271716
2,45,1,2,1,2,1,C,1,S,1,S,13,0.408407,0.792101,0.323499
2,46,9,8,9,8,1,C,1,S,1,S,11,0.7623,0.3933,0.299813
2,47,8,1,8,2,1,C,7,L,6,S,9,0.84137,0.275387,0.231703
2,48,8,2,9,8,1,C,6,S,1,S,9,0.757866,0.337806,0.256012
2,49,1,2,8,1,0,I,1,S,7,L,11,0.760183,0.418945,0.318475
2,50,8,2,8,9,1,I,6,S,1,S,9,0.755085,0.339903,0.256655
2,51,9,1,1,9,1,I,8,L,8,L,13,0.759717,0.55515,0.421757
2,52,1,9,1,9,1,C,8,L,8,L,8,0.293407,0.750781,0.220285
2,53,9,8,2,1,1,C,1,S,1,S,12,0.768698,0.413491,0.31785
2,54,9,1,8,9,1,I,8,L,1,S,9,0.750781,0.344384,0.258556
2,55,2,8,2,8,1,C,6,S,6,S,10,0.319264,0.82626,0.263795
2,56,2,9,9,2,1,I,7,L,7,L,15,0.579631,0.775347,0.449416
2,57,8,9,1,2,1,C,1,S,1,S,14,0.422082,0.794164,0.335203
2,58,1,8,2,9,1,C,7,L,7,L,9,0.292057,0.816415,0.238439
2,59,2,1,8,2,1,C,1,S,6,S,10,0.794572,0.348223,0.276688
2,60,8,2,1,8,1,I,6,S,7,L,13,0.775221,0.534491,0.414348
2,61,2,1,9,1,1,C,1,S,8,L,10,0.807019,0.340131,0.274492
2,62,9,8,1,2,1,I,1,S,1,S,16,0.755573,0.564211,0.426302
2,63,2,8,9,1,1,I,6,S,8,L,18,0.62663,0.772024,0.483773
2,64,2,1,1,2,1,I,1,S,1,S,17,0.75617,0.582355,0.440359
2,65,9,8,1,8,1,I,1,S,7,L,20,0.768037,0.634531,0.487343
2,66,8,1,9,2,1,C,7,L,7,L,9,0.833062,0.282754,0.235552
2,67,9,2,2,1,1,C,7,L,1,S,10,0.814059,0.336631,0.274038
2,68,2,1,8,1,1,C,1,S,7,L,10,0.814242,0.333678,0.271694
2,69,8,2,2,8,1,I,6,S,6,S,12,0.754019,0.516243,0.389257
2,70,9,1,9,1,1,C,8,L,8,L,9,0.858152,0.264764,0.227208
2,71,1,9,9,1,1,I,8,L,8,L,13,0.552423,0.765438,0.422845
2,72,1,2,2,8,1,C,1,S,6,S,11,0.387084,0.778283,0.301261
2,73,9,2,9,1,1,C,7,L,8,L,8,0.756577,0.294997,0.223188
2,74,9,2,2,8,1,I,7,L,6,S,12,0.760043,0.512248,0.389331
2,75,1,9,1,2,1,C,8,L,1,S,9,0.326864,0.768932,0.251336
2,76,2,8,8,1,1,I,6,S,7,L,18,0.630778,0.767567,0.484164
2,77,9,8,9,1,1,C,1,S,8,L,10,0.818918,0.328828,0.269283
2,78,8,2,8,2,1,C,6,S,6,S,9,0.851029,0.267569,0.227709
2,79,8,9,1,9,1,C,1,S,8,L,11,0.385913,0.784237,0.302647
2,80,2,9,8,1,1,I,7,L,7,L,15,0.60491,0.753764,0.455959
2,81,9,8,1,9,1,I,1,S,8,L,20,0.759757,0.645594,0.490494
2,82,2,9,9,8,1,I,7,L,1,S,12,0.445722,0.779842,0.347593
2,83,2,9,2,9,1,C,7,L,7,L,9,0.306038,0.796277,0.243691
2,84,1,8,1,2,1,C,7,L,1,S,10,0.321346,0.823334,0.264575
2,85,1,8,8,2,1,I,7,L,6,S,14,0.571194,0.766,0.437535
2,86,2,1,1,8,1,I,1,S,7,L,21,0.771645,0.637599,0.492
2,87,1,2,8,2,0,I,1,S,6,S,12,0.777231,0.430508,0.334604
2,88,9,1,2,1,1,C,8,L,1,S,10,0.803686,0.344939,0.277223
2,89,9,2,2,9,1,I,7,L,7,L,13,0.780551,0.534258,0.417016
2,90,9,2,8,9,1,I,7,L,1,S,9,0.760195,0.33676,0.256003
2,91,2,9,9,1,1,I,7,L,8,L,15,0.599181,0.75941,0.455024
2,92,8,1,1,8,1,I,7,L,7,L,13,0.764267,0.543565,0.415429
2,93,2,8,8,2,1,I,6,S,6,S,17,0.626796,0.755509,0.47355
2,94,2,8,9,2,1,I,6,S,7,L,17,0.620319,0.761937,0.472644
2,95,8,1,9,8,1,C,7,L,1,S,10,0.83718,0.312613,0.261714
2,96,9,2,9,2,1,C,7,L,7,L,9,0.847831,0.271792,0.230434
2,97,8,9,2,9,1,C,1,S,7,L,11,0.396286,0.771629,0.305786
2,98,1,8,1,8,1,C,7,L,7,L,9,0.291409,0.813798,0.237148
2,99,8,9,1,8,1,C,1,S,7,L,11,0.396298,0.768293,0.304473
2,100,8,2,1,9,1,I,6,S,8,L,13,0.764259,0.550468,0.420701
2,101,1,2,9,8,1,I,1,S,1,S,24,0.641607,0.756516,0.485386
2,102,1,8,8,1,1,I,7,L,7,L,14,0.589719,0.751208,0.443002
2,103,2,8,1,2,1,C,6,S,1,S,11,0.346379,0.825266,0.285855
2,104,1,8,9,2,1,I,7,L,7,L,14,0.562706,0.773799,0.435421
2,105,1,9,8,1,1,I,8,L,7,L,13,0.55915,0.759146,0.424476
2,106,1,9,9,8,1,I,8,L,1,S,11,0.39958,0.799895,0.319622
2,107,8,9,8,1,0,I,1,S,7,L,11,0.781287,0.394282,0.308047
2,108,2,9,1,8,1,C,7,L,7,L,9,0.305389,0.793661,0.242376
2,109,9,8,8,9,1,I,1,S,1,S,11,0.757435,0.396878,0.300609
2,110,2,8,8,9,1,C,6,S,1,S,13,0.492308,0.753317,0.370864
2,111,8,9,9,8,0,I,1,S,1,S,15,0.762452,0.470625,0.358829
2,112,1,2,9,1,0,I,1,S,8,L,11,0.752893,0.425504,0.320359
2,113,8,1,9,1,1,C,7,L,8,L,9,0.852798,0.268102,0.228636
2,114,9,2,1,8,1,I,7,L,7,L,13,0.781169,0.530441,0.414364
2,115,9,1,9,8,1,C,8,L,1,S,9,0.753562,0.342287,0.257934
2,116,8,1,2,8,1,I,7,L,6,S,13,0.776394,0.529011,0.410721
2,117,8,9,2,1,1,I,1,S,1,S,28,0.643649,0.753015,0.484677
2,118,8,9,8,9,0,C,1,S,1,S,15,0.754572,0.476346,0.359438
2,119,9,2,8,2,1,C,7,L,6,S,9,0.856139,0.264426,0.226385
2,120,2,1,2,1,1,C,1,S,1,S,13,0.812191,0.395985,0.321616
2,121,8,2,9,1,1,C,6,S,8,L,8,0.75225,0.297614,0.22388
2,122,2,8,1,8,1,C,6,S,7,L,10,0.308029,0.840097,0.258774
2,123,8,1,8,9,1,I,7,L,1,S,10,0.833416,0.315428,0.262882
2,124,2,1,9,2,1,C,1,S,7,L,10,0.785457,0.356154,0.279744
2,125,2,1,9,8,1,C,1,S,1,S,12,0.819252,0.37103,0.303967
2,126,8,1,2,1,1,C,7,L,1,S,10,0.797698,0.348742,0.278191
2,127,8,9,9,2,0,I,1,S,7,L,11,0.751627,0.417669,0.313931
2,128,1,9,1,8,1,C,8,L,7,L,9,0.264755,0.847201,0.224301
2,129,1,9,8,9,1,C,8,L,1,S,11,0.394715,0.803473,0.317143
2,130,2,1,2,8,1,I,1,S,6,S,20,0.755848,0.644224,0.486935
2,131,2,8,9,8,1,I,6,S,1,S,14,0.498759,0.781982,0.390021
2,132,9,1,9,2,1,C,8,L,7,L,9,0.838417,0.279416,0.234267
2,133,1,9,8,2,1,I,8,L,6,S,13,0.539696,0.774357,0.417917
2,134,1,2,2,1,1,I,1,S,1,S,20,0.575094,0.751843,0.432381
2,135,9,2,1,2,1,I,7,L,1,S,11,0.793894,0.410232,0.325681
2,136,2,9,1,2,1,C,7,L,1,S,10,0.337472,0.800038,0.269991
2,137,1,2,8,9,1,C,1,S,1,S,24,0.636955,0.760415,0.48435
2,138,8,1,1,2,1,I,7,L,1,S,11,0.776737,0.423058,0.328605
2,139,2,9,1,9,1,C,7,L,8,L,9,0.296858,0.807333,0.239663
2,140,8,2,8,1,1,C,6,S,7,L,8,0.758237,0.292026,0.221425
2,141,8,9,8,2,0,I,1,S,6,S,11,0.761067,0.409453,0.311622
2,142,2,9,2,8,1,C,7,L,6,S,9,0.315565,0.781384,0.246577
2,143,8,1,8,1,1,C,7,L,7,L,8,0.750153,0.298809,0.224153
2,144,1,9,9,2,1,I,8,L,7,L,12,0.526613,0.750074,0.394999
3,1,2,9,9,8,1,I,7,L,1,S,11,0.376441,0.807113,0.30383
3,2,9,1,8,9,1,I,8,L,1,S,10,0.808983,0.343866,0.278181
3,3,2,9,1,2,1,C,7,L,1,S,10,0.310158,0.830301,0.257524
3,4,1,2,9,1,0,I,1,S,8,L,12,0.754714,0.465157,0.351061
3,5,2,1,9,2,1,C,1,S,7,L,10,0.794728,0.339416,0.269743
3,6,1,8,1,9,1,C,7,L,8,L,9,0.27236,0.839232,0.228573
3,7,8,9,1,9,1,C,1,S,8,L,10,0.352321,0.780189,0.274877
3,8,8,9,1,8,1,C,1,S,7,L,10,0.344589,0.791525,0.272751
3,9,1,9,1,2,1,C,8,L,1,S,9,0.324548,0.768895,0.249544
3,10,9,2,8,1,1,C,7,L,7,L,9,0.843256,0.271747,0.229152
3,11,2,1,1,2,1,I,1,S,1,S,17,0.766952,0.563771,0.432385
3,12,8,2,8,2,1,C,6,S,6,S,9,0.778483,0.316526,0.24641
3,13,9,2,1,2,1,I,7,L,1,S,11,0.783595,0.410842,0.321934
3,14,8,9,1,2,1,C,1,S,1,S,12,0.381528,0.794548,0.303143
3,15,2,8,2,8,1,C,6,S,6,S,9,0.29691,0.804,0.238716
3,16,8,9,8,9,1,C,1,S,1,S,13,0.427474,0.763702,0.326462
3,17,1,9,2,1,1,I,8,L,1,S,10,0.369003,0.778798,0.287378
3,18,2,8,2,1,1,I,6,S,1,S,11,0.399819,0.775142,0.309916
3,19,2,8,1,2,1,C,6,S,1,S,10,0.333955,0.798558,0.266682
3,20,9,8,9,8,1,C,1,S,1,S,12,0.762293,0.410913,0.313236
3,21,2,8,9,2,1,I,6,S,7,L,15,0.580565,0.771095,0.447671
3,22,9,1,1,8,1,I,8,L,7,L,12,0.752444,0.533968,0.401781
3,23,9,2,9,8,1,C,7,L,1,S,10,0.811952,0.331756,0.26937
3,24,8,2,9,2,1,C,6,S,7,L,9,0.806543,0.295495,0.238329
3,25,1,8,9,2,1,I,7,L,7,L,13,0.554701,0.751823,0.417037
3,26,2,9,1,8,1,C,7,L,7,L,9,0.265349,0.846851,0.224711
3,27,8,1,9,1,1,C,7,L,8,L,8,0.755468,0.292485,0.220963
3,28,1,9,9,1,1,I,8,L,8,L,13,0.558659,0.76193,0.425659
3,29,1,9,2,8,1,C,8,L,6,S,9,0.257688,0.858667,0.221268
3,30,8,1,2,8,1,I,7,L,6,S,13,0.762224,0.547035,0.416963
3,31,2,8,2,9,1,C,6,S,7,L,9,0.304913,0.792294,0.241581
3,32,1,8,9,1,1,I,7,L,8,L,14,0.579624,0.764347,0.443034
3,33,9,8,8,1,1,C,1,S,7,L,10,0.788262,0.348285,0.27454
3,34,9,2,2,9,1,I,7,L,7,L,13,0.773318,0.532392,0.411708
3,35,9,8,9,1,1,C,1,S,8,L,10,0.81392,0.329142,0.267895
3,36,8,2,9,1,1,C,6,S,8,L,9,0.829315,0.281614,0.233547
3,37,8,9,8,2,1,I,1,S,6,S,22,0.634194,0.770987,0.488955
3,38,2,9,1,9,1,C,7,L,8,L,9,0.272387,0.8364,0.227824
3,39,2,8,8,9,1,C,6,S,1,S,10,0.378329,0.751507,0.284317
3,40,9,8,1,2,1,I,1,S,1,S,17,0.75499,0.573582,0.433049
3,41,8,9,2,8,1,C,1,S,6,S,10,0.356093,0.775058,0.275993
3,42,9,8,2,1,1,C,1,S,1,S,12,0.759177,0.413778,0.314131
3,43,9,1,1,2,1,I,8,L,1,S,10,0.764608,0.390917,0.298898
3,44,8,1,9,2,1,C,7,L,7,L,9,0.84319,0.268838,0.226682
3,45,2,1,9,8,1,C,1,S,1,S,12,0.771352,0.403322,0.311103
3,46,8,2,2,1,1,C,6,S,1,S,10,0.767596,0.36444,0.279743
3,47,8,2,1,9,1,I,6,S,8,L,15,0.771214,0.583433,0.449952
3,48,8,2,8,9,1,I,6,S,1,S,11,0.795606,0.380111,0.302418
3,49,2,9,9,1,1,I,7,L,8,L,14,0.58101,0.760256,0.441717
3,50,8,9,8,1,1,I,1,S,7,L,22,0.654597,0.755478,0.494534
3,51,1,2,8,9,1,C,1,S,1,S,14,0.409785,0.802744,0.328953
3,52,8,2,2,9,1,I,6,S,7,L,14,0.757408,0.568109,0.43029
3,53,8,9,9,2,1,I,1,S,7,L,22,0.651745,0.755535,0.492416
3,54,8,1,1,9,1,I,7,L,8,L,13,0.758196,0.552235,0.418703
3,55,8,1,2,9,1,I,7,L,7,L,13,0.772207,0.533348,0.411855
3,56,9,8,2,9,1,I,1,S,7,L,21,0.767455,0.636286,0.488321
3,57,8,2,1,2,1,I,6,S,1,S,12,0.782314,0.441837,0.345655
3,58,8,2,2,8,1,I,6,S,6,S,15,0.774999,0.578746,0.448527
3,59,9,2,9,1,1,C,7,L,8,L,8,0.756308,0.291743,0.220648
3,60,9,8,1,8,1,I,1,S,7,L,21,0.752623,0.6546,0.492667
3,61,1,9,9,8,1,I,8,L,1,S,10,0.370633,0.777114,0.288024
3,62,8,1,8,2,1,C,7,L,6,S,9,0.81513,0.289869,0.236281
3,63,9,8,1,9,1,I,1,S,8,L,21,0.758202,0.647559,0.49098
3,64,1,2,2,1,1,I,1,S,1,S,17,0.520434,0.774221,0.402931
3,65,8,2,9,8,1,C,6,S,1,S,10,0.769227,0.362756,0.279042
3,66,1,8,8,2,1,I,7,L,6,S,13,0.520851,0.77798,0.405212
3,67,2,9,9,2,1,I,7,L,7,L,14,0.556471,0.777296,0.432543
3,68,2,9,8,2,1,I,7,L,6,S,13,0.522041,0.773993,0.404056
3,69,8,9,2,1,1,I,1,S,1,S,16,0.504251,0.770045,0.388296
3,70,8,1,1,8,1,I,7,L,7,L,14,0.779191,0.563583,0.439139
3,71,2,8,1,9,1,C,6,S,8,L,9,0.293466,0.808687,0.237323
3,72,9,1,9,2,1,C,8,L,7,L,8,0.762953,0.284585,0.217125
3,73,2,8,8,2,1,I,6,S,6,S,14,0.550514,0.769293,0.423506
3,74,9,2,8,2,1,C,7,L,6,S,9,0.81613,0.289023,0.23588
3,75,9,2,2,1,1,C,7,L,1,S,10,0.810322,0.33344,0.270194
3,76,1,2,1,9,1,C,1,S,8,L,10,0.360844,0.772363,0.278703
3,77,1,9,8,2,1,I,8,L,6,S,12,0.495433,0.772405,0.382675
3,78,2,9,2,8,1,C,7,L,6,S,9,0.27583,0.831712,0.229412
3,79,1,8,2,1,1,I,7,L,1,S,10,0.388923,0.752168,0.292536
3,80,1,2,1,8,1,C,1,S,7,L,10,0.353112,0.783699,0.276734
3,81,8,1,1,2,1,I,7,L,1,S,11,0.782446,0.4118,0.322211
3,82,2,1,2,8,1,I,1,S,6,S,21,0.769652,0.636646,0.489996
3,83,9,1,8,2,1,C,8,L,6,S,9,0.846798,0.2672,0.226264
3,84,9,8,8,9,1,I,1,S,1,S,14,0.777648,0.446855,0.347496
3,85,1,8,2,9,1,C,7,L,7,L,9,0.283807,0.822839,0.233527
3,86,9,1,2,8,1,I,8,L,6,S,12,0.764843,0.516901,0.395348
3,87,1,9,1,8,1,C,8,L,7,L,8,0.285583,0.761947,0.217599
3,88,2,1,2,9,1,I,1,S,7,L,20,0.754084,0.641868,0.484022
3,89,2,8,9,1,1,I,6,S,8,L,15,0.604043,0.754482,0.45574
3,90,9,2,2,8,1,I,7,L,6,S,13,0.763335,0.546079,0.416841
3,91,1,9,8,9,1,C,8,L,1,S,10,0.334258,0.813124,0.271793
3,92,2,1,8,2,1,C,1,S,6,S,10,0.76307,0.362935,0.276945
3,93,8,2,1,8,1,I,6,S,7,L,15,0.763295,0.593868,0.453297
3,94,9,8,2,8,1,I,1,S,6,S,21,0.76075,0.644613,0.490389
3,95,9,2,1,9,1,I,7,L,8,L,13,0.759307,0.551279,0.41859
3,96,8,9,9,8,1,I,1,S,1,S,16,0.511134,0.764588,0.390807
3,97,1,2,9,2,0,I,1,S,7,L,14,0.75724,0.514402,0.389526
3,98,1,8,1,2,1,C,7,L,1,S,10,0.309804,0.833546,0.258236
3,99,1,9,1,9,1,C,8,L,8,L,8,0.291662,0.752907,0.219595
3,100,2,8,8,1,1,I,6,S,7,L,15,0.581228,0.773185,0.449397
3,101,2,1,1,9,1,I,1,S,8,L,21,0.767104,0.639591,0.490633
3,102,1,9,9,2,1,I,8,L,7,L,13,0.533281,0.779153,0.415508
3,103,9,1,8,1,1,C,8,L,7,L,8,0.76217,0.288266,0.219707
3,104,2,9,8,9,1,C,7,L,1,S,10,0.354532,0.783249,0.277687
3,105,9,1,9,8,1,C,8,L,1,S,9,0.762137,0.336164,0.256203
3,106,9,1,2,1,1,C,8,L,1,S,9,0.761012,0.337408,0.256771
3,107,2,1,1,8,1,I,1,S,7,L,21,0.761525,0.646633,0.492427
3,108,8,1,9,8,1,C,7,L,1,S,10,0.81085,0.332674,0.269749
3,109,8,9,9,1,0,I,1,S,8,L,13,0.757336,0.496028,0.37566
3,110,1,9,8,1,1,I,8,L,7,L,13,0.533178,0.781989,0.416939
3,111,1,2,8,1,0,I,1,S,7,L,14,0.757516,0.516869,0.391536
3,112,9,2,9,2,1,C,7,L,7,L,9,0.84419,0.267992,0.226236
3,113,9,1,1,9,1,I,8,L,8,L,12,0.760796,0.522239,0.397317
3,114,2,8,9,8,1,I,6,S,1,S,11,0.402109,0.772915,0.310796
3,115,2,9,2,1,1,I,7,L,1,S,11,0.374151,0.809339,0.302815
3,116,2,1,8,9,1,I,1,S,1,S,14,0.789284,0.437547,0.345349
3,117,1,8,2,8,1,C,7,L,6,S,9,0.275804,0.834544,0.23017
3,118,2,8,1,8,1,C,6,S,7,L,9,0.286429,0.819139,0.234625
3,119,1,2,2,8,1,C,1,S,6,S,10,0.364616,0.767232,0.279745
3,120,8,1,8,9,1,I,7,L,1,S,10,0.774474,0.368685,0.285537
3,121,2,1,8,1,1,C,1,S,7,L,10,0.793821,0.343088,0.27235
3,122,9,8,9,2,1,C,1,S,7,L,10,0.789169,0.344613,0.271958
3,123,2,1,9,1,1,C,1,S,8,L,10,0.819479,0.323945,0.265466
3,124,9,1,2,9,1,I,8,L,7,L,12,0.774753,0.503002,0.389702
3,125,1,8,1,8,1,C,7,L,7,L,9,0.265322,0.849683,0.22544
3,126,1,2,8,2,1,I,1,S,6,S,22,0.649798,0.754121,0.490026
3,127,9,2,1,8,1,I,7,L,7,L,13,0.750961,0.562731,0.422589
3,128,1,8,8,1,1,I,7,L,7,L,13,0.554598,0.754658,0.418532
3,129,9,8,8,2,1,C,1,S,6,S,10,0.757511,0.368132,0.278864
3,130,1,2,2,9,1,C,1,S,7,L,10,0.373566,0.754217,0.28175
3,131,1,2,1,2,1,C,1,S,1,S,12,0.39462,0.780456,0.307984
3,132,2,9,8,1,1,I,7,L,7,L,13,0.555787,0.750671,0.417214
3,133,9,2,8,9,1,I,7,L,1,S,10,0.775577,0.367767,0.285231
3,134,8,9,2,9,1,C,1,S,7,L,10,0.365043,0.762043,0.278179
3,135,9,1,9,1,1,C,8,L,8,L,8,0.782658,0.272814,0.21352
3,136,8,1,2,1,1,C,7,L,1,S,10,0.809219,0.334358,0.270569
3,137,8,2,8,1,1,C,6,S,7,L,9,0.80561,0.299249,0.241078
3,138,1,8,8,9,1,C,7,L,1,S,10,0.354178,0.786495,0.278559
3,139,2,9,2,9,1,C,7,L,7,L,9,0.283834,0.820007,0.232745
3,140,8,1,8,1,1,C,7,L,7,L,9,0.842257,0.272593,0.229593
3,141,1,9,2,9,1,C,8,L,7,L,9,0.265691,0.846961,0.22503
3,142,1,8,9,8,1,I,7,L,1,S,10,0.390554,0.750484,0.293104
3,143,1,2,9,8,1,I,1,S,1,S,17,0.527816,0.768406,0.405577
3,144,2,1,2,1,1,C,1,S,1,S,12,0.768236,0.406188,0.312048
4,1,8,2,2,8,1,I,6,S,6,S,12,0.75774,0.488811,0.370392
4,2,2,9,8,2,1,I,7,L,6,S,13,0.533889,0.760728,0.406144
4,3,8,1,9,2,1,C,7,L,7,L,8,0.769083,0.283638,0.218141
4,4,8,9,8,9,0,C,1,S,1,S,13,0.76165,0.435345,0.33158
4,5,9,2,1,9,1,I,7,L,8,L,14,0.776519,0.556419,0.43207
4,6,2,8,9,2,1,I,6,S,7,L,13,0.539613,0.772436,0.416816
4,7,1,9,2,9,1,C,8,L,7,L,9,0.313698,0.782357,0.245424
4,8,8,2,9,8,1,C,6,S,1,S,10,0.834021,0.311816,0.260061
4,9,8,9,9,1,0,I,1,S,8,L,10,0.803673,0.338959,0.272412
4,10,2,1,2,9,1,I,1,S,7,L,21,0.770798,0.629088,0.4849
4,11,8,9,9,8,0,I,1,S,1,S,11,0.763327,0.392707,0.299764
4,12,1,2,8,2,1,I,1,S,6,S,22,0.633902,0.768587,0.487209
4,13,1,9,9,8,1,I,8,L,1,S,12,0.451627,0.785547,0.354775
4,14,9,1,2,8,1,I,8,L,6,S,11,0.791106,0.434334,0.343604
4,15,9,2,2,1,1,C,7,L,1,S,10,0.821133,0.321507,0.264
4,16,8,1,2,9,1,I,7,L,7,L,11,0.77066,0.459829,0.354372
4,17,9,1,2,9,1,I,8,L,7,L,11,0.771949,0.460659,0.355605
4,18,2,9,9,8,1,I,7,L,1,S,12,0.446883,0.792376,0.3541
4,19,8,1,8,2,1,C,7,L,6,S,8,0.750533,0.294383,0.220944
4,20,8,1,9,8,1,C,7,L,1,S,9,0.805916,0.30311,0.244281
4,21,8,2,9,1,1,C,6,S,8,L,9,0.835519,0.276495,0.231017
4,22,8,1,1,2,1,I,7,L,1,S,10,0.803415,0.352461,0.283173
4,23,9,8,8,9,1,I,1,S,1,S,18,0.771732,0.467694,0.360934
4,24,8,2,2,1,1,C,6,S,1,S,10,0.820807,0.319674,0.262391
4,25,9,1,2,1,1,C,8,L,1,S,9,0.796814,0.30995,0.246972
4,26,2,9,8,9,1,C,7,L,1,S,10,0.372734,0.761873,0.283976
4,27,2,1,8,9,1,I,1,S,1,S,14,0.801075,0.415008,0.332453
4,28,9,8,1,9,0,I,1,S,8,L,12,0.423297,0.781591,0.330845
4,29,8,2,1,8,1,I,6,S,7,L,13,0.760766,0.534394,0.406549
4,30,9,2,8,9,1,I,7,L,1,S,10,0.761231,0.374474,0.285061
4,31,9,8,8,2,1,C,1,S,6,S,11,0.760248,0.404332,0.307393
4,32,2,8,8,1,1,I,6,S,7,L,13,0.533992,0.774744,0.413707
4,33,1,9,2,8,1,C,8,L,6,S,9,0.328085,0.763114,0.250366
4,34,1,8,8,1,1,I,7,L,7,L,13,0.537952,0.769152,0.413767
4,35,9,2,2,9,1,I,7,L,7,L,13,0.771747,0.522351,0.403123
4,36,2,8,2,9,1,C,6,S,7,L,9,0.292309,0.813132,0.237686
4,37,1,9,9,1,1,I,8,L,8,L,14,0.584833,0.752326,0.439985
4,38,8,1,1,9,1,I,7,L,8,L,12,0.784523,0.498764,0.391292
4,39,2,8,9,8,1,I,6,S,1,S,11,0.425196,0.779748,0.331546
4,40,8,1,2,1,1,C,7,L,1,S,9,0.795869,0.308747,0.245722
4,41,9,2,8,2,1,C,7,L,6,S,9,0.797188,0.302589,0.24122
4,42,9,8,9,1,1,C,1,S,8,L,11,0.805901,0.374558,0.301857
4,43,1,8,8,9,1,C,7,L,1,S,10,0.356309,0.784994,0.2797
4,44,9,2,9,1,1,C,7,L,8,L,9,0.835763,0.278422,0.232694
4,45,2,8,1,9,1,C,6,S,8,L,9,0.273188,0.839305,0.229288
4,46,1,8,1,9,1,C,7,L,8,L,9,0.276332,0.834497,0.230598
4,47,9,2,9,2,1,C,7,L,7,L,9,0.819652,0.289274,0.237104
4,48,8,1,1,8,1,I,7,L,7,L,11,0.761244,0.472549,0.359725
4,49,9,8,9,8,1,C,1,S,1,S,13,0.785958,0.421148,0.331005
4,50,8,1,8,1,1,C,7,L,7,L,8,0.76547,0.284086,0.21746
4,51,1,9,2,1,1,I,8,L,1,S,11,0.434502,0.753158,0.327249
4,52,9,1,8,9,1,I,8,L,1,S,9,0.754081,0.348435,0.262748
4,53,9,2,1,8,1,I,7,L,7,L,13,0.761647,0.535627,0.407959
4,54,9,8,2,9,0,I,1,S,7,L,13,0.439933,0.783615,0.344739
4,55,2,1,9,1,1,C,1,S,8,L,10,0.797494,0.341818,0.272598
4,56,2,8,8,2,1,I,6,S,6,S,12,0.507805,0.757588,0.384707
4,57,2,1,8,2,1,C,1,S,6,S,10,0.754421,0.369278,0.278591
4,58,1,2,9,8,1,I,1,S,1,S,19,0.613897,0.750818,0.460925
4,59,9,1,8,1,1,C,8,L,7,L,8,0.766269,0.285419,0.218708
4,60,9,1,1,2,1,I,8,L,1,S,10,0.804528,0.353489,0.284392
4,61,9,2,2,8,1,I,7,L,6,S,12,0.758406,0.490275,0.371828
4,62,1,8,9,2,1,I,7,L,7,L,13,0.543573,0.766844,0.416836
4,63,2,8,2,1,1,I,6,S,1,S,11,0.40859,0.789922,0.322754
4,64,1,9,8,2,1,I,8,L,6,S,13,0.538731,0.753915,0.406157
4,65,2,8,1,2,1,C,6,S,1,S,10,0.326791,0.817442,0.267133
4,66,8,9,1,2,0,C,1,S,1,S,15,0.766232,0.494004,0.378521
4,67,2,9,9,1,1,I,7,L,8,L,14,0.580007,0.758963,0.440204
4,68,1,9,1,9,1,C,8,L,8,L,9,0.294577,0.808531,0.238174
4,69,1,8,9,1,1,I,7,L,8,L,13,0.561635,0.753702,0.423306
4,70,9,8,8,1,1,C,1,S,7,L,11,0.782299,0.389057,0.304359
4,71,9,2,1,2,1,I,7,L,1,S,11,0.794253,0.387888,0.308081
4,72,2,9,2,8,1,C,7,L,6,S,9,0.324486,0.768489,0.249364
4,73,1,8,2,8,1,C,7,L,6,S,9,0.30984,0.78908,0.244489
4,74,9,8,1,2,1,I,1,S,1,S,25,0.759821,0.63104,0.479478
4,75,9,8,9,2,1,C,1,S,7,L,11,0.787537,0.387319,0.305028
4,76,9,1,9,1,1,C,8,L,8,L,8,0.783659,0.275696,0.216052
4,77,8,9,2,1,0,I,1,S,1,S,12,0.819436,0.366649,0.300446
4,78,9,1,1,8,1,I,8,L,7,L,11,0.762533,0.473379,0.360967
4,79,2,1,8,1,1,C,1,S,7,L,10,0.775019,0.355188,0.275277
4,80,2,9,1,8,1,C,7,L,7,L,9,0.302608,0.797674,0.241383
4,81,8,2,8,9,1,I,6,S,1,S,10,0.760905,0.372641,0.283545
4,82,9,8,2,8,0,I,1,S,6,S,13,0.461325,0.754796,0.348206
4,83,9,2,8,1,1,C,7,L,7,L,9,0.815363,0.290184,0.236605
4,84,9,8,1,8,0,I,1,S,7,L,12,0.438118,0.761319,0.333547
4,85,8,2,1,9,1,I,6,S,8,L,14,0.775416,0.555427,0.430687
4,86,1,2,1,8,1,C,1,S,7,L,11,0.344442,0.82079,0.282714
4,87,8,9,1,9,0,C,1,S,8,L,21,0.767034,0.639676,0.490653
4,88,8,9,2,8,0,C,1,S,6,S,19,0.755008,0.624099,0.471199
4,89,2,1,1,9,1,I,1,S,8,L,21,0.754144,0.648695,0.48921
4,90,2,9,1,9,1,C,7,L,8,L,9,0.290977,0.813906,0.236828
4,91,8,2,1,2,1,I,6,S,1,S,11,0.793779,0.386217,0.306571
4,92,1,2,2,9,1,C,1,S,7,L,11,0.353857,0.80807,0.285941
4,93,1,2,2,1,1,I,1,S,1,S,19,0.591876,0.766763,0.453828
4,94,2,8,1,8,1,C,6,S,7,L,9,0.284819,0.823073,0.234427
4,95,1,2,2,8,1,C,1,S,6,S,11,0.373014,0.781745,0.291602
4,96,2,1,9,2,1,C,1,S,7,L,10,0.77986,0.353837,0.275944
4,97,1,8,8,2,1,I,7,L,6,S,12,0.511728,0.751914,0.384776
4,98,1,9,1,8,1,C,8,L,7,L,9,0.306208,0.792299,0.242608
4,99,8,9,2,9,0,C,1,S,7,L,20,0.761619,0.632773,0.481932
4,100,9,8,2,1,1,C,1,S,1,S,13,0.763647,0.435315,0.332427
4,101,8,2,9,2,1,C,6,S,7,L,9,0.819408,0.287348,0.235455
4,102,2,9,1,2,1,C,7,L,1,S,10,0.346742,0.788995,0.273578
4,103,2,9,2,9,1,C,7,L,7,L,9,0.310099,0.787732,0.244275
4,104,2,9,8,1,1,I,7,L,7,L,14,0.556972,0.77437,0.431302
4,105,1,9,8,1,1,I,8,L,7,L,14,0.561798,0.767733,0.431311
4,106,1,8,1,2,1,C,7,L,1,S,10,0.330318,0.812116,0.268256
4,107,2,1,9,8,1,C,1,S,1,S,11,0.755363,0.396827,0.299748
4,108,2,8,9,1,1,I,6,S,8,L,13,0.557674,0.759294,0.423439
4,109,1,8,1,8,1,C,7,L,7,L,9,0.287963,0.818265,0.23563
4,110,2,1,1,8,1,I,1,S,7,L,21,0.764098,0.636808,0.486584
4,111,1,2,8,9,1,C,1,S,1,S,14,0.427571,0.781832,0.334289
4,112,8,9,1,8,0,C,1,S,7,L,20,0.754362,0.641209,0.483704
4,113,1,9,1,2,1,C,8,L,1,S,10,0.350871,0.782852,0.27468
4,114,8,2,8,2,1,C,6,S,6,S,9,0.796944,0.300662,0.239611
4,115,8,1,8,9,1,I,7,L,1,S,9,0.753137,0.347232,0.261513
4,116,8,9,8,2,0,I,1,S,6,S,10,0.760601,0.366419,0.278698
4,117,8,1,2,8,1,I,7,L,6,S,11,0.789817,0.433504,0.342389
4,118,2,1,2,8,1,I,1,S,6,S,20,0.764278,0.622813,0.476002
4,119,1,8,2,1,1,I,7,L,1,S,11,0.412374,0.784319,0.323433
4,120,9,1,9,2,1,C,8,L,7,L,8,0.769882,0.284971,0.219394
4,121,8,2,8,1,1,C,6,S,7,L,9,0.815119,0.288257,0.234964
4,122,2,1,2,1,1,C,1,S,1,S,12,0.809534,0.372106,0.301233
4,123,2,9,9,2,1,I,7,L,7,L,14,0.562637,0.77188,0.434288
4,124,1,8,9,8,1,I,7,L,1,S,11,0.42898,0.774145,0.332093
4,125,1,2,1,9,1,C,1,S,8,L,10,0.362549,0.764453,0.277151
4,126,8,2,2,9,1,I,6,S,7,L,13,0.770866,0.521118,0.401712
4,127,9,1,1,9,1,I,8,L,8,L,12,0.785986,0.499389,0.392512
4,128,1,2,8,1,1,I,1,S,7,L,22,0.646748,0.758263,0.490405
4,129,1,9,8,9,1,C,8,L,1,S,10,0.376863,0.75573,0.284807
4,130,9,1,8,2,1,C,8,L,6,S,8,0.751332,0.295716,0.222181
4,131,9,2,9,8,1,C,7,L,1,S,10,0.834347,0.313649,0.261692
4,132,1,2,9,1,0,I,1,S,8,L,14,0.752956,0.5261,0.39613
4,133,8,9,9,2,0,I,1,S,7,L,10,0.786039,0.350978,0.275882
4,134,1,2,1,2,1,C,1,S,1,S,13,0.389652,0.803341,0.313024
4,135,2,1,1,2,1,I,1,S,1,S,15,0.751899,0.502722,0.377996
4,136,1,2,9,2,1,I,1,S,7,L,22,0.651834,0.755626,0.492543
4,137,8,1,9,1,1,C,7,L,8,L,8,0.78286,0.274363,0.214788
4,138,2,9,2,1,1,I,7,L,1,S,11,0.429991,0.759781,0.326699
4,139,8,9,8,1,0,I,1,S,7,L,10,0.781199,0.352328,0.275238
4,140,9,1,9,8,1,C,8,L,1,S,9,0.80686,0.304313,0.245538
4,141,2,8,8,9,1,C,6,S,1,S,10,0.352783,0.79032,0.278811
4,142,1,9,9,2,1,I,8,L,7,L,14,0.567463,0.765243,0.434247
4,143,1,8,2,9,1,C,7,L,7,L,9,0.295453,0.808324,0.238822
4,144,2,8,2,8,1,C,6,S,6,S,9,0.306696,0.793889,0.243483
5,1,1,9,1,9,1,C,8,L,8,L,8,0.28815,0.757757,0.218348
5,2,2,8,2,1,1,I,6,S,1,S,12,0.462192,0.758201,0.350434
5,3,9,2,9,2,1,C,7,L,7,L,9,0.854933,0.262387,0.224323
5,4,2,8,9,1,1,I,6,S,8,L,15,0.585088,0.762512,0.446137
5,5,1,2,1,9,1,C,1,S,8,L,10,0.324214,0.814814,0.264174
5,6,1,8,8,2,1,I,7,L,6,S,14,0.575876,0.761814,0.43871
5,7,1,2,1,2,1,C,1,S,1,S,12,0.413881,0.754371,0.31222
5,8,1,2,8,2,1,I,1,S,6,S,21,0.651923,0.753319,0.491106
5,9,1,8,1,2,1,C,7,L,1,S,10,0.350396,0.785542,0.27525
5,10,1,8,8,9,1,C,7,L,1,S,10,0.354055,0.782335,0.27699
5,11,8,2,2,9,1,I,6,S,7,L,14,0.75637,0.569166,0.4305
5,12,1,8,2,9,1,C,7,L,7,L,9,0.295178,0.809846,0.239049
5,13,1,2,8,1,1,I,1,S,7,L,21,0.64437,0.759352,0.489303
5,14,9,8,2,1,1,C,1,S,1,S,10,0.75578,0.371375,0.280678
5,15,2,1,9,2,1,C,1,S,7,L,11,0.813268,0.361547,0.294035
5,16,1,9,1,8,1,C,8,L,7,L,9,0.268157,0.844551,0.226472
5,17,1,9,1,2,1,C,8,L,1,S,10,0.333679,0.807785,0.269541
5,18,8,1,8,9,1,I,7,L,1,S,11,0.801684,0.379527,0.304261
5,19,1,8,2,8,1,C,7,L,6,S,9,0.321559,0.775556,0.249387
5,20,2,9,8,9,1,C,7,L,1,S,10,0.369701,0.763238,0.28217
5,21,8,9,1,8,1,C,1,S,7,L,11,0.38778,0.784,0.304019
5,22,8,2,8,9,1,I,6,S,1,S,11,0.779326,0.394319,0.307303
5,23,2,8,1,2,1,C,6,S,1,S,11,0.358867,0.810443,0.290841
5,24,1,8,9,2,1,I,7,L,7,L,14,0.55877,0.776435,0.433849
5,25,1,9,2,1,1,I,8,L,1,S,11,0.405716,0.790746,0.320819
5,26,8,2,2,1,1,C,6,S,1,S,10,0.793488,0.342419,0.271705
5,27,2,9,2,9,1,C,7,L,7,L,9,0.309172,0.793226,0.245243
5,28,9,2,2,8,1,I,7,L,6,S,11,0.758632,0.459688,0.348734
5,29,9,1,2,8,1,I,8,L,6,S,11,0.774169,0.449768,0.348196
5,30,8,1,9,1,1,C,7,L,8,L,9,0.801828,0.303005,0.242958
5,31,1,9,9,8,1,I,8,L,1,S,10,0.359319,0.785556,0.282266
5,32,2,1,9,1,1,C,1,S,8,L,11,0.797949,0.372367,0.29713
5,33,1,9,9,2,1,I,8,L,7,L,13,0.539746,0.770161,0.415691
5,34,1,8,9,1,1,I,7,L,8,L,13,0.542621,0.758108,0.411366
5,35,9,1,1,9,1,I,8,L,8,L,13,0.777031,0.54685,0.42492
5,36,1,8,1,9,1,C,7,L,8,L,9,0.26552,0.848679,0.225342
5,37,2,9,9,2,1,I,7,L,7,L,14,0.575735,0.75645,0.435515
5,38,8,9,9,2,0,I,1,S,7,L,12,0.792974,0.411939,0.326657
5,39,8,2,9,8,1,C,6,S,1,S,11,0.809092,0.367027,0.296959
5,40,1,2,9,1,1,I,1,S,8,L,21,0.633487,0.769806,0.487662
5,41,9,8,1,9,1,I,1,S,8,L,17,0.762293,0.623394,0.475209
5,42,9,8,1,8,1,I,1,S,7,L,16,0.754248,0.611367,0.461122
5,43,8,1,1,2,1,I,7,L,1,S,11,0.796868,0.384092,0.306071
5,44,8,9,9,8,1,I,1,S,1,S,20,0.486459,0.769976,0.374562
5,45,1,8,2,1,1,I,7,L,1,S,11,0.423506,0.767215,0.32492
5,46,2,8,8,9,1,C,6,S,1,S,11,0.363682,0.805879,0.293083
5,47,8,2,2,8,1,I,6,S,6,S,13,0.761695,0.521839,0.397482
5,48,1,9,2,8,1,C,8,L,6,S,9,0.306515,0.795405,0.243803
5,49,1,2,1,8,1,C,1,S,7,L,10,0.343349,0.788966,0.270891
5,50,8,1,2,8,1,I,7,L,6,S,12,0.750667,0.502071,0.376888
5,51,2,8,8,1,1,I,6,S,7,L,16,0.598218,0.772696,0.462241
5,52,2,9,1,8,1,C,7,L,7,L,9,0.297195,0.808082,0.240158
5,53,9,2,8,9,1,I,7,L,1,S,10,0.785052,0.361388,0.283708
5,54,1,2,2,9,1,C,1,S,7,L,10,0.356481,0.772455,0.275365
5,55,8,2,9,2,1,C,6,S,7,L,9,0.796929,0.30553,0.243485
5,56,9,1,8,9,1,I,8,L,1,S,10,0.800024,0.352099,0.281688
5,57,2,9,9,1,1,I,7,L,8,L,14,0.560789,0.767691,0.430513
5,58,8,9,2,8,1,C,1,S,6,S,12,0.415099,0.774927,0.321672
5,59,2,8,2,8,1,C,6,S,6,S,10,0.319595,0.826397,0.264112
5,60,8,9,2,9,1,C,1,S,7,L,11,0.4016,0.766673,0.307896
5,61,9,2,2,1,1,C,7,L,1,S,9,0.768597,0.32803,0.252123
5,62,2,1,8,2,1,C,1,S,6,S,10,0.763988,0.372541,0.284617
5,63,2,9,9,8,1,I,7,L,1,S,11,0.368972,0.810861,0.299185
5,64,8,1,2,9,1,I,7,L,7,L,14,0.779333,0.552895,0.430889
5,65,2,8,1,8,1,C,6,S,7,L,9,0.316319,0.783664,0.247888
5,66,8,2,1,9,1,I,6,S,8,L,15,0.751883,0.605443,0.455223
5,67,9,2,1,8,1,I,7,L,7,L,13,0.781687,0.531646,0.415581
5,68,2,9,1,2,1,C,7,L,1,S,10,0.366041,0.766445,0.280551
5,69,9,2,1,2,1,I,7,L,1,S,10,0.781393,0.364595,0.284892
5,70,8,2,1,2,1,I,6,S,1,S,11,0.774511,0.398884,0.30894
5,71,9,8,9,8,1,C,1,S,1,S,11,0.766668,0.399237,0.306082
5,72,1,9,8,9,1,C,8,L,1,S,10,0.337339,0.804578,0.271415
5,73,8,1,9,8,1,C,7,L,1,S,10,0.762192,0.377261,0.287545
5,74,2,9,1,9,1,C,7,L,8,L,9,0.279514,0.832059,0.232572
5,75,2,1,1,8,0,I,1,S,7,L,12,0.454541,0.754914,0.343139
5,76,9,1,2,9,1,I,8,L,7,L,12,0.778673,0.500458,0.389693
5,77,8,9,8,9,1,C,1,S,1,S,16,0.441958,0.783637,0.346335
5,78,8,9,8,1,0,I,1,S,7,L,11,0.755173,0.41668,0.314665
5,79,9,2,1,9,1,I,7,L,8,L,13,0.761695,0.557197,0.424414
5,80,9,1,2,1,1,C,8,L,1,S,9,0.782387,0.319695,0.250125
5,81,9,8,8,9,1,I,1,S,1,S,12,0.789985,0.410476,0.324269
5,82,2,8,2,9,1,C,6,S,7,L,9,0.328295,0.768808,0.252396
5,83,9,8,9,2,1,C,1,S,7,L,9,0.765625,0.330265,0.252859
5,84,8,1,8,1,1,C,7,L,7,L,9,0.820074,0.288221,0.236362
5,85,8,1,9,2,1,C,7,L,7,L,9,0.814599,0.294109,0.239581
5,86,8,1,1,8,1,I,7,L,7,L,14,0.765709,0.569079,0.435749
5,87,9,2,9,8,1,C,7,L,1,S,10,0.807033,0.342367,0.276301
5,88,9,1,8,2,1,C,8,L,6,S,8,0.771858,0.280097,0.216195
5,89,9,2,2,9,1,I,7,L,7,L,12,0.763062,0.510716,0.389708
5,90,2,1,2,9,0,I,1,S,7,L,13,0.474271,0.761835,0.361316
5,91,8,9,2,1,0,I,1,S,1,S,16,0.768902,0.485771,0.37351
5,92,2,8,9,8,1,I,6,S,1,S,11,0.393448,0.778587,0.306333
5,93,2,8,9,2,1,I,6,S,7,L,15,0.599318,0.751587,0.45044
5,94,8,1,1,9,1,I,7,L,8,L,15,0.773995,0.589423,0.456211
5,95,9,2,8,2,1,C,7,L,6,S,8,0.759906,0.287166,0.218219
5,96,8,2,9,1,1,C,6,S,8,L,9,0.784158,0.314425,0.246559
5,97,2,1,9,8,1,C,1,S,1,S,15,0.771151,0.452098,0.348636
5,98,9,8,9,1,1,C,1,S,8,L,9,0.752854,0.33916,0.255338
5,99,1,8,1,8,1,C,7,L,7,L,9,0.283202,0.824703,0.233557
5,100,9,1,9,2,1,C,8,L,7,L,8,0.75776,0.291878,0.221174
5,101,2,1,2,1,1,C,1,S,1,S,13,0.809168,0.394023,0.318831
5,102,1,2,9,2,1,I,1,S,7,L,21,0.642777,0.762208,0.48993
5,103,8,1,2,1,1,C,7,L,1,S,10,0.81397,0.329075,0.267857
5,104,2,1,1,9,0,I,1,S,8,L,12,0.434345,0.781288,0.339348
5,105,1,9,9,1,1,I,8,L,8,L,13,0.524293,0.781529,0.40975
5,106,9,1,8,1,1,C,8,L,7,L,8,0.762363,0.286551,0.218456
5,107,9,8,8,2,1,C,1,S,6,S,9,0.782181,0.316858,0.24784
5,108,2,8,1,9,1,C,6,S,8,L,9,0.298638,0.807641,0.241192
5,109,1,9,8,2,1,I,8,L,6,S,13,0.557795,0.755066,0.421172
5,110,2,9,2,8,1,C,7,L,6,S,9,0.335553,0.758936,0.254663
5,111,2,8,8,2,1,I,6,S,6,S,16,0.608849,0.76447,0.465447
5,112,9,1,1,8,1,I,8,L,7,L,12,0.764589,0.517882,0.395967
5,113,8,9,1,2,1,C,1,S,1,S,15,0.462107,0.750203,0.346674
5,114,2,1,1,2,1,I,1,S,1,S,19,0.774011,0.549752,0.425514
5,115,1,9,2,9,1,C,8,L,7,L,9,0.280134,0.829695,0.232425
5,116,8,2,8,2,1,C,6,S,6,S,9,0.813485,0.292123,0.237637
5,117,2,1,2,8,1,I,1,S,6,S,24,0.771305,0.641704,0.494949
5,118,8,9,1,9,1,C,1,S,8,L,10,0.385236,0.752609,0.289932
5,119,1,8,9,8,1,I,7,L,1,S,10,0.376036,0.763313,0.287033
5,120,8,9,8,2,0,I,1,S,6,S,11,0.767769,0.407883,0.31316
5,121,1,2,9,8,1,I,1,S,1,S,13,0.438845,0.758336,0.332792
5,122,9,8,8,1,1,C,1,S,7,L,9,0.7711,0.324376,0.250126
5,123,2,1,8,9,1,I,1,S,1,S,18,0.76334,0.535174,0.40852
5,124,9,8,2,9,1,I,1,S,7,L,16,0.766603,0.597317,0.457905
5,125,2,9,8,2,1,I,7,L,6,S,15,0.589396,0.769787,0.453709
5,126,2,9,8,1,1,I,7,L,7,L,14,0.580949,0.75071,0.436124
5,127,1,2,2,1,1,I,1,S,1,S,17,0.565978,0.76173,0.431122
5,128,9,1,9,8,1,C,8,L,1,S,10,0.822005,0.333078,0.273791
5,129,9,1,9,1,1,C,8,L,8,L,9,0.855952,0.262948,0.22507
5,130,2,9,2,1,1,I,7,L,1,S,12,0.43628,0.792176,0.345611
5,131,9,2,8,1,1,C,7,L,7,L,8,0.750411,0.29362,0.220336
5,132,9,2,9,1,1,C,7,L,8,L,9,0.842162,0.271282,0.228464
5,133,8,2,1,8,1,I,6,S,7,L,15,0.770538,0.582559,0.448884
5,134,8,1,8,2,1,C,7,L,6,S,9,0.831155,0.280702,0.233307
5,135,9,8,1,2,1,I,1,S,1,S,12,0.783777,0.416773,0.326657
5,136,8,2,8,1,1,C,6,S,7,L,9,0.802404,0.299641,0.240433
5,137,9,1,1,2,1,I,8,L,1,S,10,0.796364,0.355306,0.282953
5,138,2,1,8,1,1,C,1,S,7,L,10,0.751879,0.380843,0.286348
5,139,8,9,9,1,0,I,1,S,8,L,12,0.777347,0.423186,0.328963
5,140,9,8,2,8,1,I,1,S,6,S,15,0.774838,0.558897,0.433055
5,141,1,2,2,8,1,C,1,S,6,S,11,0.354555,0.808357,0.286607
5,142,1,8,8,1,1,I,7,L,7,L,14,0.563985,0.770695,0.43466
5,143,1,2,8,9,1,C,1,S,1,S,13,0.386107,0.811129,0.313183
5,144,1,9,8,1,1,I,8,L,7,L,13,0.545424,0.764107,0.416762
6,1,9,2,2,9,1,I,7,L,7,L,12,0.778337,0.500997,0.389945
6,2,2,8,2,9,1,C,6,S,7,L,8,0.290273,0.761395,0.221013
6,3,1,8,1,9,1,C,7,L,8,L,8,0.240697,0.829302,0.19961
6,4,2,9,2,9,1,C,7,L,7,L,9,0.285207,0.826529,0.235732
6,5,1,9,1,8,1,C,8,L,7,L,8,0.27521,0.78082,0.214889
6,6,8,2,2,8,1,I,6,S,6,S,13,0.759257,0.530534,0.402812
6,7,8,2,9,1,1,C,6,S,8,L,9,0.80282,0.302631,0.242958
6,8,2,9,1,9,1,C,7,L,8,L,9,0.266259,0.851882,0.226821
6,9,2,1,8,2,1,C,1,S,6,S,11,0.756092,0.409124,0.309335
6,10,1,2,1,2,1,C,1,S,1,S,10,0.339573,0.798657,0.271202
6,11,9,8,1,8,0,I,1,S,7,L,12,0.419671,0.779736,0.327232
6,12,9,2,9,8,1,C,7,L,1,S,9,0.797657,0.30585,0.243963
6,13,8,9,8,9,1,C,1,S,1,S,15,0.456457,0.761175,0.347444
6,14,9,8,8,1,1,C,1,S,7,L,11,0.762818,0.400634,0.305611
6,15,8,9,2,1,1,I,1,S,1,S,19,0.557362,0.755597,0.421141
6,16,1,8,8,2,1,I,7,L,6,S,10,0.431185,0.767803,0.331065
6,17,1,2,8,1,1,I,1,S,7,L,14,0.552292,0.774619,0.427816
6,18,8,1,8,1,1,C,7,L,7,L,9,0.822976,0.288455,0.237391
6,19,8,2,9,2,1,C,6,S,7,L,9,0.802708,0.30306,0.243269
6,20,8,9,9,2,0,I,1,S,7,L,12,0.770332,0.43916,0.338299
6,21,2,9,8,1,1,I,7,L,7,L,13,0.526618,0.778855,0.410159
6,22,1,8,1,8,1,C,7,L,7,L,8,0.254748,0.810219,0.206402
6,23,2,8,1,8,1,C,6,S,7,L,8,0.288115,0.763534,0.219985
6,24,9,1,8,9,1,I,8,L,1,S,9,0.761205,0.344695,0.262384
6,25,1,2,2,8,1,C,1,S,6,S,9,0.325015,0.770766,0.250511
6,26,2,8,8,1,1,I,6,S,7,L,11,0.478902,0.758375,0.363188
6,27,8,2,8,2,1,C,6,S,6,S,9,0.785424,0.316181,0.248336
6,28,9,8,9,2,1,C,1,S,7,L,11,0.782922,0.385737,0.302002
6,29,1,9,8,1,1,I,8,L,7,L,11,0.463425,0.77859,0.360818
6,30,2,9,8,9,1,C,7,L,1,S,10,0.350982,0.79255,0.278171
6,31,9,2,8,9,1,I,7,L,1,S,10,0.808136,0.344019,0.278014
6,32,8,9,9,1,0,I,1,S,8,L,12,0.770384,0.438798,0.338043
6,33,8,1,8,2,1,C,7,L,6,S,9,0.822765,0.288975,0.237759
6,34,8,2,9,8,1,C,6,S,1,S,10,0.819526,0.32435,0.265813
6,35,9,8,8,9,1,I,1,S,1,S,23,0.767166,0.557227,0.427486
6,36,8,9,9,8,1,I,1,S,1,S,24,0.647427,0.758405,0.491012
6,37,8,2,2,1,1,C,6,S,1,S,10,0.756364,0.379998,0.287417
6,38,8,1,2,1,1,C,7,L,1,S,10,0.799128,0.349051,0.278937
6,39,9,1,2,1,1,C,8,L,1,S,9,0.778347,0.329567,0.256518
6,40,1,8,2,9,1,C,7,L,7,L,8,0.256907,0.80808,0.207601
6,41,1,9,8,2,1,I,8,L,6,S,11,0.463201,0.779105,0.360882
6,42,1,8,9,1,1,I,7,L,8,L,10,0.450574,0.75286,0.339219
6,43,2,1,8,9,1,I,1,S,1,S,28,0.771899,0.608243,0.469502
6,44,9,2,9,1,1,C,7,L,8,L,8,0.759098,0.288688,0.219142
6,45,2,1,2,1,1,C,1,S,1,S,17,0.786258,0.449166,0.35316
6,46,8,1,9,2,1,C,7,L,7,L,9,0.840049,0.275854,0.231731
6,47,1,2,8,9,1,C,1,S,1,S,10,0.372494,0.760971,0.283457
6,48,9,1,9,2,1,C,8,L,7,L,8,0.782353,0.272865,0.213477
6,49,1,8,2,1,1,I,7,L,1,S,9,0.319945,0.799171,0.255691
6,50,8,1,2,9,1,I,7,L,7,L,13,0.777739,0.532815,0.414391
6,51,9,1,1,2,1,I,8,L,1,S,10,0.803368,0.361835,0.290687
6,52,2,1,9,2,1,C,1,S,7,L,11,0.77642,0.393713,0.305686
6,53,2,8,8,9,1,C,6,S,1,S,9,0.339458,0.76329,0.259105
6,54,9,8,2,1,1,C,1,S,1,S,16,0.775865,0.448091,0.347658
6,55,1,9,2,8,1,C,8,L,6,S,8,0.29432,0.756748,0.222726
6,56,9,1,8,2,1,C,8,L,6,S,8,0.767948,0.284102,0.218176
6,57,1,2,2,1,1,I,1,S,1,S,11,0.379506,0.800872,0.303936
6,58,8,2,1,9,1,I,6,S,8,L,15,0.767044,0.593724,0.455412
6,59,1,9,9,2,1,I,8,L,7,L,11,0.483529,0.763694,0.369268
6,60,9,8,9,8,1,C,1,S,1,S,13,0.785614,0.416142,0.326927
6,61,9,1,8,1,1,C,8,L,7,L,8,0.768114,0.28361,0.217845
6,62,9,2,1,9,1,I,7,L,8,L,12,0.755511,0.530891,0.401094
6,63,1,8,9,8,1,I,7,L,1,S,9,0.365677,0.75705,0.276836
6,64,9,8,2,9,0,I,1,S,7,L,12,0.422551,0.776554,0.328134
6,65,2,8,2,8,1,C,6,S,6,S,9,0.27342,0.844251,0.230835
6,66,2,9,9,8,1,I,7,L,1,S,11,0.439682,0.76387,0.33586
6,67,8,9,1,8,1,C,1,S,7,L,11,0.38194,0.791342,0.302245
6,68,2,9,8,2,1,I,7,L,6,S,13,0.526462,0.779304,0.410274
6,69,9,1,2,9,1,I,8,L,7,L,11,0.769302,0.473804,0.364499
6,70,2,1,9,1,1,C,1,S,8,L,11,0.776505,0.393317,0.305413
6,71,1,8,8,9,1,C,7,L,1,S,9,0.302803,0.814299,0.246572
6,72,8,2,2,9,1,I,6,S,7,L,14,0.761225,0.569065,0.433186
6,73,8,2,1,8,1,I,6,S,7,L,14,0.758476,0.571989,0.43384
6,74,9,2,1,8,1,I,7,L,7,L,12,0.775457,0.504178,0.390969
6,75,1,2,2,9,1,C,1,S,7,L,9,0.304176,0.798565,0.242905
6,76,2,1,1,2,0,I,1,S,1,S,16,0.472647,0.772144,0.364952
6,77,9,2,2,8,1,I,7,L,6,S,11,0.767088,0.458537,0.351738
6,78,2,9,2,1,1,I,7,L,1,S,10,0.375085,0.770744,0.289094
6,79,1,9,1,9,1,C,8,L,8,L,8,0.261158,0.799903,0.208901
6,80,9,2,8,2,1,C,7,L,6,S,9,0.853081,0.264165,0.225354
6,81,8,1,1,9,1,I,7,L,8,L,13,0.754926,0.562093,0.424338
6,82,8,9,1,9,1,C,1,S,8,L,10,0.385821,0.753141,0.290578
6,83,2,1,2,9,0,I,1,S,7,L,12,0.413256,0.787183,0.325308
6,84,8,9,1,2,1,C,1,S,1,S,13,0.429894,0.768046,0.330179
6,85,2,1,8,1,1,C,1,S,7,L,11,0.756316,0.408609,0.309038
6,86,8,9,2,8,1,C,1,S,6,S,11,0.411291,0.75224,0.30939
6,87,1,9,2,9,1,C,8,L,7,L,8,0.277368,0.778681,0.215981
6,88,1,2,1,9,1,C,1,S,8,L,9,0.285228,0.823918,0.235005
6,89,2,8,9,2,1,I,6,S,7,L,12,0.505431,0.780771,0.394626
6,90,8,1,9,8,1,C,7,L,1,S,9,0.767342,0.330659,0.253729
6,91,8,9,2,9,1,C,1,S,7,L,11,0.384781,0.788187,0.303279
6,92,8,2,8,1,1,C,6,S,7,L,9,0.785635,0.31566,0.247994
6,93,1,9,2,1,1,I,8,L,1,S,9,0.342334,0.767335,0.262685
6,94,8,9,8,2,0,I,1,S,6,S,13,0.778041,0.455474,0.354377
6,95,8,2,8,9,1,I,6,S,1,S,11,0.796485,0.381344,0.303735
6,96,9,2,1,2,1,I,7,L,1,S,10,0.775214,0.381705,0.295903
6,97,9,8,8,2,1,C,1,S,6,S,11,0.762594,0.401149,0.305914
6,98,1,9,9,8,1,I,8,L,1,S,10,0.387617,0.784427,0.304057
6,99,2,1,9,8,1,C,1,S,1,S,13,0.772585,0.430225,0.332386
6,100,2,8,8,2,1,I,6,S,6,S,11,0.478679,0.75889,0.363264
6,101,1,2,8,2,1,I,1,S,6,S,14,0.552185,0.775023,0.427956
6,102,1,9,9,1,1,I,8,L,8,L,11,0.483614,0.763298,0.369142
6,103,2,8,1,9,1,C,6,S,8,L,8,0.274063,0.782617,0.214486
6,104,1,8,9,2,1,I,7,L,7,L,10,0.450467,0.753279,0.339327
6,105,9,1,2,8,1,I,8,L,6,S,11,0.795813,0.437858,0.348453
6,106,9,1,1,8,1,I,8,L,7,L,11,0.766461,0.476959,0.365571
6,107,8,2,1,2,1,I,6,S,1,S,11,0.751865,0.433215,0.325719
6,108,1,2,9,1,1,I,1,S,8,L,14,0.57146,0.759252,0.433882
6,109,1,8,1,2,1,C,7,L,1,S,9,0.279252,0.84105,0.234865
6,110,1,9,8,9,1,C,8,L,1,S,9,0.325191,0.782462,0.25445
6,111,2,8,1,2,1,C,6,S,1,S,9,0.315908,0.790041,0.24958
6,112,9,1,9,8,1,C,8,L,1,S,9,0.824079,0.287446,0.236878
6,113,2,9,1,8,1,C,7,L,7,L,9,0.282726,0.829161,0.234425
6,114,8,1,8,9,1,I,7,L,1,S,10,0.775026,0.370858,0.287424
6,115,2,9,9,2,1,I,7,L,7,L,13,0.546601,0.763489,0.417324
6,116,9,1,1,9,1,I,8,L,8,L,12,0.783932,0.509967,0.399779
6,117,9,8,1,2,0,I,1,S,1,S,17,0.50477,0.758669,0.382953
6,118,8,1,9,1,1,C,7,L,8,L,9,0.840161,0.275425,0.231401
6,119,9,8,2,8,0,I,1,S,6,S,13,0.439608,0.777031,0.341589
6,120,2,1,1,8,0,I,1,S,7,L,12,0.410376,0.790364,0.324346
6,121,2,1,1,9,0,I,1,S,8,L,11,0.404465,0.770567,0.311667
6,122,2,9,1,2,1,C,7,L,1,S,10,0.318061,0.830236,0.264065
6,123,2,8,9,8,1,I,6,S,1,S,10,0.402723,0.764338,0.307817
6,124,8,1,1,8,1,I,7,L,7,L,13,0.774895,0.535907,0.415272
6,125,9,8,1,9,0,I,1,S,8,L,11,0.410967,0.762592,0.3134
6,126,9,2,8,1,1,C,7,L,7,L,9,0.853291,0.263645,0.224966
6,127,2,8,9,1,1,I,6,S,8,L,12,0.505483,0.78041,0.394483
6,128,9,8,9,1,1,C,1,S,8,L,11,0.783007,0.385342,0.301726
6,129,2,9,2,8,1,C,7,L,6,S,9,0.306046,0.79873,0.244448
6,130,1,8,8,1,1,I,7,L,7,L,10,0.431415,0.767276,0.331014
6,131,2,8,2,1,1,I,6,S,1,S,10,0.339561,0.819987,0.278435
6,132,9,2,2,1,1,C,7,L,1,S,9,0.751925,0.347971,0.261648
6,133,1,8,2,8,1,C,7,L,6,S,8,0.273858,0.786147,0.215293
6,134,8,9,8,1,0,I,1,S,7,L,13,0.778198,0.455025,0.354099
6,135,9,2,9,2,1,C,7,L,7,L,8,0.759003,0.289109,0.219435
6,136,9,1,9,1,1,C,8,L,8,L,8,0.782448,0.272444,0.213173
6,137,1,2,1,8,1,C,1,S,7,L,9,0.301695,0.801198,0.241717
6,138,1,2,9,2,1,I,1,S,7,L,14,0.571493,0.759532,0.434067
6,139,8,1,2,8,1,I,7,L,6,S,12,0.772263,0.491609,0.379652
6,140,1,9,1,2,1,C,8,L,1,S,9,0.301641,0.809214,0.244092
6,141,2,9,9,1,1,I,7,L,8,L,13,0.546612,0.763167,0.417156
6,142,2,1,2,8,0,I,1,S,6,S,13,0.426579,0.791114,0.337473
6,143,1,2,9,8,1,I,1,S,1,S,12,0.465059,0.771724,0.358897
6,144,8,1,1,2,1,I,7,L,1,S,11,0.79795,0.399659,0.318908
7,1,2,9,1,9,1,C,7,L,8,L,9,0.273158,0.838544,0.229055
7,2,1,9,2,9,1,C,8,L,7,L,9,0.259241,0.854301,0.22147
7,3,1,9,9,1,1,I,8,L,8,L,13,0.538106,0.775389,0.417241
7,4,8,1,8,1,1,C,7,L,7,L,9,0.845182,0.268923,0.227289
7,5,1,8,8,2,1,I,7,L,6,S,13,0.514208,0.779848,0.401004
7,6,1,9,9,8,1,I,8,L,1,S,10,0.353312,0.791953,0.279807
7,7,1,2,8,1,0,I,1,S,7,L,13,0.760448,0.479968,0.364991
7,8,1,8,1,2,1,C,7,L,1,S,10,0.312639,0.834581,0.260923
7,9,8,9,2,8,1,C,1,S,6,S,11,0.37034,0.796697,0.295049
7,10,9,8,8,1,1,C,1,S,7,L,11,0.768593,0.405657,0.311785
7,11,1,9,2,8,1,C,8,L,6,S,9,0.263871,0.849387,0.224129
7,12,8,1,2,8,1,I,7,L,6,S,13,0.77658,0.533292,0.414144
7,13,1,8,2,8,1,C,7,L,6,S,9,0.287257,0.819582,0.235431
7,14,2,9,8,9,1,C,7,L,1,S,10,0.340419,0.799285,0.272092
7,15,1,2,1,2,1,C,1,S,1,S,12,0.402139,0.779835,0.313602
7,16,2,8,9,8,1,I,6,S,1,S,11,0.380581,0.795706,0.302831
7,17,9,2,8,1,1,C,7,L,7,L,9,0.806914,0.302992,0.244488
7,18,8,2,1,8,1,I,6,S,7,L,13,0.750608,0.557892,0.418758
7,19,8,2,8,9,1,I,6,S,1,S,11,0.808447,0.376769,0.304597
7,20,2,9,8,1,1,I,7,L,7,L,13,0.547319,0.759987,0.415956
7,21,2,9,9,2,1,I,7,L,7,L,13,0.517618,0.783314,0.405457
7,22,8,2,2,9,1,I,6,S,7,L,14,0.778338,0.558816,0.434948
7,23,8,2,8,1,1,C,6,S,7,L,9,0.824524,0.286663,0.23636
7,24,2,8,8,9,1,C,6,S,1,S,10,0.370813,0.760267,0.281917
7,25,9,1,2,8,1,I,8,L,6,S,13,0.760579,0.548298,0.417024
7,26,1,8,9,1,1,I,7,L,8,L,14,0.566191,0.770857,0.436452
7,27,9,8,9,1,1,C,1,S,8,L,11,0.777439,0.39978,0.310804
7,28,1,9,9,2,1,I,8,L,7,L,12,0.495207,0.772229,0.382413
7,29,1,9,2,1,1,I,8,L,1,S,10,0.350437,0.794784,0.278522
7,30,8,9,1,9,1,C,1,S,8,L,11,0.362826,0.806466,0.292607
7,31,9,2,1,9,1,I,7,L,8,L,14,0.755545,0.581542,0.439381
7,32,9,2,2,1,1,C,7,L,1,S,10,0.754817,0.384503,0.29023
7,33,1,8,9,2,1,I,7,L,7,L,13,0.527145,0.770696,0.406268
7,34,9,2,9,1,1,C,7,L,8,L,9,0.814486,0.298151,0.24284
7,35,8,2,9,1,1,C,6,S,8,L,9,0.832096,0.281822,0.234503
7,36,8,2,9,8,1,C,6,S,1,S,10,0.777767,0.363709,0.282881
7,37,1,8,1,9,1,C,7,L,8,L,9,0.28073,0.828094,0.232471
7,38,8,9,9,2,0,I,1,S,7,L,13,0.762189,0.461289,0.35159
7,39,8,2,1,2,1,I,6,S,1,S,11,0.76111,0.43891,0.334058
7,40,1,8,2,1,1,I,7,L,1,S,10,0.376147,0.761666,0.286499
7,41,8,9,8,2,0,I,1,S,6,S,14,0.771841,0.472751,0.364889
7,42,9,2,2,9,1,I,7,L,7,L,14,0.75818,0.577377,0.437756
7,43,2,1,9,8,1,C,1,S,1,S,13,0.762937,0.432265,0.329791
7,44,9,2,8,9,1,I,7,L,1,S,11,0.787033,0.395705,0.311433
7,45,2,8,9,2,1,I,6,S,7,L,14,0.553117,0.770984,0.426445
7,46,9,8,2,1,1,C,1,S,1,S,20,0.758075,0.481893,0.365311
7,47,8,1,8,2,1,C,7,L,6,S,9,0.811902,0.293704,0.238459
7,48,8,2,2,1,1,C,6,S,1,S,10,0.774892,0.36654,0.284029
7,49,2,9,2,1,1,I,7,L,1,S,10,0.367647,0.773449,0.284356
7,50,9,1,8,1,1,C,8,L,7,L,9,0.830446,0.282736,0.234797
7,51,9,8,2,9,0,I,1,S,7,L,11,0.408175,0.765656,0.312522
7,52,2,8,9,1,1,I,6,S,8,L,15,0.587526,0.769682,0.452208
7,53,1,8,2,9,1,C,7,L,7,L,9,0.282627,0.824496,0.233025
7,54,1,9,1,9,1,C,8,L,8,L,9,0.257344,0.857898,0.220775
7,55,1,9,1,2,1,C,8,L,1,S,9,0.323085,0.774195,0.250131
7,56,2,1,1,9,1,I,1,S,8,L,22,0.767098,0.644643,0.494505
7,57,1,8,9,8,1,I,7,L,1,S,10,0.379022,0.758834,0.287615
7,58,9,1,8,2,1,C,8,L,6,S,9,0.797167,0.307517,0.245142
7,59,2,1,1,8,1,I,1,S,7,L,22,0.769351,0.642966,0.494667
7,60,2,1,9,2,1,C,1,S,7,L,11,0.822719,0.348428,0.286658
7,61,2,1,2,1,1,C,1,S,1,S,13,0.755224,0.439648,0.332033
7,62,1,2,2,9,1,C,1,S,7,L,10,0.374734,0.756758,0.283582
7,63,2,9,2,8,1,C,7,L,6,S,9,0.279685,0.830032,0.232148
7,64,8,2,2,8,1,I,6,S,6,S,13,0.753397,0.55341,0.416938
7,65,9,1,2,9,1,I,8,L,7,L,13,0.755593,0.553574,0.418277
7,66,8,1,1,8,1,I,7,L,7,L,13,0.773791,0.537775,0.416125
7,67,9,8,1,2,0,I,1,S,1,S,14,0.454508,0.772915,0.351296
7,68,9,1,9,2,1,C,8,L,7,L,9,0.806413,0.301264,0.242943
7,69,1,9,8,1,1,I,8,L,7,L,13,0.529256,0.78157,0.41365
7,70,8,1,2,1,1,C,7,L,1,S,10,0.797778,0.347262,0.277038
7,71,8,1,1,9,1,I,7,L,8,L,13,0.768973,0.542826,0.417419
7,72,1,2,1,8,1,C,1,S,7,L,10,0.37737,0.755514,0.285108
7,73,9,2,9,2,1,C,7,L,7,L,9,0.782881,0.32152,0.251712
7,74,8,1,1,2,1,I,7,L,1,S,11,0.785022,0.418776,0.328748
7,75,9,1,1,2,1,I,8,L,1,S,11,0.768207,0.434082,0.333465
7,76,9,8,9,2,1,C,1,S,7,L,12,0.789621,0.410488,0.32413
7,77,2,1,2,9,1,I,1,S,7,L,22,0.769058,0.641696,0.493502
7,78,1,2,8,9,1,C,1,S,1,S,13,0.433649,0.754307,0.327105
7,79,2,9,2,9,1,C,7,L,7,L,9,0.275055,0.834947,0.229656
7,80,9,1,9,1,1,C,8,L,8,L,9,0.838019,0.277895,0.232881
7,81,2,9,1,8,1,C,7,L,7,L,9,0.27769,0.833753,0.231525
7,82,2,8,1,2,1,C,6,S,1,S,10,0.334533,0.807346,0.270084
7,83,1,8,1,8,1,C,7,L,7,L,9,0.285263,0.823302,0.234857
7,84,9,1,8,9,1,I,8,L,1,S,10,0.754331,0.387918,0.292619
7,85,8,9,8,9,1,C,1,S,1,S,14,0.435875,0.76263,0.332412
7,86,2,8,2,8,1,C,6,S,6,S,9,0.306725,0.795986,0.244149
7,87,8,1,9,2,1,C,7,L,7,L,9,0.821149,0.287451,0.23604
7,88,8,1,8,9,1,I,7,L,1,S,10,0.77055,0.373098,0.287491
7,89,2,1,8,9,1,I,1,S,1,S,15,0.756172,0.49578,0.374895
7,90,9,8,9,8,1,C,1,S,1,S,19,0.762596,0.477079,0.363818
7,91,2,1,1,2,1,I,1,S,1,S,19,0.769683,0.6006,0.462272
7,92,8,9,2,1,1,I,1,S,1,S,17,0.468885,0.770475,0.361264
7,93,1,2,2,8,1,C,1,S,6,S,10,0.379687,0.751368,0.285285
7,94,2,1,8,2,1,C,1,S,6,S,11,0.810601,0.356688,0.289131
7,95,2,9,1,2,1,C,7,L,1,S,9,0.338899,0.754841,0.255815
7,96,9,1,1,9,1,I,8,L,8,L,13,0.752973,0.557832,0.420032
7,97,9,8,8,2,1,C,1,S,6,S,12,0.776854,0.419333,0.32576
7,98,9,2,8,2,1,C,7,L,6,S,9,0.773634,0.327773,0.253577
7,99,2,1,8,1,1,C,1,S,7,L,10,0.774077,0.359788,0.278503
7,100,9,1,1,8,1,I,8,L,7,L,13,0.75779,0.55278,0.418891
7,101,8,1,2,9,1,I,7,L,7,L,13,0.771594,0.538569,0.415557
7,102,2,9,8,2,1,I,7,L,6,S,12,0.500696,0.758833,0.379945
7,103,1,2,9,2,0,I,1,S,7,L,15,0.752364,0.534972,0.402494
7,104,9,1,9,8,1,C,8,L,1,S,10,0.784434,0.359251,0.281808
7,105,1,8,8,1,1,I,7,L,7,L,14,0.557624,0.77698,0.433263
7,106,2,1,2,8,1,I,1,S,6,S,22,0.77141,0.639916,0.493637
7,107,2,9,9,8,1,I,7,L,1,S,10,0.370522,0.770617,0.285531
7,108,8,9,9,8,1,I,1,S,1,S,18,0.479634,0.780529,0.374368
7,109,9,8,1,8,0,I,1,S,7,L,11,0.410724,0.764482,0.313991
7,110,2,8,8,1,1,I,6,S,7,L,15,0.579342,0.77565,0.449366
7,111,2,8,1,9,1,C,6,S,8,L,9,0.300198,0.804498,0.241509
7,112,1,8,8,9,1,C,7,L,1,S,10,0.348919,0.787502,0.274775
7,113,8,2,8,2,1,C,6,S,6,S,9,0.791244,0.311444,0.246428
7,114,2,8,2,1,1,I,6,S,1,S,11,0.376541,0.799656,0.301103
7,115,8,9,1,2,1,C,1,S,1,S,13,0.395021,0.806966,0.318768
7,116,2,8,2,9,1,C,6,S,7,L,9,0.302095,0.800901,0.241948
7,117,1,2,8,2,1,I,1,S,6,S,23,0.650731,0.758271,0.49343
7,118,2,8,1,8,1,C,6,S,7,L,9,0.30473,0.799707,0.243695
7,119,9,1,2,1,1,C,8,L,1,S,10,0.781559,0.362082,0.282988
7,120,9,8,8,9,0,I,1,S,1,S,18,0.487103,0.76874,0.374455
7,121,9,8,1,9,0,I,1,S,8,L,11,0.405766,0.769854,0.31238
7,122,9,2,1,2,1,I,7,L,1,S,12,0.782959,0.457431,0.35815
7,123,8,2,9,2,1,C,6,S,7,L,9,0.800491,0.305191,0.244302
7,124,9,2,9,8,1,C,7,L,1,S,10,0.757692,0.381672,0.28919
7,125,1,9,1,8,1,C,8,L,7,L,9,0.261876,0.853107,0.223408
7,126,8,9,8,1,0,I,1,S,7,L,12,0.762494,0.439246,0.334923
7,127,8,9,2,9,1,C,1,S,7,L,11,0.365236,0.802268,0.293017
7,128,9,2,2,8,1,I,7,L,6,S,14,0.762959,0.572447,0.436754
7,129,9,8,2,8,0,I,1,S,6,S,11,0.413279,0.760085,0.314127
7,130,1,2,9,8,1,I,1,S,1,S,15,0.475271,0.75115,0.357
7,131,8,9,9,1,0,I,1,S,8,L,12,0.771464,0.433137,0.334149
7,132,1,2,1,9,1,C,1,S,8,L,10,0.372541,0.760736,0.283406
7,133,8,2,1,9,1,I,6,S,8,L,14,0.775702,0.562982,0.436706
7,134,8,9,1,8,1,C,1,S,7,L,11,0.367784,0.801095,0.29463
7,135,2,1,9,1,1,C,1,S,8,L,10,0.782476,0.35433,0.277255
7,136,1,2,9,1,0,I,1,S,8,L,13,0.769298,0.473787,0.364483
7,137,2,8,8,2,1,I,6,S,6,S,14,0.540379,0.780202,0.421604
7,138,1,2,2,1,1,I,1,S,1,S,15,0.461044,0.764323,0.352387
7,139,2,9,9,1,1,I,7,L,8,L,13,0.55617,0.753806,0.419244
7,140,1,9,8,2,1,I,8,L,6,S,12,0.48244,0.781074,0.376822
7,141,1,9,8,9,1,C,8,L,1,S,10,0.323209,0.820621,0.265232
7,142,8,1,9,8,1,C,7,L,1,S,10,0.800653,0.344431,0.275769
7,143,9,2,1,8,1,I,7,L,7,L,14,0.760152,0.576834,0.438482
7,144,8,1,9,1,1,C,7,L,8,L,9,0.852754,0.264082,0.225197
8,1,2,1,2,9,1,I,1,S,7,L,22,0.756147,0.652399,0.493309
8,2,1,8,8,2,1,I,7,L,6,S,12,0.478578,0.773586,0.370221
8,3,1,9,9,8,1,I,8,L,1,S,10,0.331402,0.814559,0.269946
8,4,1,9,8,1,1,I,8,L,7,L,13,0.530938,0.771751,0.409752
8,5,8,1,8,1,1,C,7,L,7,L,9,0.83211,0.280791,0.233649
8,6,1,2,9,1,0,I,1,S,8,L,15,0.754004,0.538253,0.405845
8,7,2,8,2,9,1,C,6,S,7,L,9,0.275254,0.836636,0.230288
8,8,2,9,2,8,1,C,7,L,6,S,9,0.282167,0.831043,0.234493
8,9,9,2,1,8,1,I,7,L,7,L,14,0.753854,0.581264,0.438188
8,10,8,1,2,8,1,I,7,L,6,S,12,0.754657,0.520531,0.392822
8,11,8,2,8,1,1,C,6,S,7,L,9,0.773835,0.32373,0.250514
8,12,2,1,9,1,1,C,1,S,8,L,10,0.752129,0.377952,0.284268
8,13,2,9,9,1,1,I,7,L,8,L,13,0.528037,0.780046,0.411893
8,14,8,2,1,2,1,I,6,S,1,S,12,0.763139,0.464612,0.354563
8,15,2,9,1,9,1,C,7,L,8,L,9,0.266169,0.850148,0.226284
8,16,1,8,2,9,1,C,7,L,7,L,9,0.281932,0.825693,0.232789
8,17,9,1,9,1,1,C,8,L,8,L,9,0.84822,0.270257,0.229238
8,18,2,9,9,8,1,I,7,L,1,S,10,0.323741,0.826841,0.267683
8,19,2,8,9,8,1,I,6,S,1,S,10,0.323919,0.825741,0.267474
8,20,1,9,1,9,1,C,8,L,8,L,9,0.272851,0.839211,0.22898
8,21,9,1,9,2,1,C,8,L,7,L,9,0.815467,0.295234,0.240754
8,22,1,8,1,9,1,C,7,L,8,L,9,0.272919,0.838235,0.22877
8,23,1,2,8,9,1,C,1,S,1,S,12,0.390699,0.790763,0.30895
8,24,2,1,1,8,0,I,1,S,7,L,14,0.528334,0.750416,0.39647
8,25,2,8,8,9,1,C,6,S,1,S,9,0.333635,0.761808,0.254166
8,26,9,1,1,8,1,I,8,L,7,L,12,0.755734,0.528148,0.399139
8,27,9,2,2,8,1,I,7,L,6,S,14,0.765511,0.566343,0.433542
8,28,8,9,8,2,0,I,1,S,6,S,14,0.76306,0.477672,0.364493
8,29,9,1,1,9,1,I,8,L,8,L,13,0.782301,0.536935,0.420045
8,30,8,9,2,8,1,C,1,S,6,S,11,0.385993,0.784125,0.302667
8,31,8,1,8,9,1,I,7,L,1,S,11,0.786319,0.419121,0.329563
8,32,8,9,8,9,1,C,1,S,1,S,13,0.406544,0.797448,0.324198
8,33,9,1,2,9,1,I,8,L,7,L,12,0.760061,0.519661,0.394974
8,34,2,1,8,9,1,I,1,S,1,S,20,0.770675,0.609564,0.469776
8,35,9,2,1,2,1,I,7,L,1,S,12,0.782255,0.452022,0.353597
8,36,8,9,8,1,0,I,1,S,7,L,12,0.753809,0.446743,0.336759
8,37,2,9,2,1,1,I,7,L,1,S,10,0.383686,0.761576,0.292206
8,38,8,9,1,8,1,C,1,S,7,L,11,0.374431,0.799847,0.299487
8,39,8,2,2,1,1,C,6,S,1,S,10,0.755437,0.374498,0.282909
8,40,1,2,2,1,1,I,1,S,1,S,17,0.529319,0.759819,0.402186
8,41,2,1,2,1,1,C,1,S,1,S,13,0.788942,0.407211,0.321266
8,42,9,2,8,1,1,C,7,L,7,L,9,0.787924,0.31494,0.248149
8,43,2,8,2,8,1,C,6,S,6,S,9,0.282239,0.830073,0.234279
8,44,1,9,2,9,1,C,8,L,7,L,9,0.281864,0.826669,0.233008
8,45,9,2,1,9,1,I,7,L,8,L,15,0.775976,0.582832,0.452264
8,46,2,8,9,1,1,I,6,S,8,L,13,0.528471,0.778734,0.411538
8,47,8,2,1,8,1,I,6,S,7,L,15,0.762853,0.5915,0.451228
8,48,1,8,2,1,1,I,7,L,1,S,11,0.375831,0.809034,0.30406
8,49,1,9,1,2,1,C,8,L,1,S,10,0.30944,0.838235,0.259383
8,50,8,1,8,2,1,C,7,L,6,S,9,0.798061,0.307022,0.245022
8,51,8,9,2,1,1,I,1,S,1,S,23,0.606897,0.766374,0.465109
8,52,8,2,9,1,1,C,6,S,8,L,9,0.778726,0.319689,0.24895
8,53,2,9,1,8,1,C,7,L,7,L,9,0.272342,0.844538,0.230003
8,54,8,1,9,8,1,C,7,L,1,S,10,0.761644,0.391378,0.298091
8,55,2,8,9,2,1,I,6,S,7,L,12,0.4795,0.779307,0.373678
8,56,2,8,8,1,1,I,6,S,7,L,12,0.518528,0.750386,0.389096
8,57,1,2,1,9,1,C,1,S,8,L,10,0.363101,0.770386,0.279728
8,58,1,8,1,2,1,C,7,L,1,S,10,0.309619,0.837117,0.259187
8,59,1,2,1,2,1,C,1,S,1,S,12,0.39647,0.783001,0.310436
8,60,2,1,8,1,1,C,1,S,7,L,11,0.820427,0.351866,0.288681
8,61,8,1,1,2,1,I,7,L,1,S,11,0.791304,0.412538,0.326443
8,62,1,9,2,1,1,I,8,L,1,S,11,0.375547,0.810263,0.304292
8,63,1,8,9,2,1,I,7,L,7,L,12,0.488299,0.765895,0.373986
8,64,9,2,2,9,1,I,7,L,7,L,14,0.758546,0.572806,0.4345
8,65,1,8,8,1,1,I,7,L,7,L,13,0.531391,0.770393,0.40938
8,66,8,1,2,9,1,I,7,L,7,L,13,0.780184,0.531286,0.414501
8,67,9,2,8,9,1,I,7,L,1,S,12,0.776484,0.459785,0.357015
8,68,1,2,8,2,1,I,1,S,6,S,22,0.640485,0.761014,0.487418
8,69,2,8,1,2,1,C,6,S,1,S,9,0.336809,0.757861,0.255254
8,70,9,8,8,1,1,C,1,S,7,L,12,0.795987,0.404189,0.321729
8,71,8,9,9,1,0,I,1,S,8,L,12,0.75996,0.44176,0.33572
8,72,1,2,9,2,1,I,1,S,7,L,22,0.645766,0.756042,0.488227
8,73,1,2,2,9,1,C,1,S,7,L,10,0.373005,0.756639,0.28223
8,74,8,9,1,2,1,C,1,S,1,S,13,0.412924,0.788817,0.325722
8,75,8,9,2,9,1,C,1,S,7,L,11,0.378395,0.791611,0.299542
8,76,1,2,9,8,1,I,1,S,1,S,13,0.393188,0.808974,0.318078
8,77,2,1,9,2,1,C,1,S,7,L,11,0.783468,0.379037,0.296963
8,78,8,1,9,2,1,C,7,L,7,L,9,0.804248,0.301726,0.242662
8,79,9,8,8,2,1,C,1,S,6,S,13,0.793781,0.42105,0.334222
8,80,8,2,2,8,1,I,6,S,6,S,15,0.774106,0.577387,0.446959
8,81,2,9,9,2,1,I,7,L,7,L,12,0.479137,0.780576,0.374002
8,82,2,9,1,2,1,C,7,L,1,S,9,0.336737,0.758831,0.255526
8,83,2,9,8,1,1,I,7,L,7,L,12,0.518165,0.751655,0.389481
8,84,8,1,1,9,1,I,7,L,8,L,13,0.769519,0.545305,0.419622
8,85,9,8,9,2,1,C,1,S,7,L,12,0.756958,0.43311,0.327846
8,86,9,1,2,8,1,I,8,L,6,S,12,0.76761,0.512286,0.393236
8,87,2,8,1,8,1,C,6,S,7,L,9,0.272413,0.843568,0.229799
8,88,8,2,9,8,1,C,6,S,1,S,12,0.795291,0.426152,0.338914
8,89,8,9,9,2,0,I,1,S,7,L,14,0.773084,0.469587,0.36303
8,90,2,8,2,1,1,I,6,S,1,S,10,0.383864,0.760476,0.291919
8,91,9,1,8,1,1,C,8,L,7,L,9,0.843329,0.274299,0.231324
8,92,8,1,9,1,1,C,7,L,8,L,9,0.837,0.276749,0.231639
8,93,2,9,8,2,1,I,7,L,6,S,12,0.469415,0.788266,0.370024
8,94,9,2,9,8,1,C,7,L,1,S,11,0.765877,0.421838,0.323076
8,95,9,8,2,8,0,I,1,S,6,S,11,0.41688,0.753599,0.31416
8,96,1,9,8,9,1,C,8,L,1,S,9,0.340245,0.751841,0.25581
8,97,1,2,2,8,1,C,1,S,6,S,11,0.352151,0.820222,0.288842
8,98,9,1,2,1,1,C,8,L,1,S,9,0.751951,0.346065,0.260224
8,99,1,8,8,9,1,C,7,L,1,S,9,0.340313,0.750865,0.255529
8,100,1,9,9,2,1,I,8,L,7,L,12,0.487924,0.767203,0.374336
8,101,8,1,1,8,1,I,7,L,7,L,13,0.77562,0.539828,0.418701
8,102,1,9,2,8,1,C,8,L,6,S,9,0.288849,0.820105,0.236886
8,103,2,1,8,2,1,C,1,S,6,S,11,0.774537,0.386159,0.299094
8,104,9,8,2,1,1,C,1,S,1,S,16,0.753576,0.474084,0.357258
8,105,9,2,9,2,1,C,7,L,7,L,9,0.760062,0.335875,0.255286
8,106,1,9,8,2,1,I,8,L,6,S,12,0.478203,0.774893,0.370556
8,107,9,8,8,9,0,I,1,S,1,S,14,0.446846,0.777632,0.347481
8,108,9,2,8,2,1,C,7,L,6,S,9,0.753875,0.341171,0.257201
8,109,9,8,1,2,0,I,1,S,1,S,14,0.453626,0.768507,0.348615
8,110,9,2,9,1,1,C,7,L,8,L,9,0.792814,0.310899,0.246485
8,111,2,1,1,9,0,I,1,S,8,L,14,0.522586,0.755387,0.394755
8,112,8,9,1,9,1,C,1,S,8,L,11,0.367943,0.805926,0.296535
8,113,2,1,9,8,1,C,1,S,1,S,18,0.769273,0.570032,0.43851
8,114,8,2,2,9,1,I,6,S,7,L,15,0.767586,0.583215,0.447668
8,115,8,2,9,2,1,C,6,S,7,L,10,0.84006,0.30814,0.258856
8,116,2,8,1,9,1,C,6,S,8,L,9,0.266241,0.849178,0.226086
8,117,8,1,2,1,1,C,7,L,1,S,10,0.821589,0.326113,0.26793
8,118,1,8,9,8,1,I,7,L,1,S,10,0.331581,0.813441,0.269721
8,119,1,9,1,8,1,C,8,L,7,L,9,0.279023,0.8336,0.232594
8,120,2,8,8,2,1,I,6,S,6,S,12,0.469779,0.786998,0.369715
8,121,9,1,8,2,1,C,8,L,6,S,9,0.809281,0.30053,0.243213
8,122,9,8,1,8,0,I,1,S,7,L,11,0.405318,0.76932,0.311819
8,123,9,1,9,8,1,C,8,L,1,S,10,0.77392,0.384046,0.297221
8,124,9,1,8,9,1,I,8,L,1,S,11,0.799142,0.411211,0.328616
8,125,9,2,2,1,1,C,7,L,1,S,10,0.771947,0.364061,0.281036
8,126,1,9,9,1,1,I,8,L,8,L,13,0.537006,0.766756,0.411753
8,127,8,2,8,9,1,I,6,S,1,S,12,0.757367,0.472374,0.357761
8,128,1,8,9,1,1,I,7,L,8,L,13,0.537459,0.765398,0.41137
8,129,9,8,9,1,1,C,1,S,8,L,11,0.75174,0.416804,0.313328
8,130,2,1,1,2,1,I,1,S,1,S,19,0.753562,0.610998,0.460424
8,131,8,9,9,8,1,I,1,S,1,S,14,0.417248,0.798915,0.333346
8,132,2,9,8,9,1,C,7,L,1,S,9,0.333563,0.762778,0.254435
8,133,9,8,2,9,0,I,1,S,7,L,11,0.409281,0.761085,0.311498
8,134,2,9,2,9,1,C,7,L,7,L,9,0.275183,0.837606,0.230495
8,135,8,2,1,9,1,I,6,S,8,L,15,0.757518,0.595909,0.451411
8,136,8,2,8,2,1,C,6,S,6,S,10,0.832352,0.314444,0.261728
8,137,1,8,2,8,1,C,7,L,6,S,9,0.288916,0.81913,0.23666
8,138,1,2,1,8,1,C,1,S,7,L,10,0.369539,0.764367,0.282463
8,139,9,8,9,8,0,C,1,S,1,S,15,0.47709,0.753419,0.359449
8,140,1,8,1,8,1,C,7,L,7,L,9,0.279091,0.832625,0.232378
8,141,2,1,2,8,1,I,1,S,6,S,22,0.759236,0.650801,0.494111
8,142,9,8,1,9,0,I,1,S,8,L,11,0.39883,0.775399,0.309253
8,143,1,2,8,1,1,I,1,S,7,L,23,0.650961,0.761022,0.495396
8,144,9,1,1,2,1,I,8,L,1,S,10,0.751958,0.407723,0.306591
9,1,8,9,1,2,0,C,1,S,1,S,23,0.75872,0.638559,0.484488
9,2,2,1,9,8,1,C,1,S,1,S,16,0.771974,0.472832,0.365014
9,3,8,1,8,1,1,C,7,L,7,L,8,0.776991,0.27815,0.21612
9,4,2,8,8,1,1,I,6,S,7,L,14,0.586046,0.755859,0.442968
9,5,1,2,8,9,1,C,1,S,1,S,13,0.480049,0.765404,0.367431
9,6,8,2,9,8,1,C,6,S,1,S,10,0.761475,0.37945,0.288941
9,7,2,1,8,9,1,I,1,S,1,S,13,0.806505,0.397637,0.320696
9,8,9,1,8,1,1,C,8,L,7,L,8,0.777318,0.277731,0.215886
9,9,8,9,2,1,0,I,1,S,1,S,15,0.784785,0.435218,0.341552
9,10,2,1,1,2,1,I,1,S,1,S,22,0.76041,0.632304,0.480811
9,11,2,8,9,2,1,I,6,S,7,L,14,0.569783,0.76925,0.438306
9,12,1,8,2,9,1,C,7,L,7,L,9,0.257811,0.85854,0.221341
9,13,2,9,8,2,1,I,7,L,6,S,13,0.567597,0.753579,0.427729
9,14,1,2,9,8,1,I,1,S,1,S,11,0.402286,0.759719,0.305624
9,15,8,9,2,8,1,C,1,S,6,S,12,0.438692,0.773497,0.339327
9,16,8,1,1,2,1,I,7,L,1,S,10,0.758187,0.401391,0.304329
9,17,9,1,2,8,1,I,8,L,6,S,12,0.754101,0.531305,0.400657
9,18,1,8,2,8,1,C,7,L,6,S,8,0.288622,0.758093,0.218802
9,19,9,8,2,9,1,I,1,S,7,L,22,0.754544,0.65294,0.492672
9,20,1,2,1,9,1,C,1,S,8,L,9,0.31564,0.784374,0.24758
9,21,2,1,9,2,1,C,1,S,7,L,10,0.758997,0.379444,0.287997
9,22,1,9,2,8,1,C,8,L,6,S,8,0.281593,0.773342,0.217768
9,23,2,1,9,1,1,C,1,S,8,L,10,0.763414,0.376188,0.287187
9,24,2,9,9,8,1,I,7,L,1,S,10,0.354516,0.796342,0.282316
9,25,2,9,1,2,1,C,7,L,1,S,9,0.338478,0.760825,0.257522
9,26,9,1,9,8,1,C,8,L,1,S,10,0.809263,0.345237,0.279387
9,27,8,2,8,2,1,C,6,S,6,S,9,0.844665,0.271247,0.229113
9,28,2,8,8,9,1,C,6,S,1,S,11,0.419795,0.771476,0.323862
9,29,8,2,9,1,1,C,6,S,8,L,9,0.836071,0.278056,0.232474
9,30,9,2,1,2,1,I,7,L,1,S,11,0.761984,0.432473,0.329538
9,31,8,1,9,2,1,C,7,L,7,L,8,0.762824,0.289145,0.220566
9,32,9,1,8,9,1,I,8,L,1,S,9,0.776301,0.324695,0.252061
9,33,1,8,1,9,1,C,7,L,8,L,8,0.279501,0.77055,0.215369
9,34,8,2,8,9,1,I,6,S,1,S,10,0.819169,0.324686,0.265973
9,35,2,8,2,1,1,I,6,S,1,S,10,0.380824,0.757781,0.288581
9,36,1,9,8,2,1,I,8,L,6,S,12,0.535918,0.756169,0.405245
9,37,8,9,9,2,0,I,1,S,7,L,10,0.753064,0.383692,0.288944
9,38,1,8,9,8,1,I,7,L,1,S,10,0.336776,0.812474,0.273622
9,39,1,9,8,9,1,C,8,L,1,S,10,0.38451,0.776833,0.2987
9,40,2,8,1,2,1,C,6,S,1,S,10,0.316203,0.829442,0.262272
9,41,2,1,8,1,1,C,1,S,7,L,10,0.776507,0.366048,0.284239
9,42,1,2,9,2,1,I,1,S,7,L,17,0.620964,0.761294,0.472736
9,43,2,8,9,1,1,I,6,S,8,L,14,0.574003,0.765896,0.439626
9,44,2,8,1,9,1,C,6,S,8,L,9,0.267738,0.84865,0.227216
9,45,8,9,2,9,1,C,1,S,7,L,12,0.447496,0.760927,0.340512
9,46,8,1,2,8,1,I,7,L,6,S,12,0.753729,0.531749,0.400795
9,47,2,9,8,9,1,C,7,L,1,S,11,0.406009,0.795638,0.323036
9,48,2,9,8,1,1,I,7,L,7,L,13,0.57136,0.750645,0.428889
9,49,1,9,2,1,1,I,8,L,1,S,10,0.340757,0.815628,0.277931
9,50,1,9,9,1,1,I,8,L,8,L,12,0.52661,0.763746,0.402197
9,51,9,2,2,8,1,I,7,L,6,S,14,0.767448,0.571545,0.438631
9,52,9,1,9,1,1,C,8,L,8,L,8,0.766644,0.286126,0.219357
9,53,9,1,1,8,1,I,8,L,7,L,13,0.767969,0.559378,0.429585
9,54,2,1,2,8,0,I,1,S,6,S,12,0.449535,0.765313,0.344035
9,55,1,9,1,8,1,C,8,L,7,L,8,0.26735,0.793838,0.212232
9,56,1,2,8,1,1,I,1,S,7,L,18,0.623695,0.773661,0.482528
9,57,9,8,8,9,1,I,1,S,1,S,12,0.784875,0.39126,0.30709
9,58,1,8,1,8,1,C,7,L,7,L,8,0.274378,0.77859,0.213628
9,59,2,9,2,9,1,C,7,L,7,L,9,0.274806,0.843576,0.23182
9,60,8,1,8,2,1,C,7,L,6,S,8,0.773801,0.280489,0.217043
9,61,9,8,9,8,1,C,1,S,1,S,14,0.761523,0.453413,0.345284
9,62,9,2,9,8,1,C,7,L,1,S,10,0.762078,0.378819,0.288689
9,63,9,8,2,1,1,C,1,S,1,S,13,0.757342,0.432289,0.327391
9,64,1,2,8,2,1,I,1,S,6,S,17,0.631116,0.752376,0.474837
9,65,9,2,8,9,1,I,7,L,1,S,10,0.819773,0.324055,0.265651
9,66,2,9,9,2,1,I,7,L,7,L,13,0.554217,0.764466,0.42368
9,67,9,1,2,9,1,I,8,L,7,L,12,0.762905,0.518735,0.395745
9,68,9,8,8,1,1,C,1,S,7,L,10,0.798114,0.340421,0.271695
9,69,9,8,9,2,1,C,1,S,7,L,10,0.780604,0.353817,0.276191
9,70,1,8,2,1,1,I,7,L,1,S,10,0.350717,0.796505,0.279348
9,71,1,9,2,9,1,C,8,L,7,L,8,0.287688,0.764115,0.219827
9,72,1,9,8,1,1,I,8,L,7,L,12,0.539814,0.753196,0.406586
9,73,2,1,1,9,0,I,1,S,8,L,12,0.437657,0.780982,0.341802
9,74,8,2,2,1,1,C,6,S,1,S,10,0.775415,0.363481,0.281849
9,75,2,9,1,9,1,C,7,L,8,L,8,0.295086,0.757788,0.223613
9,76,1,9,1,9,1,C,8,L,8,L,8,0.272472,0.785798,0.214108
9,77,1,2,9,1,1,I,1,S,8,L,17,0.624408,0.758413,0.473559
9,78,8,9,9,8,0,I,1,S,1,S,17,0.782548,0.473143,0.370257
9,79,8,2,8,1,1,C,6,S,7,L,9,0.848288,0.268607,0.227856
9,80,2,8,8,2,1,I,6,S,6,S,14,0.582468,0.758707,0.441922
9,81,2,8,1,8,1,C,6,S,7,L,9,0.261883,0.857706,0.224619
9,82,8,9,1,8,1,C,1,S,7,L,11,0.421095,0.764181,0.321793
9,83,9,2,1,9,1,I,7,L,8,L,14,0.756007,0.586008,0.443026
9,84,9,1,8,2,1,C,8,L,6,S,8,0.774129,0.28007,0.21681
9,85,2,9,1,8,1,C,7,L,7,L,8,0.289963,0.765828,0.222062
9,86,8,1,9,8,1,C,7,L,1,S,10,0.808868,0.345698,0.279624
9,87,8,2,1,2,1,I,6,S,1,S,11,0.76135,0.433124,0.329759
9,88,1,8,8,2,1,I,7,L,6,S,13,0.550796,0.768302,0.423178
9,89,2,8,2,8,1,C,6,S,6,S,9,0.27812,0.834353,0.23205
9,90,8,2,2,8,1,I,6,S,6,S,14,0.766888,0.572149,0.438775
9,91,8,9,1,9,1,C,1,S,8,L,11,0.42776,0.754347,0.32268
9,92,8,1,1,9,1,I,7,L,8,L,13,0.77438,0.550317,0.426155
9,93,9,2,8,1,1,C,7,L,7,L,9,0.848825,0.268019,0.227501
9,94,9,8,8,2,1,C,1,S,6,S,10,0.794248,0.343262,0.272635
9,95,8,9,8,1,0,I,1,S,7,L,10,0.770574,0.370296,0.285341
9,96,9,1,1,9,1,I,8,L,8,L,13,0.77472,0.549896,0.426015
9,97,1,2,1,2,1,C,1,S,1,S,10,0.372229,0.752951,0.28027
9,98,2,8,9,8,1,I,6,S,1,S,10,0.366883,0.77375,0.283876
9,99,2,1,2,9,0,I,1,S,7,L,12,0.458339,0.752743,0.345012
9,100,8,9,9,1,0,I,1,S,8,L,10,0.75748,0.380437,0.288173
9,101,9,2,9,2,1,C,7,L,7,L,9,0.832545,0.280452,0.233489
9,102,8,1,2,9,1,I,7,L,7,L,12,0.762533,0.51918,0.395892
9,103,9,8,1,8,0,I,1,S,7,L,12,0.471596,0.750574,0.353968
9,104,1,8,8,9,1,C,7,L,1,S,10,0.394471,0.75771,0.298895
9,105,1,9,1,2,1,C,8,L,1,S,9,0.312828,0.793353,0.248183
9,106,9,2,9,1,1,C,7,L,8,L,9,0.836608,0.277467,0.232131
9,107,8,1,1,8,1,I,7,L,7,L,13,0.767628,0.559799,0.429718
9,108,1,2,1,8,1,C,1,S,7,L,9,0.309785,0.793431,0.245793
9,109,2,9,2,1,1,I,7,L,1,S,10,0.368457,0.780373,0.287534
9,110,8,2,1,9,1,I,6,S,8,L,14,0.755447,0.586613,0.443155
9,111,1,9,9,2,1,I,8,L,7,L,12,0.522057,0.767215,0.40053
9,112,1,8,8,1,1,I,7,L,7,L,13,0.55456,0.765368,0.424442
9,113,9,8,1,2,1,I,1,S,1,S,19,0.760321,0.601181,0.457091
9,114,2,9,2,8,1,C,7,L,6,S,9,0.267624,0.854422,0.228664
9,115,8,9,8,2,0,I,1,S,6,S,10,0.766708,0.373137,0.286087
9,116,8,2,2,9,1,I,6,S,7,L,14,0.775613,0.560253,0.434539
9,117,1,2,2,1,1,I,1,S,1,S,12,0.402167,0.79385,0.31926
9,118,9,8,9,1,1,C,1,S,8,L,10,0.785021,0.350562,0.275198
9,119,2,1,8,2,1,C,1,S,6,S,10,0.772641,0.368889,0.285018
9,120,2,9,9,1,1,I,7,L,8,L,13,0.55864,0.761024,0.425139
9,121,9,2,2,9,1,I,7,L,7,L,14,0.776173,0.559648,0.434384
9,122,1,2,2,9,1,C,1,S,7,L,9,0.333203,0.759231,0.252978
9,123,1,2,2,8,1,C,1,S,6,S,9,0.326021,0.770078,0.251061
9,124,8,2,1,8,1,I,6,S,7,L,15,0.775962,0.591979,0.459353
9,125,1,8,9,2,1,I,7,L,7,L,13,0.537416,0.779189,0.418749
9,126,8,9,8,9,0,C,1,S,1,S,13,0.792302,0.408326,0.323517
9,127,9,8,1,9,0,I,1,S,8,L,13,0.494921,0.756721,0.374517
9,128,8,1,8,9,1,I,7,L,1,S,9,0.775926,0.325144,0.252288
9,129,2,1,2,1,1,C,1,S,1,S,14,0.752292,0.453866,0.34144
9,130,2,8,2,9,1,C,6,S,7,L,9,0.285302,0.823507,0.234948
9,131,9,1,9,2,1,C,8,L,7,L,8,0.763152,0.288726,0.220341
9,132,9,2,1,8,1,I,7,L,7,L,15,0.776468,0.591412,0.459212
9,133,8,2,9,2,1,C,6,S,7,L,9,0.832009,0.28104,0.233828
9,134,9,2,8,2,1,C,7,L,6,S,9,0.845202,0.270659,0.228761
9,135,9,8,2,8,0,I,1,S,6,S,15,0.553076,0.750635,0.415159
9,136,1,8,1,2,1,C,7,L,1,S,9,0.321482,0.775789,0.249402
9,137,9,1,1,2,1,I,8,L,1,S,10,0.758582,0.40093,0.304138
9,138,1,8,9,1,1,I,7,L,8,L,13,0.54184,0.775746,0.42033
9,139,2,1,1,8,0,I,1,S,7,L,11,0.429179,0.758165,0.325389
9,140,8,1,2,1,1,C,7,L,1,S,10,0.822809,0.329729,0.271304
9,141,8,1,9,1,1,C,7,L,8,L,8,0.766316,0.286545,0.219584
9,142,9,2,2,1,1,C,7,L,1,S,10,0.776019,0.36285,0.281578
9,143,9,1,2,1,1,C,8,L,1,S,10,0.823204,0.329268,0.271055
9,144,1,9,9,8,1,I,8,L,1,S,9,0.35007,0.75385,0.2639
10,1,9,8,9,1,1,C,1,S,8,L,10,0.768128,0.376961,0.289554
10,2,8,1,9,8,1,C,7,L,1,S,9,0.757776,0.336196,0.254761
10,3,9,2,2,1,1,C,7,L,1,S,9,0.802993,0.298932,0.24004
10,4,8,2,9,1,1,C,6,S,8,L,8,0.772807,0.278124,0.214936
10,5,1,2,9,2,1,I,1,S,7,L,22,0.656359,0.750672,0.492711
10,6,2,9,8,9,1,C,7,L,1,S,10,0.333794,0.818956,0.273363
10,7,8,2,8,1,1,C,6,S,7,L,8,0.762541,0.285155,0.217443
10,8,8,2,2,9,1,I,6,S,7,L,13,0.772789,0.533928,0.412614
10,9,9,8,8,9,1,I,1,S,1,S,27,0.753979,0.615842,0.464332
10,10,8,1,8,2,1,C,7,L,6,S,9,0.808751,0.295818,0.239243
10,11,2,1,2,1,1,C,1,S,1,S,11,0.783684,0.378812,0.296869
10,12,9,2,2,9,1,I,7,L,7,L,13,0.782124,0.527408,0.412498
10,13,2,9,1,9,1,C,7,L,8,L,8,0.264883,0.795704,0.210769
10,14,1,2,8,9,1,C,1,S,1,S,14,0.412215,0.801062,0.33021
10,15,1,8,2,1,1,I,7,L,1,S,11,0.45354,0.770178,0.349307
10,16,1,8,9,2,1,I,7,L,7,L,12,0.519759,0.764187,0.397193
10,17,1,8,2,8,1,C,7,L,6,S,9,0.284084,0.829445,0.235632
10,18,2,9,2,1,1,I,7,L,1,S,11,0.458492,0.762854,0.349763
10,19,1,9,9,1,1,I,8,L,8,L,12,0.52982,0.77611,0.411199
10,20,2,1,2,9,1,I,1,S,7,L,23,0.772352,0.644641,0.497889
10,21,2,1,1,9,0,I,1,S,8,L,11,0.44095,0.751734,0.331477
10,22,9,8,1,8,0,I,1,S,7,L,11,0.391569,0.78935,0.309085
10,23,2,8,9,8,1,I,6,S,1,S,12,0.489874,0.75175,0.368263
10,24,8,2,8,2,1,C,6,S,6,S,9,0.826625,0.280568,0.231925
10,25,9,1,9,1,1,C,8,L,8,L,8,0.765251,0.286605,0.219325
10,26,1,2,2,8,1,C,1,S,6,S,11,0.368485,0.792643,0.292077
10,27,8,2,2,1,1,C,6,S,1,S,9,0.795006,0.304054,0.241725
10,28,8,1,2,8,1,I,7,L,6,S,12,0.75093,0.504198,0.378617
10,29,8,9,2,1,1,I,1,S,1,S,15,0.572128,0.755346,0.432154
10,30,2,8,2,9,1,C,6,S,7,L,9,0.311109,0.793112,0.246745
10,31,1,2,2,1,1,I,1,S,1,S,21,0.636241,0.757407,0.481894
10,32,9,2,8,2,1,C,7,L,6,S,9,0.834612,0.275446,0.22989
10,33,9,2,8,1,1,C,7,L,7,L,8,0.769279,0.28086,0.216059
10,34,9,2,9,8,1,C,7,L,1,S,9,0.783637,0.315824,0.247491
10,35,9,1,8,1,1,C,8,L,7,L,8,0.754984,0.293636,0.221691
10,36,9,8,2,1,1,C,1,S,1,S,12,0.768776,0.420358,0.323161
10,37,2,1,2,8,1,I,1,S,6,S,22,0.769755,0.637323,0.490583
10,38,1,9,8,1,1,I,8,L,7,L,12,0.518093,0.784734,0.406565
10,39,8,1,8,9,1,I,7,L,1,S,10,0.757908,0.381363,0.289038
10,40,2,9,9,8,1,I,7,L,1,S,11,0.430366,0.785555,0.338076
10,41,2,1,8,9,1,I,1,S,1,S,15,0.786206,0.45021,0.353958
10,42,8,2,1,2,1,I,6,S,1,S,12,0.761586,0.497031,0.378532
10,43,2,1,9,2,1,C,1,S,7,L,10,0.769742,0.36582,0.281587
10,44,2,1,9,8,1,C,1,S,1,S,11,0.755558,0.401513,0.303366
10,45,1,8,1,9,1,C,7,L,8,L,8,0.261213,0.801421,0.209341
10,46,2,9,9,2,1,I,7,L,7,L,12,0.524833,0.75687,0.39723
10,47,8,9,8,1,1,I,1,S,7,L,18,0.629999,0.766746,0.483049
10,48,9,2,8,9,1,I,7,L,1,S,10,0.786786,0.358888,0.282368
10,49,2,9,2,9,1,C,7,L,7,L,9,0.264027,0.855601,0.225902
10,50,1,8,9,8,1,I,7,L,1,S,11,0.425415,0.792878,0.337302
10,51,9,8,2,9,0,I,1,S,7,L,12,0.408522,0.794571,0.3246
10,52,8,2,1,8,1,I,6,S,7,L,14,0.771153,0.573721,0.442427
10,53,1,8,2,9,1,C,7,L,7,L,8,0.296876,0.752311,0.223344
10,54,9,8,1,2,0,I,1,S,1,S,12,0.430225,0.761751,0.327725
10,55,1,2,1,8,1,C,1,S,7,L,10,0.340398,0.798919,0.27195
10,56,2,8,1,9,1,C,6,S,8,L,9,0.270458,0.849459,0.229743
10,57,9,2,2,8,1,I,7,L,6,S,12,0.781657,0.479867,0.375091
10,58,1,9,9,2,1,I,8,L,7,L,11,0.477899,0.773234,0.369528
10,59,8,9,9,2,1,I,1,S,7,L,17,0.61521,0.763481,0.469701
10,60,8,1,1,9,1,I,7,L,8,L,15,0.764333,0.605476,0.462786
10,61,8,2,9,8,1,C,6,S,1,S,9,0.77565,0.320946,0.248942
10,62,2,8,1,2,1,C,6,S,1,S,9,0.326745,0.768102,0.250973
10,63,1,9,2,1,1,I,8,L,1,S,10,0.413359,0.770014,0.318292
10,64,9,1,8,2,1,C,8,L,6,S,9,0.817514,0.290053,0.237122
10,65,2,1,8,2,1,C,1,S,6,S,10,0.751597,0.378738,0.284659
10,66,9,1,9,8,1,C,8,L,1,S,9,0.766539,0.330431,0.253288
10,67,8,1,1,8,1,I,7,L,7,L,14,0.751448,0.590958,0.444075
10,68,8,1,2,1,1,C,7,L,1,S,9,0.777132,0.319304,0.248142
10,69,2,8,8,1,1,I,6,S,7,L,15,0.612095,0.751056,0.459718
10,70,8,9,1,2,1,C,1,S,1,S,10,0.322718,0.814148,0.262741
10,71,1,9,1,9,1,C,8,L,8,L,8,0.23204,0.840812,0.195102
10,72,1,9,9,8,1,I,8,L,1,S,10,0.389172,0.790104,0.307486
10,73,2,9,8,1,1,I,7,L,7,L,13,0.560935,0.764608,0.428895
10,74,9,8,9,2,1,C,1,S,7,L,11,0.778493,0.394195,0.306878
10,75,2,9,1,2,1,C,7,L,1,S,9,0.279662,0.830591,0.232285
10,76,8,2,9,2,1,C,6,S,7,L,9,0.842914,0.268978,0.226725
10,77,1,2,9,8,1,I,1,S,1,S,20,0.628732,0.752666,0.473226
10,78,1,8,8,2,1,I,7,L,6,S,12,0.500383,0.778408,0.389502
10,79,1,9,2,9,1,C,8,L,7,L,8,0.267704,0.791702,0.211942
10,80,9,1,2,9,1,I,8,L,7,L,13,0.762912,0.54401,0.415032
10,81,8,9,2,9,1,C,1,S,7,L,10,0.304396,0.84306,0.256624
10,82,1,8,8,9,1,C,7,L,1,S,10,0.329109,0.826051,0.271861
10,83,1,2,8,1,0,I,1,S,7,L,12,0.753162,0.467565,0.352152
10,84,2,8,8,9,1,C,6,S,1,S,11,0.360529,0.818488,0.295089
10,85,2,1,1,8,0,I,1,S,7,L,12,0.465754,0.75751,0.352813
10,86,9,2,1,9,1,I,7,L,8,L,14,0.765307,0.586385,0.448765
10,87,1,9,1,8,1,C,8,L,7,L,8,0.244675,0.822799,0.201318
10,88,2,9,1,8,1,C,7,L,7,L,8,0.277518,0.777691,0.215823
10,89,8,2,1,9,1,I,6,S,8,L,14,0.756268,0.592846,0.448351
10,90,8,1,2,9,1,I,7,L,7,L,13,0.752063,0.551669,0.41489
10,91,1,2,9,1,0,I,1,S,8,L,12,0.764889,0.45894,0.351038
10,92,9,1,1,9,1,I,8,L,8,L,15,0.774429,0.598026,0.463129
10,93,8,9,1,8,1,C,1,S,7,L,9,0.313911,0.786109,0.246768
10,94,9,8,1,9,0,I,1,S,8,L,10,0.38808,0.758375,0.29431
10,95,2,8,2,8,1,C,6,S,6,S,9,0.335425,0.760387,0.255053
10,96,9,8,9,8,1,C,1,S,1,S,13,0.785668,0.424028,0.333146
10,97,1,8,1,8,1,C,7,L,7,L,8,0.273848,0.783408,0.214535
10,98,1,9,8,9,1,C,8,L,1,S,9,0.319793,0.792462,0.253424
10,99,2,9,8,2,1,I,7,L,6,S,12,0.505456,0.771091,0.389753
10,100,9,2,1,2,1,I,7,L,1,S,12,0.771045,0.490587,0.378264
10,101,2,1,1,2,1,I,1,S,1,S,22,0.764833,0.640464,0.489848
10,102,2,9,9,1,1,I,7,L,8,L,13,0.57224,0.756111,0.432676
10,103,8,1,9,1,1,C,7,L,8,L,8,0.758047,0.291347,0.220855
10,104,9,1,2,1,1,C,8,L,1,S,9,0.785895,0.313539,0.246409
10,105,8,1,1,2,1,I,7,L,1,S,13,0.774461,0.518641,0.401667
10,106,2,8,8,2,1,I,6,S,6,S,14,0.567295,0.760543,0.431452
10,107,2,9,2,8,1,C,7,L,6,S,9,0.288342,0.822876,0.23727
10,108,8,1,9,2,1,C,7,L,7,L,9,0.82504,0.284228,0.234499
10,109,9,1,1,8,1,I,8,L,7,L,14,0.761996,0.583337,0.444501
10,110,9,1,1,2,1,I,8,L,1,S,12,0.751228,0.507396,0.38117
10,111,2,8,2,1,1,I,6,S,1,S,13,0.524261,0.761837,0.399402
10,112,1,2,2,9,1,C,1,S,7,L,10,0.369466,0.759247,0.280516
10,113,9,8,2,8,0,I,1,S,6,S,12,0.440838,0.751031,0.331083
10,114,9,1,8,9,1,I,8,L,1,S,10,0.76784,0.374774,0.287766
10,115,2,1,9,1,1,C,1,S,8,L,10,0.814721,0.333802,0.271956
10,116,8,2,2,8,1,I,6,S,6,S,12,0.772199,0.486311,0.375529
10,117,1,8,8,1,1,I,7,L,7,L,13,0.555857,0.771756,0.428986
10,118,2,8,1,8,1,C,6,S,7,L,9,0.284559,0.829442,0.236025
10,119,1,8,1,2,1,C,7,L,1,S,9,0.275404,0.83716,0.230557
10,120,1,9,2,8,1,C,8,L,6,S,8,0.287588,0.765688,0.220203
10,121,8,9,8,2,1,I,1,S,6,S,16,0.606867,0.751172,0.455862
10,122,9,8,8,1,1,C,1,S,7,L,10,0.756269,0.385295,0.291386
10,123,1,2,1,2,1,C,1,S,1,S,11,0.358162,0.802932,0.28758
10,124,1,9,1,2,1,C,8,L,1,S,8,0.280181,0.771522,0.216166
10,125,9,1,9,2,1,C,8,L,7,L,9,0.833803,0.278462,0.232183
10,126,9,2,9,2,1,C,7,L,7,L,9,0.850901,0.263855,0.224515
10,127,8,9,9,8,1,I,1,S,1,S,14,0.540807,0.752724,0.407079
10,128,1,9,8,2,1,I,8,L,6,S,11,0.458764,0.78702,0.361056
10,129,1,2,1,9,1,C,1,S,8,L,10,0.325354,0.819952,0.266774
10,130,8,9,1,9,1,C,1,S,8,L,9,0.29981,0.806126,0.241684
10,131,8,9,8,9,1,C,1,S,1,S,11,0.400884,0.758992,0.304268
10,132,1,8,9,1,1,I,7,L,8,L,13,0.567162,0.763258,0.432891
10,133,2,8,9,2,1,I,6,S,7,L,15,0.582627,0.774356,0.45116
10,134,9,8,8,2,1,C,1,S,6,S,11,0.759358,0.40798,0.309803
10,135,2,1,8,1,1,C,1,S,7,L,10,0.802862,0.342136,0.274688
10,136,9,2,9,1,1,C,7,L,8,L,8,0.779545,0.273828,0.213462
10,137,8,9,9,1,1,I,1,S,8,L,18,0.638395,0.760022,0.485194
10,138,8,9,2,8,1,C,1,S,6,S,10,0.332395,0.804877,0.267537
10,139,9,2,1,8,1,I,7,L,7,L,13,0.751119,0.567523,0.426278
10,140,8,1,8,1,1,C,7,L,7,L,9,0.855891,0.262373,0.224562
10,141,1,2,8,2,1,I,1,S,6,S,22,0.645985,0.759346,0.490526
10,142,8,2,8,9,1,I,6,S,1,S,10,0.77793,0.364652,0.283674
10,143,9,1,2,8,1,I,8,L,6,S,12,0.761841,0.496676,0.378388
10,144,2,8,9,1,1,I,6,S,8,L,16,0.614809,0.769469,0.473076
11,1,2,1,9,1,1,C,1,S,8,L,10,0.787159,0.349655,0.275234
11,2,2,8,9,1,1,I,6,S,8,L,17,0.618275,0.767896,0.474771
11,3,2,8,8,1,1,I,6,S,7,L,16,0.610726,0.754978,0.461084
11,4,8,1,1,9,1,I,7,L,8,L,14,0.772405,0.574803,0.443981
11,5,9,8,9,8,1,C,1,S,1,S,16,0.781633,0.443478,0.346637
11,6,2,9,2,8,1,C,7,L,6,S,9,0.288736,0.819039,0.236486
11,7,8,2,2,8,1,I,6,S,6,S,13,0.770977,0.54059,0.416782
11,8,2,8,2,8,1,C,6,S,6,S,9,0.323729,0.772714,0.25015
11,9,1,9,9,8,1,I,8,L,1,S,10,0.350954,0.80002,0.28077
11,10,9,1,9,1,1,C,8,L,8,L,9,0.825544,0.28257,0.233274
11,11,1,9,1,2,1,C,8,L,1,S,9,0.28898,0.818296,0.236471
11,12,8,1,1,2,1,I,7,L,1,S,12,0.779874,0.47665,0.371727
11,13,2,9,2,9,1,C,7,L,7,L,9,0.283979,0.82647,0.2347
11,14,1,8,1,9,1,C,7,L,8,L,8,0.295645,0.752451,0.222458
11,15,1,8,2,1,1,I,7,L,1,S,11,0.379752,0.80395,0.305302
11,16,1,9,9,2,1,I,8,L,7,L,12,0.498128,0.776046,0.38657
11,17,1,2,1,8,1,C,1,S,7,L,10,0.349299,0.789353,0.27572
11,18,9,8,9,2,1,C,1,S,7,L,11,0.767903,0.398112,0.305711
11,19,2,9,8,2,1,I,7,L,6,S,13,0.513084,0.775705,0.398002
11,20,2,8,1,2,1,C,6,S,1,S,10,0.325586,0.813273,0.264791
11,21,8,1,8,9,1,I,7,L,1,S,11,0.803016,0.390982,0.313965
11,22,8,9,2,9,1,C,1,S,7,L,11,0.424393,0.750122,0.318346
11,23,1,9,8,1,1,I,8,L,7,L,12,0.524573,0.755566,0.396349
11,24,9,2,9,1,1,C,7,L,8,L,9,0.82955,0.280225,0.232461
11,25,9,1,1,8,1,I,8,L,7,L,15,0.758935,0.600718,0.455905
11,26,8,2,1,2,1,I,6,S,1,S,12,0.78398,0.474129,0.371708
11,27,9,2,9,2,1,C,7,L,7,L,9,0.790353,0.3086,0.243903
11,28,9,8,1,2,0,I,1,S,1,S,13,0.460218,0.757147,0.348453
11,29,1,9,2,9,1,C,8,L,7,L,8,0.287405,0.762638,0.219186
11,30,9,8,2,9,0,I,1,S,7,L,11,0.420282,0.755781,0.317641
11,31,1,2,8,1,0,I,1,S,7,L,13,0.755365,0.484576,0.366032
11,32,1,8,1,8,1,C,7,L,7,L,9,0.26286,0.855348,0.224837
11,33,9,1,9,8,1,C,8,L,1,S,10,0.755719,0.375787,0.283989
11,34,1,2,8,9,1,C,1,S,1,S,12,0.419062,0.751526,0.314936
11,35,9,8,1,8,0,I,1,S,7,L,11,0.406766,0.774039,0.314853
11,36,9,8,8,9,1,I,1,S,1,S,25,0.755706,0.644109,0.486757
11,37,8,9,8,1,0,I,1,S,7,L,11,0.798098,0.372535,0.297319
11,38,9,1,8,2,1,C,8,L,6,S,9,0.763459,0.327125,0.249747
11,39,1,9,8,2,1,I,8,L,6,S,11,0.462286,0.75865,0.350713
11,40,8,1,2,8,1,I,7,L,6,S,13,0.766899,0.543172,0.416558
11,41,8,2,1,8,1,I,6,S,7,L,13,0.751584,0.566473,0.425752
11,42,9,2,9,8,1,C,7,L,1,S,10,0.760366,0.373001,0.283617
11,43,1,2,9,8,1,I,1,S,1,S,15,0.477112,0.751688,0.35864
11,44,8,9,1,9,1,C,1,S,8,L,11,0.406422,0.775151,0.315038
11,45,2,8,8,2,1,I,6,S,6,S,15,0.563523,0.769602,0.433689
11,46,1,8,2,9,1,C,7,L,7,L,9,0.274897,0.838689,0.230553
11,47,1,8,8,2,1,I,7,L,6,S,12,0.498164,0.756358,0.376791
11,48,9,2,8,2,1,C,7,L,6,S,9,0.767465,0.32478,0.249258
11,49,9,8,2,1,1,C,1,S,1,S,15,0.798377,0.421213,0.336287
11,50,2,8,2,1,1,I,6,S,1,S,12,0.423305,0.77802,0.329339
11,51,9,8,9,1,1,C,1,S,8,L,10,0.75246,0.384891,0.289615
11,52,2,9,2,1,1,I,7,L,1,S,11,0.390794,0.789031,0.308349
11,53,9,1,1,2,1,I,8,L,1,S,13,0.765975,0.516974,0.395989
11,54,2,9,9,8,1,I,7,L,1,S,11,0.369668,0.810892,0.299761
11,55,2,9,9,1,1,I,7,L,8,L,15,0.585348,0.776877,0.454743
11,56,8,1,8,2,1,C,7,L,6,S,9,0.802964,0.297613,0.238973
11,57,2,9,8,9,1,C,7,L,1,S,10,0.337362,0.802575,0.270758
11,58,2,8,8,9,1,C,6,S,1,S,11,0.343666,0.827015,0.284217
11,59,1,2,8,2,1,I,1,S,6,S,22,0.646475,0.752387,0.4864
11,60,1,8,9,8,1,I,7,L,1,S,10,0.379727,0.76025,0.288687
11,61,8,9,9,8,0,I,1,S,1,S,16,0.800088,0.426863,0.341528
11,62,8,2,9,1,1,C,6,S,8,L,8,0.75744,0.289001,0.218901
11,63,2,8,2,9,1,C,6,S,7,L,9,0.318972,0.780144,0.248844
11,64,8,2,8,2,1,C,6,S,6,S,9,0.806417,0.295708,0.238464
11,65,2,8,9,2,1,I,6,S,7,L,16,0.588786,0.773423,0.455381
11,66,8,2,2,1,1,C,6,S,1,S,10,0.819034,0.324142,0.265483
11,67,9,8,1,9,0,I,1,S,8,L,11,0.402312,0.780809,0.314129
11,68,2,1,9,2,1,C,1,S,7,L,11,0.816501,0.351364,0.286889
11,69,9,2,2,1,1,C,7,L,1,S,10,0.775244,0.356589,0.276443
11,70,1,8,2,8,1,C,7,L,6,S,9,0.279654,0.831259,0.232465
11,71,9,2,1,2,1,I,7,L,1,S,13,0.771345,0.513477,0.396068
11,72,1,2,2,9,1,C,1,S,7,L,10,0.362291,0.771509,0.279511
11,73,1,9,8,9,1,C,8,L,1,S,9,0.331098,0.76761,0.254154
11,74,8,2,8,1,1,C,6,S,7,L,9,0.851265,0.26265,0.223584
11,75,2,1,1,9,0,I,1,S,8,L,12,0.461122,0.760227,0.350558
11,76,9,2,1,9,1,I,7,L,8,L,15,0.759746,0.603211,0.458287
11,77,9,2,2,9,1,I,7,L,7,L,15,0.776683,0.58151,0.451649
11,78,9,2,2,8,1,I,7,L,6,S,14,0.755023,0.576478,0.435254
11,79,2,1,1,2,1,I,1,S,1,S,21,0.750473,0.642079,0.481863
11,80,9,1,8,9,1,I,8,L,1,S,11,0.755489,0.426377,0.322123
11,81,2,1,8,1,1,C,1,S,7,L,10,0.768392,0.362334,0.278415
11,82,2,8,9,8,1,I,6,S,1,S,12,0.394086,0.806604,0.317871
11,83,9,2,1,8,1,I,7,L,7,L,15,0.764063,0.597205,0.456303
11,84,9,2,8,9,1,I,7,L,1,S,11,0.760574,0.423248,0.321912
11,85,9,1,2,8,1,I,8,L,6,S,15,0.777195,0.577301,0.448675
11,86,1,2,1,9,1,C,1,S,8,L,10,0.345053,0.795988,0.274658
11,87,8,2,9,8,1,C,6,S,1,S,10,0.804156,0.340554,0.273859
11,88,1,9,1,8,1,C,8,L,7,L,8,0.276774,0.777247,0.215122
11,89,2,1,9,8,1,C,1,S,1,S,14,0.802906,0.408967,0.328362
11,90,2,9,9,2,1,I,7,L,7,L,13,0.544682,0.752773,0.410022
11,91,8,1,1,8,1,I,7,L,7,L,14,0.776857,0.568508,0.441649
11,92,8,9,2,1,0,I,1,S,1,S,14,0.756575,0.443552,0.33558
11,93,1,9,2,1,1,I,8,L,1,S,10,0.365832,0.783607,0.286668
11,94,9,1,8,1,1,C,8,L,7,L,9,0.808306,0.294068,0.237697
11,95,2,9,1,2,1,C,7,L,1,S,9,0.324074,0.770087,0.249565
11,96,8,9,8,9,0,C,1,S,1,S,24,0.753286,0.640148,0.482215
11,97,2,9,1,9,1,C,7,L,8,L,9,0.268043,0.84938,0.227671
11,98,1,9,9,1,1,I,8,L,8,L,13,0.546871,0.774675,0.423647
11,99,1,2,2,1,1,I,1,S,1,S,17,0.536395,0.75184,0.403283
11,100,9,8,8,2,1,C,1,S,6,S,12,0.795052,0.395437,0.314393
11,101,2,8,1,9,1,C,6,S,8,L,9,0.303036,0.803055,0.243355
11,102,2,1,1,8,0,I,1,S,7,L,12,0.465665,0.753507,0.350882
11,103,2,1,2,8,0,I,1,S,6,S,14,0.519518,0.753666,0.391543
11,104,8,9,2,8,1,C,1,S,6,S,12,0.425137,0.780015,0.331613
11,105,8,1,9,2,1,C,7,L,7,L,9,0.825852,0.281432,0.232421
11,106,8,9,8,2,0,I,1,S,6,S,12,0.801011,0.38816,0.310921
11,107,8,1,9,8,1,C,7,L,1,S,10,0.800333,0.342743,0.274308
11,108,8,1,8,1,1,C,7,L,7,L,9,0.847811,0.264555,0.224293
11,109,2,1,2,9,0,I,1,S,7,L,13,0.494003,0.752858,0.371914
11,110,9,8,2,8,0,I,1,S,6,S,12,0.419178,0.787292,0.330015
11,111,2,9,1,8,1,C,7,L,7,L,9,0.271942,0.843129,0.229282
11,112,1,8,8,1,1,I,7,L,7,L,14,0.559117,0.777446,0.434684
11,113,1,2,2,8,1,C,1,S,6,S,10,0.367586,0.763379,0.280607
11,114,2,9,8,1,1,I,7,L,7,L,14,0.570546,0.762831,0.43523
11,115,8,1,9,1,1,C,7,L,8,L,8,0.754509,0.290555,0.219227
11,116,8,2,1,9,1,I,6,S,8,L,14,0.776386,0.572215,0.44426
11,117,2,1,8,2,1,C,1,S,6,S,11,0.786733,0.372295,0.292897
11,118,1,8,8,9,1,C,7,L,1,S,10,0.327113,0.816491,0.267085
11,119,8,9,9,1,0,I,1,S,8,L,10,0.755171,0.380524,0.287361
11,120,1,2,1,2,1,C,1,S,1,S,11,0.382593,0.773938,0.296103
11,121,2,8,1,8,1,C,6,S,7,L,9,0.306935,0.796803,0.244567
11,122,9,1,2,1,1,C,8,L,1,S,10,0.770597,0.359374,0.276933
11,123,8,1,2,9,1,I,7,L,7,L,13,0.761026,0.551555,0.419748
11,124,8,2,8,9,1,I,6,S,1,S,10,0.751542,0.396795,0.298208
11,125,1,8,9,2,1,I,7,L,7,L,13,0.533102,0.767899,0.409369
11,126,9,1,1,9,1,I,8,L,8,L,15,0.754617,0.606723,0.457843
11,127,8,2,9,2,1,C,6,S,7,L,9,0.829305,0.279527,0.231813
11,128,1,2,9,2,1,I,1,S,7,L,23,0.64804,0.761212,0.493296
11,129,2,1,2,1,1,C,1,S,1,S,13,0.786285,0.404854,0.318331
11,130,1,9,1,9,1,C,8,L,8,L,8,0.273367,0.782821,0.213997
11,131,9,8,8,1,1,C,1,S,7,L,11,0.793988,0.378193,0.30028
11,132,9,1,9,2,1,C,8,L,7,L,9,0.786347,0.310945,0.24451
11,133,1,8,9,1,1,I,7,L,8,L,14,0.577488,0.763883,0.441133
11,134,1,9,2,8,1,C,8,L,6,S,8,0.291448,0.756269,0.220413
11,135,9,1,2,9,1,I,8,L,7,L,15,0.771554,0.585022,0.451376
11,136,8,9,1,2,1,C,1,S,1,S,14,0.468426,0.772426,0.361824
11,137,9,2,8,1,1,C,7,L,7,L,9,0.812312,0.291723,0.23697
11,138,8,9,9,2,0,I,1,S,7,L,11,0.772013,0.392453,0.302979
11,139,8,1,2,1,1,C,7,L,1,S,10,0.815211,0.32633,0.266028
11,140,2,1,8,9,1,I,1,S,1,S,19,0.773106,0.580438,0.44874
11,141,1,8,1,2,1,C,7,L,1,S,9,0.314992,0.782307,0.24642
11,142,1,2,9,1,0,I,1,S,8,L,12,0.754908,0.459516,0.346892
11,143,8,2,2,9,1,I,6,S,7,L,13,0.765105,0.548972,0.420021
11,144,8,9,1,8,1,C,1,S,7,L,11,0.410876,0.768381,0.315709
12,1,8,1,9,8,1,C,7,L,1,S,10,0.767678,0.369955,0.284007
12,2,9,1,9,2,1,C,8,L,7,L,9,0.822327,0.286936,0.235955
12,3,2,9,8,1,1,I,7,L,7,L,14,0.555126,0.766693,0.425611
12,4,9,2,9,8,1,C,7,L,1,S,10,0.786648,0.357802,0.281465
12,5,9,8,9,8,1,C,1,S,1,S,21,0.762693,0.475369,0.362561
12,6,2,8,2,9,1,C,6,S,7,L,9,0.306461,0.792,0.242717
12,7,1,8,9,1,1,I,7,L,8,L,13,0.528649,0.778111,0.411347
12,8,2,1,8,2,1,C,1,S,6,S,10,0.773368,0.35408,0.273835
12,9,9,1,1,2,1,I,8,L,1,S,11,0.790592,0.411889,0.325636
12,10,2,1,8,1,1,C,1,S,7,L,10,0.794862,0.338209,0.26883
12,11,9,2,8,1,1,C,7,L,7,L,9,0.820429,0.287582,0.23594
12,12,2,1,2,1,1,C,1,S,1,S,11,0.775362,0.378253,0.293283
12,13,1,8,8,2,1,I,7,L,6,S,12,0.488599,0.771734,0.377068
12,14,8,1,2,8,1,I,7,L,6,S,13,0.781398,0.51141,0.399614
12,15,8,2,9,2,1,C,6,S,7,L,9,0.784435,0.312391,0.24505
12,16,1,9,9,2,1,I,8,L,7,L,12,0.494497,0.773513,0.3825
12,17,8,2,1,8,1,I,6,S,7,L,14,0.759041,0.57318,0.435067
12,18,1,9,1,2,1,C,8,L,1,S,9,0.32562,0.771135,0.251097
12,19,8,9,8,2,1,I,1,S,6,S,20,0.632945,0.757494,0.479452
12,20,1,2,2,1,0,I,1,S,1,S,18,0.750905,0.539688,0.405255
12,21,2,8,8,1,1,I,6,S,7,L,15,0.566603,0.776509,0.439973
12,22,9,8,9,2,1,C,1,S,7,L,12,0.7877,0.404918,0.318954
12,23,2,8,8,9,1,C,6,S,1,S,10,0.320148,0.818314,0.261981
12,24,1,2,9,2,0,I,1,S,7,L,12,0.751296,0.442324,0.332316
12,25,8,1,1,9,1,I,7,L,8,L,15,0.776008,0.590297,0.458075
12,26,1,2,1,2,1,C,1,S,1,S,13,0.425867,0.770902,0.328301
12,27,1,9,2,1,1,I,8,L,1,S,10,0.397983,0.753084,0.299714
12,28,2,9,1,2,1,C,7,L,1,S,10,0.329706,0.80622,0.265816
12,29,2,9,1,9,1,C,7,L,8,L,9,0.275379,0.836196,0.230271
12,30,8,9,1,2,1,C,1,S,1,S,12,0.364285,0.820284,0.298817
12,31,1,8,2,1,1,I,7,L,1,S,11,0.398882,0.795942,0.317487
12,32,1,9,2,9,1,C,8,L,7,L,9,0.262641,0.855701,0.224742
12,33,2,8,9,8,1,I,6,S,1,S,11,0.377649,0.791,0.298721
12,34,9,1,8,1,1,C,8,L,7,L,9,0.83031,0.280679,0.233051
12,35,9,8,8,2,1,C,1,S,6,S,12,0.773414,0.415264,0.321171
12,36,8,9,2,9,1,C,1,S,7,L,10,0.350502,0.784423,0.274942
12,37,1,9,1,9,1,C,8,L,8,L,8,0.279848,0.773673,0.216511
12,38,8,2,2,1,1,C,6,S,1,S,10,0.803832,0.333337,0.267947
12,39,2,8,9,1,1,I,6,S,8,L,15,0.577244,0.768311,0.443503
12,40,2,1,2,9,1,I,1,S,7,L,19,0.764548,0.631526,0.482832
12,41,2,8,1,9,1,C,6,S,8,L,9,0.2842,0.823333,0.233991
12,42,8,9,8,9,1,C,1,S,1,S,11,0.376421,0.781021,0.293993
12,43,9,8,9,1,1,C,1,S,8,L,11,0.758393,0.407066,0.308716
12,44,1,8,1,8,1,C,7,L,7,L,9,0.26813,0.846364,0.226936
12,45,1,2,1,8,1,C,1,S,7,L,11,0.38105,0.789917,0.300998
12,46,9,2,9,2,1,C,7,L,7,L,9,0.812446,0.293838,0.238728
12,47,2,1,9,8,1,C,1,S,1,S,12,0.763522,0.417577,0.318829
12,48,1,8,2,9,1,C,7,L,7,L,9,0.269428,0.845299,0.227747
12,49,9,8,2,1,1,C,1,S,1,S,14,0.759846,0.450353,0.342199
12,50,9,1,1,9,1,I,8,L,8,L,13,0.750478,0.572406,0.429578
12,51,8,9,9,1,1,I,1,S,8,L,21,0.641885,0.761419,0.488744
12,52,1,9,9,1,1,I,8,L,8,L,12,0.516462,0.757121,0.391024
12,53,2,9,1,8,1,C,7,L,7,L,9,0.296342,0.805928,0.238831
12,54,9,2,1,8,1,I,7,L,7,L,13,0.763389,0.548376,0.418624
12,55,9,1,8,9,1,I,8,L,1,S,11,0.76653,0.445341,0.341368
12,56,2,9,2,1,1,I,7,L,1,S,12,0.42874,0.792743,0.33988
12,57,8,2,2,9,1,I,6,S,7,L,14,0.760227,0.572248,0.435038
12,58,9,8,1,2,0,I,1,S,1,S,14,0.46098,0.756086,0.348541
12,59,8,9,9,8,1,I,1,S,1,S,13,0.443699,0.751791,0.333569
12,60,9,1,9,8,1,C,8,L,1,S,10,0.797561,0.350141,0.279259
12,61,8,2,8,9,1,I,6,S,1,S,12,0.76156,0.480268,0.365752
12,62,1,2,2,8,1,C,1,S,6,S,12,0.394752,0.795831,0.314156
12,63,1,2,8,9,1,C,1,S,1,S,12,0.42287,0.758449,0.320726
12,64,8,9,1,9,1,C,1,S,8,L,10,0.326316,0.81817,0.266982
12,65,8,2,9,1,1,C,6,S,8,L,9,0.801663,0.299608,0.240184
12,66,1,2,9,8,1,I,1,S,1,S,18,0.480541,0.757492,0.364006
12,67,9,2,2,9,1,I,7,L,7,L,13,0.764656,0.547336,0.418523
12,68,2,9,2,9,1,C,7,L,7,L,9,0.29764,0.804863,0.23956
12,69,8,2,8,1,1,C,6,S,7,L,9,0.792418,0.306134,0.242586
12,70,2,9,8,9,1,C,7,L,1,S,10,0.309805,0.833464,0.258211
12,71,9,1,1,8,1,I,8,L,7,L,13,0.774691,0.539972,0.418311
12,72,1,2,8,1,0,I,1,S,7,L,12,0.76167,0.434309,0.3308
12,73,8,1,8,1,1,C,7,L,7,L,9,0.803552,0.298229,0.239642
12,74,2,1,2,8,1,I,1,S,6,S,18,0.7717,0.605246,0.467069
12,75,9,1,9,1,1,C,8,L,8,L,9,0.839555,0.274153,0.230166
12,76,9,2,2,8,1,I,7,L,6,S,12,0.768157,0.493605,0.379166
12,77,8,2,1,9,1,I,6,S,8,L,15,0.763071,0.600285,0.45806
12,78,9,1,2,1,1,C,8,L,1,S,9,0.757868,0.337208,0.255559
12,79,2,8,2,1,1,I,6,S,1,S,12,0.441026,0.775122,0.341849
12,80,9,8,2,8,0,I,1,S,6,S,12,0.431156,0.758426,0.327
12,81,1,8,1,9,1,C,7,L,8,L,8,0.285589,0.764839,0.21843
12,82,1,2,9,1,0,I,1,S,8,L,12,0.773261,0.425931,0.329356
12,83,8,1,8,9,1,I,7,L,1,S,12,0.775621,0.470081,0.364605
12,84,9,1,8,2,1,C,8,L,6,S,9,0.811971,0.29445,0.239085
12,85,1,2,1,9,1,C,1,S,8,L,10,0.376739,0.763273,0.287555
12,86,9,2,9,1,1,C,7,L,8,L,9,0.829673,0.281055,0.233184
12,87,8,1,1,8,1,I,7,L,7,L,14,0.772606,0.562926,0.43492
12,88,1,9,8,1,1,I,8,L,7,L,12,0.504871,0.765498,0.386478
12,89,8,9,8,1,1,I,1,S,7,L,21,0.63499,0.767119,0.487112
12,90,1,9,8,9,1,C,8,L,1,S,9,0.310084,0.792027,0.245595
12,91,8,9,1,8,1,C,1,S,7,L,10,0.349152,0.785575,0.274285
12,92,1,8,2,8,1,C,7,L,6,S,9,0.297741,0.80587,0.23994
12,93,2,1,1,8,1,I,1,S,7,L,19,0.763845,0.631863,0.482645
12,94,1,2,2,9,1,C,1,S,7,L,11,0.382408,0.788751,0.301624
12,95,2,9,8,2,1,I,7,L,6,S,13,0.529043,0.755293,0.399583
12,96,9,1,2,9,1,I,8,L,7,L,13,0.775957,0.538932,0.418188
12,97,8,9,2,8,1,C,1,S,6,S,11,0.350479,0.815466,0.285803
12,98,8,9,9,2,1,I,1,S,7,L,21,0.629255,0.772307,0.485978
12,99,1,8,1,2,1,C,7,L,1,S,9,0.332408,0.760734,0.252874
12,100,8,2,9,8,1,C,6,S,1,S,10,0.754966,0.378943,0.286089
12,101,1,9,1,8,1,C,8,L,7,L,9,0.261343,0.856766,0.22391
12,102,1,8,8,9,1,C,7,L,1,S,9,0.316871,0.781625,0.247675
12,103,2,1,8,9,1,I,1,S,1,S,16,0.750474,0.583335,0.437778
12,104,1,8,9,8,1,I,7,L,1,S,10,0.356699,0.787228,0.280804
12,105,2,1,9,2,1,C,1,S,7,L,10,0.785618,0.345308,0.27128
12,106,9,2,1,2,1,I,7,L,1,S,11,0.779158,0.420036,0.327275
12,107,9,2,8,9,1,I,7,L,1,S,11,0.755097,0.453489,0.342428
12,108,2,8,1,2,1,C,6,S,1,S,10,0.340049,0.791071,0.269003
12,109,9,2,2,1,1,C,7,L,1,S,10,0.835515,0.312196,0.260845
12,110,8,1,2,1,1,C,7,L,1,S,10,0.816544,0.324349,0.264846
12,111,1,8,9,2,1,I,7,L,7,L,12,0.502885,0.761387,0.382891
12,112,2,8,9,2,1,I,6,S,7,L,14,0.557883,0.757169,0.422412
12,113,8,1,9,2,1,C,7,L,7,L,9,0.795568,0.304486,0.242239
12,114,1,8,8,1,1,I,7,L,7,L,12,0.513259,0.753372,0.386675
12,115,8,1,2,9,1,I,7,L,7,L,14,0.773793,0.561994,0.434867
12,116,8,1,8,2,1,C,7,L,6,S,9,0.785212,0.312,0.244986
12,117,1,2,8,2,0,I,1,S,6,S,13,0.772175,0.445017,0.343631
12,118,9,8,8,1,1,C,1,S,7,L,12,0.798074,0.396903,0.316758
12,119,2,1,1,2,1,I,1,S,1,S,15,0.756355,0.54071,0.408969
12,120,8,1,9,1,1,C,7,L,8,L,9,0.812796,0.291703,0.237095
12,121,2,9,9,2,1,I,7,L,7,L,14,0.545121,0.774714,0.422312
12,122,9,2,8,2,1,C,7,L,6,S,9,0.802089,0.301353,0.241712
12,123,9,8,2,9,0,I,1,S,7,L,11,0.408871,0.761711,0.311442
12,124,2,9,2,8,1,C,7,L,6,S,9,0.325953,0.765435,0.249496
12,125,2,1,1,9,1,I,1,S,8,L,20,0.768585,0.640674,0.492412
12,126,1,9,9,8,1,I,8,L,1,S,10,0.349116,0.79869,0.278836
12,127,8,2,1,2,1,I,6,S,1,S,12,0.78916,0.441613,0.348503
12,128,9,8,1,8,0,I,1,S,7,L,11,0.407514,0.762876,0.310883
12,129,8,9,2,1,1,I,1,S,1,S,17,0.564281,0.76004,0.428876
12,130,9,8,1,9,0,I,1,S,8,L,11,0.383581,0.796399,0.305483
12,131,2,8,1,8,1,C,6,S,7,L,9,0.305164,0.793065,0.242015
12,132,2,8,2,8,1,C,6,S,6,S,9,0.334774,0.752572,0.251942
12,133,1,9,2,8,1,C,8,L,6,S,9,0.290953,0.816272,0.237497
12,134,8,1,1,2,1,I,7,L,1,S,11,0.758959,0.433257,0.328824
12,135,2,8,8,2,1,I,6,S,6,S,14,0.543699,0.767843,0.417476
12,136,2,1,9,1,1,C,1,S,8,L,10,0.805385,0.3308,0.266422
12,137,9,2,1,9,1,I,7,L,8,L,14,0.768899,0.579895,0.445881
12,138,2,9,9,1,1,I,7,L,8,L,14,0.566287,0.758273,0.4294
12,139,9,1,2,8,1,I,8,L,6,S,12,0.779683,0.485222,0.37832
12,140,8,2,8,2,1,C,6,S,6,S,9,0.774079,0.319905,0.247632
12,141,2,9,9,8,1,I,7,L,1,S,11,0.366138,0.807755,0.29575
12,142,9,8,8,9,0,I,1,S,1,S,13,0.445097,0.761933,0.339134
12,143,8,2,2,8,1,I,6,S,6,S,13,0.767418,0.521748,0.400399
12,144,1,9,8,2,1,I,8,L,6,S,12,0.480211,0.78386,0.376418
13,1,2,1,8,9,1,I,1,S,1,S,13,0.753476,0.444966,0.335271
13,2,1,9,2,8,1,C,8,L,6,S,8,0.280933,0.773177,0.217211
13,3,1,2,8,2,0,I,1,S,6,S,12,0.774321,0.428457,0.331763
13,4,8,1,2,9,1,I,7,L,7,L,13,0.770977,0.55119,0.424955
13,5,8,9,2,8,1,C,1,S,6,S,11,0.395933,0.776344,0.30738
13,6,2,1,1,9,1,I,1,S,8,L,21,0.763315,0.644839,0.492216
13,7,8,2,9,1,1,C,6,S,8,L,8,0.787652,0.271753,0.214047
13,8,9,8,9,1,1,C,1,S,8,L,10,0.751643,0.39072,0.293682
13,9,9,1,1,2,1,I,8,L,1,S,10,0.751996,0.3941,0.296362
13,10,9,2,8,1,1,C,7,L,7,L,8,0.779064,0.276721,0.215583
13,11,8,2,1,9,1,I,6,S,8,L,12,0.758902,0.525706,0.398959
13,12,1,8,1,2,1,C,7,L,1,S,9,0.341187,0.755593,0.257798
13,13,9,2,9,2,1,C,7,L,7,L,9,0.827054,0.285019,0.235726
13,14,1,8,9,2,1,I,7,L,7,L,12,0.498558,0.775582,0.386672
13,15,2,1,2,8,1,I,1,S,6,S,21,0.766525,0.64168,0.491864
13,16,8,9,8,2,0,I,1,S,6,S,11,0.75417,0.415777,0.313567
13,17,9,1,2,1,1,C,8,L,1,S,10,0.832372,0.315073,0.262258
13,18,1,8,8,2,1,I,7,L,6,S,12,0.520335,0.757945,0.394385
13,19,9,8,2,9,0,I,1,S,7,L,11,0.3895,0.788094,0.306963
13,20,9,1,8,1,1,C,8,L,7,L,8,0.772087,0.281656,0.217463
13,21,9,2,8,9,1,I,7,L,1,S,10,0.790487,0.354804,0.280468
13,22,2,9,2,1,1,I,7,L,1,S,11,0.40015,0.79407,0.317747
13,23,8,9,9,2,0,I,1,S,7,L,12,0.779417,0.419119,0.326668
13,24,1,9,1,2,1,C,8,L,1,S,9,0.323988,0.780561,0.252892
13,25,1,8,2,9,1,C,7,L,7,L,8,0.281701,0.770183,0.216961
13,26,8,9,2,1,0,I,1,S,1,S,15,0.753087,0.475574,0.358149
13,27,9,2,9,8,1,C,7,L,1,S,10,0.811771,0.337638,0.274085
13,28,1,8,1,8,1,C,7,L,7,L,9,0.272349,0.842758,0.229524
13,29,8,1,1,8,1,I,7,L,7,L,12,0.773258,0.502346,0.388443
13,30,8,9,2,9,1,C,1,S,7,L,11,0.377774,0.800279,0.302325
13,31,1,9,1,9,1,C,8,L,8,L,8,0.27645,0.77839,0.215186
13,32,9,1,2,9,1,I,8,L,7,L,14,0.775766,0.569439,0.441751
13,33,2,8,9,2,1,I,6,S,7,L,14,0.551977,0.774682,0.427607
13,34,8,1,8,1,1,C,7,L,7,L,8,0.791272,0.267732,0.211849
13,35,2,8,1,2,1,C,6,S,1,S,10,0.35396,0.781207,0.276516
13,36,8,2,8,9,1,I,6,S,1,S,10,0.813845,0.337993,0.275074
13,37,8,2,2,8,1,I,6,S,6,S,12,0.764574,0.518951,0.396776
13,38,9,1,2,8,1,I,8,L,6,S,13,0.76422,0.547183,0.418168
13,39,8,9,1,9,1,C,1,S,8,L,11,0.390295,0.78316,0.305664
13,40,2,1,2,1,1,C,1,S,1,S,12,0.800848,0.38135,0.305403
13,41,9,2,9,1,1,C,7,L,8,L,8,0.76906,0.285164,0.219308
13,42,8,2,1,2,1,I,6,S,1,S,10,0.784444,0.370888,0.290941
13,43,1,9,2,1,1,I,8,L,1,S,10,0.372463,0.789006,0.293875
13,44,9,2,2,8,1,I,7,L,6,S,13,0.77361,0.540181,0.417889
13,45,2,1,2,9,1,I,1,S,7,L,21,0.755246,0.654458,0.494277
13,46,8,1,9,8,1,C,7,L,1,S,10,0.82723,0.326355,0.269971
13,47,1,2,1,8,1,C,1,S,7,L,11,0.392402,0.773429,0.303495
13,48,9,1,1,9,1,I,8,L,8,L,13,0.758642,0.553691,0.420054
13,49,2,8,8,9,1,C,6,S,1,S,11,0.358012,0.817514,0.29268
13,50,1,8,9,8,1,I,7,L,1,S,10,0.361524,0.791082,0.285995
13,51,2,1,9,1,1,C,1,S,8,L,10,0.822603,0.32579,0.267996
13,52,9,2,8,2,1,C,7,L,6,S,9,0.844696,0.270528,0.228514
13,53,2,9,9,8,1,I,7,L,1,S,10,0.378698,0.767705,0.290728
13,54,8,2,2,1,1,C,6,S,1,S,9,0.775868,0.324851,0.252042
13,55,2,9,2,8,1,C,7,L,6,S,9,0.274226,0.840386,0.230456
13,56,9,2,2,9,1,I,7,L,7,L,13,0.755446,0.56317,0.425444
13,57,9,8,1,8,0,I,1,S,7,L,12,0.410398,0.788298,0.323516
13,58,1,2,9,1,0,I,1,S,8,L,11,0.776231,0.406465,0.31551
13,59,2,8,8,2,1,I,6,S,6,S,14,0.572503,0.757421,0.433626
13,60,1,2,8,9,1,C,1,S,1,S,16,0.467529,0.750468,0.350865
13,61,1,2,8,1,0,I,1,S,7,L,11,0.78778,0.396706,0.312517
13,62,9,2,1,8,1,I,7,L,7,L,12,0.75729,0.5144,0.38955
13,63,2,8,1,8,1,C,6,S,7,L,9,0.310768,0.789488,0.245348
13,64,2,8,2,1,1,I,6,S,1,S,11,0.428273,0.754779,0.323252
13,65,8,1,8,2,1,C,7,L,6,S,9,0.858903,0.260196,0.223483
13,66,2,8,9,1,1,I,6,S,8,L,15,0.607875,0.756691,0.459973
13,67,2,8,2,8,1,C,6,S,6,S,9,0.297054,0.808336,0.24012
13,68,9,8,9,8,1,C,1,S,1,S,17,0.76748,0.465758,0.35746
13,69,8,9,8,1,0,I,1,S,7,L,10,0.754898,0.389844,0.294292
13,70,1,8,1,9,1,C,7,L,8,L,8,0.291439,0.75662,0.220509
13,71,8,2,2,9,1,I,6,S,7,L,13,0.778843,0.545323,0.424721
13,72,1,9,9,1,1,I,8,L,8,L,12,0.542304,0.756075,0.410023
13,73,9,8,2,8,0,I,1,S,6,S,11,0.407659,0.764159,0.311516
13,74,1,9,9,2,1,I,8,L,7,L,11,0.472727,0.764925,0.361601
13,75,2,8,8,1,1,I,6,S,7,L,16,0.610062,0.774133,0.472269
13,76,9,1,1,8,1,I,8,L,7,L,13,0.781054,0.525063,0.410102
13,77,9,8,8,2,1,C,1,S,6,S,11,0.765896,0.403593,0.30911
13,78,8,2,9,8,1,C,6,S,1,S,9,0.755126,0.346262,0.261471
13,79,8,2,1,8,1,I,6,S,7,L,12,0.781348,0.496447,0.387898
13,80,8,2,8,1,1,C,6,S,7,L,8,0.797657,0.26331,0.210031
13,81,2,9,1,2,1,C,7,L,1,S,10,0.328013,0.817765,0.268238
13,82,1,2,9,8,1,I,1,S,1,S,22,0.583171,0.766048,0.446737
13,83,1,9,8,9,1,C,8,L,1,S,9,0.344997,0.757256,0.261251
13,84,1,2,2,8,1,C,1,S,6,S,11,0.376127,0.795643,0.299262
13,85,9,2,1,9,1,I,7,L,8,L,13,0.768032,0.546689,0.419875
13,86,1,9,9,8,1,I,8,L,1,S,10,0.342771,0.817972,0.280377
13,87,2,1,9,8,1,C,1,S,1,S,13,0.807063,0.397508,0.320814
13,88,9,1,8,9,1,I,8,L,1,S,10,0.781396,0.361205,0.282245
13,89,8,1,2,1,1,C,7,L,1,S,9,0.768539,0.329922,0.253558
13,90,1,8,8,1,1,I,7,L,7,L,13,0.575552,0.752056,0.432847
13,91,8,1,1,2,1,I,7,L,1,S,10,0.776545,0.376416,0.292304
