ANN,trial,N1,N2,P1,P2,Succ.,Cong,Ndist,Ndist,Pdist,Pdist,rt,a1,a2,x_acc
1,1,8,2,2,1,1,C,6,S,1,S,10,0.803248,0.338861,0.272189
1,2,1,2,8,9,1,C,1,S,1,S,15,0.445185,0.774751,0.344907
1,3,8,9,1,8,1,C,1,S,7,L,10,0.387338,0.751065,0.290916
1,4,2,9,2,9,1,C,7,L,7,L,9,0.336442,0.752724,0.253248
1,5,1,9,9,2,1,I,8,L,7,L,13,0.542085,0.772268,0.418634
1,6,1,8,1,9,1,C,7,L,8,L,8,0.275218,0.781389,0.215052
1,7,1,8,8,1,1,I,7,L,7,L,11,0.481885,0.754206,0.363441
1,8,8,1,9,2,1,C,7,L,7,L,8,0.764561,0.287563,0.21986
1,9,2,1,8,9,1,I,1,S,1,S,11,0.783907,0.389602,0.305412
1,10,1,8,9,2,1,I,7,L,7,L,12,0.511208,0.775124,0.396249
1,11,9,2,2,8,1,I,7,L,6,S,11,0.761203,0.476319,0.362575
1,12,1,2,9,8,1,I,1,S,1,S,14,0.436693,0.772054,0.33715
1,13,9,8,1,9,0,I,1,S,8,L,12,0.448858,0.766372,0.343992
1,14,9,1,9,2,1,C,8,L,7,L,8,0.804623,0.260815,0.209858
1,15,9,1,9,1,1,C,8,L,8,L,8,0.795574,0.267636,0.212924
1,16,8,2,8,9,1,I,6,S,1,S,10,0.765423,0.377093,0.288635
1,17,9,8,8,9,1,I,1,S,1,S,16,0.768487,0.476949,0.366529
1,18,9,1,2,8,1,I,8,L,6,S,10,0.752351,0.441632,0.332262
1,19,8,1,1,2,1,I,7,L,1,S,10,0.778745,0.38199,0.297472
1,20,8,2,2,9,1,I,6,S,7,L,12,0.750009,0.509438,0.382083
1,21,8,9,2,8,1,C,1,S,6,S,11,0.407482,0.754297,0.307363
1,22,8,1,8,9,1,I,7,L,1,S,10,0.815442,0.340149,0.277372
1,23,9,2,1,8,1,I,7,L,7,L,12,0.761191,0.536627,0.408476
1,24,2,9,9,1,1,I,7,L,8,L,15,0.585301,0.764146,0.447255
1,25,2,9,1,2,1,C,7,L,1,S,10,0.359813,0.772977,0.278127
1,26,9,2,8,1,1,C,7,L,7,L,8,0.757864,0.294934,0.22352
1,27,2,9,2,1,1,I,7,L,1,S,12,0.412712,0.797744,0.329239
1,28,2,8,2,8,1,C,6,S,6,S,9,0.293387,0.809496,0.237495
1,29,2,8,8,9,1,C,6,S,1,S,10,0.359674,0.78059,0.280758
1,30,2,8,1,2,1,C,6,S,1,S,10,0.322977,0.822431,0.265626
1,31,1,8,9,8,1,I,7,L,1,S,9,0.336457,0.765677,0.257617
1,32,2,1,2,9,1,I,1,S,7,L,14,0.765572,0.550884,0.421741
1,33,1,9,8,9,1,C,8,L,1,S,10,0.347108,0.80003,0.277696
1,34,1,9,8,1,1,I,8,L,7,L,12,0.515474,0.756183,0.389792
1,35,1,8,2,8,1,C,7,L,6,S,8,0.295151,0.750184,0.221418
1,36,8,1,2,1,1,C,7,L,1,S,9,0.768399,0.331667,0.254853
1,37,2,8,9,1,1,I,6,S,8,L,13,0.543822,0.761265,0.413993
1,38,9,8,1,2,1,I,1,S,1,S,21,0.763875,0.614833,0.469656
1,39,1,2,1,2,1,C,1,S,1,S,13,0.418019,0.783141,0.327368
1,40,2,1,8,1,1,C,1,S,7,L,9,0.773982,0.323538,0.250413
1,41,8,2,1,9,1,I,6,S,8,L,14,0.769309,0.574688,0.442113
1,42,9,2,9,2,1,C,7,L,7,L,8,0.773575,0.283521,0.219324
1,43,8,1,9,8,1,C,7,L,1,S,10,0.802816,0.353427,0.283737
1,44,8,2,8,2,1,C,6,S,6,S,9,0.823414,0.28777,0.236954
1,45,1,2,2,9,1,C,1,S,7,L,11,0.397079,0.76581,0.304087
1,46,1,9,9,8,1,I,8,L,1,S,10,0.334482,0.813308,0.272037
1,47,8,9,2,9,1,C,1,S,7,L,12,0.401382,0.788759,0.316593
1,48,8,9,1,9,1,C,1,S,8,L,11,0.378593,0.797672,0.301993
1,49,2,8,9,8,1,I,6,S,1,S,10,0.347048,0.793868,0.275511
1,50,2,8,2,9,1,C,6,S,7,L,9,0.304222,0.795305,0.241949
1,51,2,1,1,8,1,I,1,S,7,L,16,0.76848,0.609917,0.468708
1,52,9,2,9,1,1,C,7,L,8,L,8,0.764525,0.290341,0.221973
1,53,9,1,8,2,1,C,8,L,6,S,8,0.798307,0.265078,0.211613
1,54,1,2,9,2,0,I,1,S,7,L,12,0.766951,0.444054,0.340567
1,55,2,8,8,2,1,I,6,S,6,S,13,0.54763,0.757901,0.415049
1,56,1,8,8,9,1,C,7,L,1,S,9,0.345458,0.756385,0.261299
1,57,9,2,2,1,1,C,7,L,1,S,9,0.778648,0.326722,0.254401
1,58,1,9,8,2,1,I,8,L,6,S,13,0.533211,0.778674,0.415197
1,59,8,9,8,9,1,C,1,S,1,S,17,0.470743,0.754064,0.354971
1,60,8,1,8,1,1,C,7,L,7,L,9,0.857653,0.262548,0.225175
1,61,8,2,8,1,1,C,6,S,7,L,9,0.811957,0.296274,0.240562
1,62,9,2,9,8,1,C,7,L,1,S,10,0.813861,0.347768,0.283035
1,63,9,8,1,8,0,I,1,S,7,L,12,0.440579,0.777021,0.34234
1,64,8,9,9,8,1,I,1,S,1,S,16,0.441541,0.785996,0.34705
1,65,9,1,1,9,1,I,8,L,8,L,11,0.768287,0.492489,0.378372
1,66,2,8,1,9,1,C,6,S,8,L,9,0.269581,0.846526,0.228208
1,67,1,2,1,8,1,C,1,S,7,L,10,0.370619,0.772521,0.286311
1,68,2,9,1,8,1,C,7,L,7,L,9,0.294395,0.813878,0.239602
1,69,9,8,2,1,1,C,1,S,1,S,13,0.764881,0.425177,0.32521
1,70,2,9,1,9,1,C,7,L,8,L,9,0.301801,0.803945,0.242632
1,71,1,9,2,9,1,C,8,L,7,L,9,0.293146,0.8127,0.23824
1,72,9,1,2,1,1,C,8,L,1,S,9,0.812924,0.301628,0.245201
1,73,2,9,8,1,1,I,7,L,7,L,15,0.575903,0.771249,0.444165
1,74,8,1,2,9,1,I,7,L,7,L,11,0.763203,0.464528,0.354529
1,75,9,1,8,9,1,I,8,L,1,S,9,0.786569,0.329059,0.258828
1,76,1,2,8,2,0,I,1,S,6,S,12,0.75795,0.450403,0.341383
1,77,9,8,9,2,1,C,1,S,7,L,10,0.752956,0.380206,0.286278
1,78,8,2,9,2,1,C,6,S,7,L,9,0.830957,0.282694,0.234907
1,79,8,1,9,1,1,C,7,L,8,L,8,0.755512,0.294383,0.22241
1,80,2,1,2,1,1,C,1,S,1,S,10,0.759356,0.37015,0.281075
1,81,8,2,1,8,1,I,6,S,7,L,14,0.76141,0.58443,0.44499
1,82,1,2,2,1,1,I,1,S,1,S,21,0.603567,0.75793,0.457461
1,83,1,9,2,8,1,C,8,L,6,S,9,0.282311,0.826892,0.23344
1,84,2,8,9,2,1,I,6,S,7,L,13,0.556504,0.751494,0.418209
1,85,2,8,1,8,1,C,6,S,7,L,9,0.262175,0.856459,0.224542
1,86,8,9,2,1,0,I,1,S,1,S,19,0.755906,0.524814,0.39671
1,87,2,1,1,9,1,I,1,S,8,L,16,0.775632,0.601406,0.466469
1,88,8,9,1,2,1,C,1,S,1,S,14,0.43805,0.775482,0.3397
1,89,9,1,1,2,1,I,8,L,1,S,9,0.760066,0.358772,0.272691
1,90,9,8,9,1,1,C,1,S,8,L,11,0.809013,0.362935,0.293619
1,91,2,1,8,2,1,C,1,S,6,S,9,0.785439,0.315035,0.24744
1,92,9,8,8,1,1,C,1,S,7,L,11,0.799077,0.369833,0.295525
1,93,1,2,9,1,0,I,1,S,8,L,12,0.75403,0.453807,0.342184
1,94,2,9,8,9,1,C,7,L,1,S,11,0.371553,0.799437,0.297034
1,95,1,8,1,8,1,C,7,L,7,L,8,0.268634,0.790135,0.212257
1,96,1,8,9,1,1,I,7,L,8,L,12,0.498287,0.784877,0.391093
1,97,2,9,9,8,1,I,7,L,1,S,11,0.354228,0.818051,0.289777
1,98,1,9,1,2,1,C,8,L,1,S,9,0.342678,0.753813,0.258315
1,99,9,8,9,8,1,C,1,S,1,S,18,0.763368,0.543239,0.414691
1,100,2,9,8,2,1,I,7,L,6,S,15,0.588653,0.761044,0.447991
1,101,2,9,2,8,1,C,7,L,6,S,9,0.325607,0.766915,0.249713
1,102,9,2,8,9,1,I,7,L,1,S,9,0.752293,0.354154,0.266427
1,103,2,1,1,2,1,I,1,S,1,S,12,0.780217,0.44253,0.345269
1,104,1,8,2,1,1,I,7,L,1,S,10,0.359137,0.796776,0.286152
1,105,9,8,8,2,1,C,1,S,6,S,11,0.812915,0.359578,0.292306
1,106,9,2,1,2,1,I,7,L,1,S,10,0.789789,0.376331,0.297222
1,107,8,9,8,1,0,I,1,S,7,L,12,0.776906,0.420891,0.326993
1,108,9,1,1,8,1,I,8,L,7,L,11,0.760062,0.503283,0.382526
1,109,8,9,9,2,0,I,1,S,7,L,11,0.755097,0.416149,0.314233
1,110,8,2,1,2,1,I,6,S,1,S,11,0.782423,0.412749,0.322944
1,111,8,2,9,1,1,C,6,S,8,L,9,0.820101,0.290707,0.238409
1,112,1,9,1,9,1,C,8,L,8,L,8,0.295968,0.753502,0.223012
1,113,2,1,9,2,1,C,1,S,7,L,9,0.792982,0.309959,0.245792
1,114,2,8,8,1,1,I,6,S,7,L,13,0.533687,0.768599,0.410191
1,115,8,1,1,9,1,I,7,L,8,L,12,0.757926,0.532477,0.403578
1,116,9,1,8,1,1,C,8,L,7,L,8,0.788913,0.272228,0.214764
1,117,1,2,8,1,0,I,1,S,7,L,13,0.771872,0.46192,0.356543
1,118,2,1,9,1,1,C,1,S,8,L,9,0.782126,0.317972,0.248694
1,119,1,2,2,8,1,C,1,S,6,S,11,0.383632,0.783773,0.30068
1,120,9,1,2,9,1,I,8,L,7,L,10,0.76471,0.42515,0.325117
1,121,9,2,2,9,1,I,7,L,7,L,11,0.774649,0.458355,0.355065
1,122,8,9,9,1,0,I,1,S,8,L,12,0.787105,0.413672,0.325604
1,123,1,2,1,9,1,C,1,S,8,L,10,0.378566,0.761928,0.28844
1,124,8,2,2,8,1,I,6,S,6,S,13,0.769801,0.531585,0.409215
1,125,9,8,2,9,0,I,1,S,7,L,16,0.553257,0.750535,0.415239
1,126,1,8,1,2,1,C,7,L,1,S,9,0.318955,0.786098,0.25073
1,127,2,1,9,8,1,C,1,S,1,S,11,0.766582,0.408216,0.312931
1,128,2,9,9,2,1,I,7,L,7,L,15,0.596819,0.754892,0.450534
1,129,8,9,8,2,0,I,1,S,6,S,12,0.791025,0.410269,0.324533
1,130,8,1,1,8,1,I,7,L,7,L,13,0.781939,0.545924,0.426879
1,131,8,1,8,2,1,C,7,L,6,S,8,0.758245,0.291825,0.221275
1,132,8,1,2,8,1,I,7,L,6,S,12,0.787974,0.488437,0.384876
1,133,1,9,2,1,1,I,8,L,1,S,10,0.384933,0.761798,0.293241
1,134,1,8,2,9,1,C,7,L,7,L,9,0.269423,0.844985,0.227658
1,135,1,8,8,2,1,I,7,L,6,S,12,0.502207,0.781473,0.392461
1,136,1,9,9,1,1,I,8,L,8,L,13,0.529403,0.782038,0.414013
1,137,9,1,9,8,1,C,8,L,1,S,9,0.777568,0.338351,0.263091
1,138,2,1,2,8,1,I,1,S,6,S,14,0.75137,0.568977,0.427512
1,139,9,8,2,8,0,I,1,S,6,S,14,0.498968,0.760111,0.379271
1,140,2,8,2,1,1,I,6,S,1,S,11,0.384517,0.801041,0.308014
1,141,9,2,1,9,1,I,7,L,8,L,12,0.769469,0.525979,0.404724
1,142,1,9,1,8,1,C,8,L,7,L,8,0.289383,0.762249,0.220582
1,143,8,2,9,8,1,C,6,S,1,S,10,0.752797,0.390371,0.29387
1,144,9,2,8,2,1,C,7,L,6,S,8,0.767258,0.287783,0.220804
2,1,1,9,9,8,1,I,8,L,1,S,10,0.333316,0.822336,0.274097
2,2,1,8,2,1,1,I,7,L,1,S,10,0.349788,0.814388,0.284863
2,3,2,9,8,1,1,I,7,L,7,L,14,0.570004,0.777954,0.443437
2,4,1,8,1,8,1,C,7,L,7,L,8,0.246722,0.814896,0.201053
2,5,8,2,1,9,1,I,6,S,8,L,13,0.755508,0.559382,0.422617
2,6,8,2,9,8,1,C,6,S,1,S,10,0.798601,0.344616,0.275211
2,7,8,9,9,1,0,I,1,S,8,L,11,0.797109,0.389481,0.310459
2,8,1,2,2,9,1,C,1,S,7,L,10,0.327002,0.812291,0.265621
2,9,8,2,8,9,1,I,6,S,1,S,10,0.784097,0.358441,0.281052
2,10,9,1,8,1,1,C,8,L,7,L,8,0.777799,0.27187,0.21146
2,11,8,1,9,2,1,C,7,L,7,L,8,0.755524,0.289683,0.218862
2,12,1,9,2,9,1,C,8,L,7,L,8,0.267938,0.788704,0.211323
2,13,9,1,8,9,1,I,8,L,1,S,10,0.799924,0.345765,0.276585
2,14,9,2,2,8,1,I,7,L,6,S,13,0.754677,0.562945,0.424842
2,15,8,2,8,2,1,C,6,S,6,S,9,0.836993,0.27162,0.227344
2,16,1,2,1,9,1,C,1,S,8,L,10,0.329794,0.808386,0.266601
2,17,8,2,8,1,1,C,6,S,7,L,8,0.765392,0.282206,0.215998
2,18,8,1,9,8,1,C,7,L,1,S,10,0.806377,0.337633,0.27226
2,19,2,8,1,8,1,C,6,S,7,L,8,0.265232,0.789474,0.209394
2,20,1,9,1,9,1,C,8,L,8,L,8,0.2702,0.785523,0.212248
2,21,2,8,8,2,1,I,6,S,6,S,12,0.49731,0.7821,0.388946
2,22,2,8,1,2,1,C,6,S,1,S,9,0.317317,0.782192,0.248203
2,23,9,1,9,1,1,C,8,L,8,L,8,0.793373,0.263559,0.2091
2,24,8,9,1,2,1,C,1,S,1,S,14,0.419841,0.789109,0.331301
2,25,9,2,9,2,1,C,7,L,7,L,8,0.75604,0.29081,0.219864
2,26,1,8,8,9,1,C,7,L,1,S,9,0.323418,0.784041,0.253573
2,27,2,9,2,8,1,C,7,L,6,S,8,0.283327,0.765383,0.216854
2,28,8,2,1,2,1,I,6,S,1,S,11,0.80377,0.386935,0.311007
2,29,8,9,9,8,1,I,1,S,1,S,20,0.543668,0.750844,0.40821
2,30,9,1,9,2,1,C,8,L,7,L,8,0.761863,0.28519,0.217276
2,31,2,8,2,8,1,C,6,S,6,S,8,0.263156,0.792444,0.208537
2,32,2,9,1,9,1,C,7,L,8,L,8,0.291954,0.75618,0.22077
2,33,2,1,2,8,0,I,1,S,6,S,11,0.420772,0.752692,0.316712
2,34,8,2,2,8,1,I,6,S,6,S,14,0.775482,0.568833,0.44112
2,35,9,1,2,8,1,I,8,L,6,S,13,0.761659,0.556381,0.423772
2,36,9,1,2,1,1,C,8,L,1,S,9,0.762797,0.329297,0.251187
2,37,2,1,8,2,1,C,1,S,6,S,11,0.797173,0.364704,0.290733
2,38,1,2,1,8,1,C,1,S,7,L,10,0.322436,0.815814,0.263048
2,39,1,2,8,9,1,C,1,S,1,S,13,0.41391,0.781704,0.323555
2,40,9,2,1,8,1,I,7,L,7,L,13,0.757293,0.55948,0.423691
2,41,8,9,2,1,1,I,1,S,1,S,26,0.631866,0.770696,0.486976
2,42,9,8,8,2,0,C,1,S,6,S,20,0.638287,0.758592,0.484199
2,43,8,1,2,9,1,I,7,L,7,L,13,0.760141,0.556217,0.422803
2,44,9,2,9,8,1,C,7,L,1,S,10,0.807116,0.33856,0.273257
2,45,1,8,8,1,1,I,7,L,7,L,12,0.519951,0.778699,0.404885
2,46,8,9,9,2,0,I,1,S,7,L,11,0.759238,0.416597,0.316296
2,47,1,8,2,8,1,C,7,L,6,S,8,0.244646,0.817866,0.200088
2,48,9,8,9,2,0,C,1,S,7,L,21,0.642198,0.768298,0.4934
2,49,1,9,9,2,1,I,8,L,7,L,12,0.521504,0.768036,0.400534
2,50,8,2,2,9,1,I,6,S,7,L,13,0.752578,0.563235,0.423878
2,51,8,9,1,9,1,C,1,S,8,L,11,0.367019,0.809623,0.297147
2,52,8,9,1,8,1,C,1,S,7,L,10,0.379536,0.756372,0.287071
2,53,8,2,1,8,1,I,6,S,7,L,14,0.778029,0.565529,0.439998
2,54,9,8,2,8,0,I,1,S,6,S,10,0.319247,0.82399,0.263056
2,55,9,8,2,9,0,I,1,S,7,L,10,0.326333,0.816908,0.266584
2,56,8,1,1,2,1,I,7,L,1,S,10,0.755446,0.389115,0.293955
2,57,9,8,9,1,1,C,1,S,8,L,13,0.750465,0.520536,0.390644
2,58,8,9,8,1,0,I,1,S,7,L,11,0.778562,0.400625,0.311912
2,59,2,9,9,1,1,I,7,L,8,L,14,0.587497,0.766554,0.450348
2,60,2,9,2,9,1,C,7,L,7,L,8,0.289692,0.759361,0.219981
2,61,2,9,9,8,1,I,7,L,1,S,10,0.360116,0.785968,0.283039
2,62,1,9,2,1,1,I,8,L,1,S,10,0.369701,0.787458,0.291124
2,63,9,8,1,9,0,I,1,S,8,L,10,0.329125,0.813003,0.26758
2,64,9,2,8,2,1,C,7,L,6,S,9,0.844741,0.266131,0.224812
2,65,2,8,8,9,1,C,6,S,1,S,9,0.343971,0.755787,0.259969
2,66,8,9,8,2,0,I,1,S,6,S,12,0.773533,0.42586,0.329417
2,67,2,9,8,9,1,C,7,L,1,S,10,0.345613,0.799793,0.276418
2,68,2,1,2,9,0,I,1,S,7,L,12,0.427119,0.780293,0.333278
2,69,1,2,9,8,1,I,1,S,1,S,14,0.432348,0.79017,0.341628
2,70,1,8,9,2,1,I,7,L,7,L,11,0.494469,0.758173,0.374893
2,71,2,1,8,1,1,C,1,S,7,L,10,0.776214,0.357524,0.277515
2,72,9,1,8,2,1,C,8,L,6,S,9,0.851512,0.259892,0.221301
2,73,2,8,1,9,1,C,6,S,8,L,8,0.271783,0.783241,0.212871
2,74,2,1,1,9,0,I,1,S,8,L,12,0.430074,0.77632,0.333875
2,75,2,8,9,1,1,I,6,S,8,L,13,0.563019,0.770172,0.433621
2,76,9,2,2,1,1,C,7,L,1,S,9,0.756026,0.335536,0.253674
2,77,8,9,2,9,1,C,1,S,7,L,10,0.384102,0.752849,0.289171
2,78,9,1,1,2,1,I,8,L,1,S,10,0.763496,0.383421,0.29274
2,79,8,1,2,1,1,C,7,L,1,S,9,0.755413,0.334487,0.252676
2,80,9,2,8,9,1,I,7,L,1,S,10,0.792613,0.352384,0.279304
2,81,2,8,2,9,1,C,6,S,7,L,8,0.26952,0.786422,0.211957
2,82,1,9,1,2,1,C,8,L,1,S,9,0.315528,0.784768,0.247616
2,83,1,2,9,2,1,I,1,S,7,L,21,0.647903,0.758638,0.491524
2,84,2,1,8,9,1,I,1,S,1,S,17,0.783592,0.45993,0.360398
2,85,1,8,2,9,1,C,7,L,7,L,8,0.25101,0.811844,0.203781
2,86,9,8,1,8,0,I,1,S,7,L,10,0.321766,0.820431,0.263987
2,87,2,1,9,2,1,C,1,S,7,L,10,0.757116,0.37313,0.282503
2,88,8,1,2,8,1,I,7,L,6,S,13,0.753502,0.562501,0.423845
2,89,8,2,2,1,1,C,6,S,1,S,10,0.834986,0.309738,0.258627
2,90,1,2,2,8,1,C,1,S,6,S,10,0.319917,0.819373,0.262131
2,91,1,9,2,8,1,C,8,L,6,S,8,0.261573,0.794726,0.207879
2,92,8,9,8,9,1,C,1,S,1,S,17,0.438472,0.793108,0.347755
2,93,8,1,1,8,1,I,7,L,7,L,13,0.756118,0.559036,0.422697
2,94,1,9,8,9,1,C,8,L,1,S,9,0.342182,0.758363,0.259498
2,95,9,1,2,9,1,I,8,L,7,L,13,0.768298,0.550097,0.422639
2,96,1,8,9,8,1,I,7,L,1,S,9,0.333687,0.774374,0.258399
2,97,9,8,8,9,0,I,1,S,1,S,13,0.410686,0.789934,0.324415
2,98,1,8,1,9,1,C,7,L,8,L,8,0.253273,0.808663,0.204812
2,99,9,2,8,1,1,C,7,L,7,L,8,0.771975,0.27749,0.214216
2,100,9,8,9,8,0,C,1,S,1,S,13,0.448614,0.75332,0.33795
2,101,9,2,1,2,1,I,7,L,1,S,10,0.756185,0.390041,0.294943
2,102,2,8,9,8,1,I,6,S,1,S,10,0.335245,0.819596,0.274766
2,103,1,8,8,2,1,I,7,L,6,S,11,0.46864,0.77426,0.362849
2,104,8,1,1,9,1,I,7,L,8,L,13,0.76307,0.552364,0.421493
2,105,2,9,1,8,1,C,7,L,7,L,8,0.285404,0.762414,0.217596
2,106,9,1,1,8,1,I,8,L,7,L,13,0.764275,0.552916,0.42258
2,107,8,2,9,1,1,C,6,S,8,L,8,0.780966,0.273895,0.213903
2,108,8,2,9,2,1,C,6,S,7,L,9,0.859228,0.258534,0.222139
2,109,1,2,9,1,0,I,1,S,8,L,13,0.753689,0.512306,0.38612
2,110,8,9,2,8,1,C,1,S,6,S,10,0.377017,0.759931,0.286506
2,111,1,9,1,8,1,C,8,L,7,L,8,0.263649,0.791756,0.208746
2,112,1,8,9,1,1,I,7,L,8,L,12,0.538399,0.767249,0.413086
2,113,9,1,9,8,1,C,8,L,1,S,10,0.814427,0.33194,0.270341
2,114,2,1,9,1,1,C,1,S,8,L,10,0.79442,0.346981,0.275649
2,115,1,2,8,1,1,I,1,S,7,L,22,0.641495,0.771674,0.495025
2,116,8,1,9,1,1,C,7,L,8,L,8,0.787034,0.268051,0.210965
2,117,2,1,1,8,0,I,1,S,7,L,12,0.422831,0.78346,0.331271
2,118,9,2,9,1,1,C,7,L,8,L,8,0.787549,0.269179,0.211992
2,119,1,8,1,2,1,C,7,L,1,S,9,0.296765,0.810446,0.240512
2,120,2,8,8,1,1,I,6,S,7,L,13,0.54496,0.781689,0.425989
2,121,9,8,2,1,0,C,1,S,1,S,16,0.534632,0.768571,0.410902
2,122,8,1,8,1,1,C,7,L,7,L,8,0.77146,0.276363,0.213203
2,123,1,2,1,2,1,C,1,S,1,S,12,0.377401,0.797655,0.301036
2,124,2,1,9,8,1,C,1,S,1,S,15,0.780799,0.431036,0.336552
2,125,2,8,2,1,1,I,6,S,1,S,10,0.37163,0.784718,0.291625
2,126,9,8,8,1,0,C,1,S,7,L,21,0.651109,0.759352,0.494421
2,127,9,1,1,9,1,I,8,L,8,L,13,0.771228,0.546244,0.421278
2,128,1,9,9,1,1,I,8,L,8,L,13,0.561011,0.772843,0.433573
2,129,9,8,1,2,0,I,1,S,1,S,12,0.375049,0.804692,0.301799
2,130,1,9,8,1,1,I,8,L,7,L,12,0.540415,0.752117,0.406455
2,131,2,9,2,1,1,I,7,L,1,S,10,0.396501,0.75109,0.297808
2,132,1,2,2,1,1,I,1,S,1,S,16,0.539799,0.758244,0.409299
2,133,2,9,9,2,1,I,7,L,7,L,13,0.55291,0.76395,0.422396
2,134,2,9,8,2,1,I,7,L,6,S,13,0.526953,0.781074,0.411589
2,135,8,1,8,9,1,I,7,L,1,S,10,0.791874,0.351458,0.278311
2,136,8,1,8,2,1,C,7,L,6,S,9,0.844129,0.265082,0.223763
2,137,1,9,8,2,1,I,8,L,6,S,12,0.495282,0.784859,0.388727
2,138,2,1,2,1,1,C,1,S,1,S,13,0.77511,0.411942,0.3193
2,139,9,2,1,9,1,I,7,L,8,L,13,0.764245,0.552809,0.422481
2,140,9,2,2,9,1,I,7,L,7,L,13,0.761316,0.556662,0.423795
2,141,2,1,1,2,1,I,1,S,1,S,22,0.75452,0.61803,0.466316
2,142,1,2,8,2,1,I,1,S,6,S,21,0.63026,0.771263,0.486096
2,143,2,9,1,2,1,C,7,L,1,S,9,0.340272,0.751025,0.255553
2,144,2,8,9,2,1,I,6,S,7,L,12,0.523533,0.765276,0.400647
3,1,9,8,2,8,0,I,1,S,6,S,12,0.457144,0.751777,0.343671
3,2,2,1,9,2,1,C,1,S,7,L,10,0.823997,0.317688,0.261774
3,3,9,1,8,2,1,C,8,L,6,S,9,0.828741,0.280799,0.23271
3,4,9,1,9,2,1,C,8,L,7,L,8,0.771819,0.27838,0.214859
3,5,1,2,1,9,1,C,1,S,8,L,9,0.330667,0.758172,0.250702
3,6,1,9,2,9,1,C,8,L,7,L,8,0.274102,0.776804,0.212924
3,7,2,1,1,8,1,I,1,S,7,L,21,0.767111,0.642285,0.492704
3,8,9,2,2,1,1,C,7,L,1,S,10,0.765406,0.361076,0.27637
3,9,2,1,8,1,1,C,1,S,7,L,10,0.792557,0.340013,0.26948
3,10,9,2,8,2,1,C,7,L,6,S,9,0.76888,0.324618,0.249592
3,11,2,1,8,9,1,I,1,S,1,S,13,0.760031,0.44083,0.335044
3,12,1,9,9,1,1,I,8,L,8,L,12,0.534266,0.766619,0.409578
3,13,9,2,2,9,1,I,7,L,7,L,14,0.757432,0.56358,0.426874
3,14,2,8,8,9,1,C,6,S,1,S,11,0.355507,0.817563,0.290649
3,15,8,1,2,9,1,I,7,L,7,L,12,0.786854,0.490383,0.38586
3,16,9,1,1,8,1,I,8,L,7,L,13,0.77202,0.547069,0.422348
3,17,1,9,8,9,1,C,8,L,1,S,9,0.324726,0.782888,0.254224
3,18,9,8,8,9,1,I,1,S,1,S,16,0.771643,0.471821,0.364077
3,19,8,9,2,9,1,C,1,S,7,L,10,0.372724,0.754681,0.281287
3,20,1,9,9,2,1,I,8,L,7,L,12,0.516225,0.781052,0.403198
3,21,9,8,9,2,1,C,1,S,7,L,10,0.779892,0.357187,0.278567
3,22,1,8,1,9,1,C,7,L,8,L,9,0.263622,0.849997,0.224078
3,23,9,2,9,1,1,C,7,L,8,L,9,0.842755,0.269452,0.227082
3,24,1,2,1,2,1,C,1,S,1,S,11,0.343824,0.821329,0.282393
3,25,2,8,1,8,1,C,6,S,7,L,9,0.288707,0.817757,0.236092
3,26,1,9,1,8,1,C,8,L,7,L,8,0.256644,0.805068,0.206616
3,27,8,1,1,9,1,I,7,L,8,L,12,0.778105,0.504043,0.392199
3,28,2,8,2,8,1,C,6,S,6,S,9,0.294247,0.808088,0.237777
3,29,1,8,8,9,1,C,7,L,1,S,10,0.337174,0.809319,0.272881
3,30,2,1,2,1,1,C,1,S,1,S,12,0.781638,0.390102,0.304919
3,31,9,8,1,2,1,I,1,S,1,S,21,0.767954,0.606948,0.466108
3,32,1,2,9,2,1,I,1,S,7,L,17,0.629273,0.752819,0.473729
3,33,2,1,9,1,1,C,1,S,8,L,9,0.758347,0.333604,0.252987
3,34,1,9,2,8,1,C,8,L,6,S,8,0.26127,0.796723,0.20816
3,35,2,9,2,1,1,I,7,L,1,S,10,0.364762,0.781961,0.28523
3,36,1,8,8,1,1,I,7,L,7,L,12,0.523425,0.750988,0.393086
3,37,8,9,1,8,1,C,1,S,7,L,10,0.349114,0.791737,0.276406
3,38,8,1,8,9,1,I,7,L,1,S,10,0.817811,0.33764,0.276126
3,39,8,9,9,1,0,I,1,S,8,L,12,0.762532,0.464075,0.353872
3,40,9,2,9,8,1,C,7,L,1,S,10,0.812584,0.32633,0.265171
3,41,9,1,2,9,1,I,8,L,7,L,12,0.766179,0.504024,0.386173
3,42,2,8,8,1,1,I,6,S,7,L,15,0.575741,0.774911,0.446148
3,43,8,9,8,2,1,I,1,S,6,S,21,0.646347,0.754528,0.487687
3,44,2,9,8,2,1,I,7,L,6,S,11,0.475042,0.750463,0.356501
3,45,1,9,9,8,1,I,8,L,1,S,10,0.381527,0.790005,0.301408
3,46,9,1,1,9,1,I,8,L,8,L,12,0.75743,0.517684,0.39211
3,47,2,8,1,9,1,C,6,S,8,L,9,0.303116,0.795311,0.241071
3,48,8,2,9,1,1,C,6,S,8,L,8,0.757201,0.290914,0.22028
3,49,9,1,9,8,1,C,8,L,1,S,9,0.784645,0.314752,0.246968
3,50,8,2,1,9,1,I,6,S,8,L,14,0.778892,0.555288,0.432509
3,51,2,9,2,9,1,C,7,L,7,L,9,0.263508,0.848811,0.223669
3,52,2,8,9,2,1,I,6,S,7,L,15,0.60444,0.752395,0.454778
3,53,1,2,8,9,1,C,1,S,1,S,11,0.392119,0.766922,0.300725
3,54,9,2,2,8,1,I,7,L,6,S,15,0.765492,0.588132,0.45021
3,55,8,2,8,1,1,C,6,S,7,L,9,0.820092,0.287842,0.236057
3,56,8,9,8,9,1,C,1,S,1,S,13,0.437092,0.756718,0.330755
3,57,8,9,9,2,0,I,1,S,7,L,13,0.760014,0.495429,0.376533
3,58,1,2,8,2,1,I,1,S,6,S,16,0.582168,0.773112,0.450081
3,59,1,8,9,2,1,I,7,L,7,L,13,0.558956,0.759726,0.424653
3,60,9,8,9,1,1,C,1,S,8,L,10,0.798242,0.343038,0.273828
3,61,1,2,9,1,1,I,1,S,8,L,18,0.631285,0.7654,0.483185
3,62,1,2,2,9,1,C,1,S,7,L,10,0.301174,0.8405,0.253137
3,63,2,1,1,9,1,I,1,S,8,L,20,0.757863,0.639181,0.484412
3,64,9,2,1,9,1,I,7,L,8,L,15,0.775775,0.574807,0.445921
3,65,9,2,8,9,1,I,7,L,1,S,11,0.793805,0.379718,0.301422
3,66,2,8,2,9,1,C,6,S,7,L,9,0.309618,0.784317,0.242839
3,67,1,8,8,2,1,I,7,L,6,S,12,0.488933,0.777747,0.380266
3,68,9,8,8,1,1,C,1,S,7,L,11,0.81734,0.352724,0.288295
3,69,8,2,1,2,1,I,6,S,1,S,11,0.77534,0.414356,0.321267
3,70,9,1,2,8,1,I,8,L,6,S,13,0.779132,0.536143,0.417726
3,71,9,1,1,2,1,I,8,L,1,S,10,0.761676,0.389571,0.296727
3,72,2,1,8,2,1,C,1,S,6,S,10,0.761205,0.364056,0.277121
3,73,2,9,9,2,1,I,7,L,7,L,13,0.551075,0.770538,0.424625
3,74,1,2,1,8,1,C,1,S,7,L,9,0.316258,0.780617,0.246876
3,75,1,2,2,8,1,C,1,S,6,S,9,0.321798,0.770948,0.248089
3,76,2,8,8,2,1,I,6,S,6,S,14,0.544908,0.774168,0.421851
3,77,8,1,1,8,1,I,7,L,7,L,12,0.760323,0.53001,0.402979
3,78,8,1,2,8,1,I,7,L,6,S,12,0.767332,0.518929,0.398191
3,79,2,8,9,8,1,I,6,S,1,S,12,0.46795,0.762674,0.356893
3,80,9,8,1,9,0,I,1,S,8,L,13,0.475758,0.759498,0.361337
3,81,9,8,2,9,0,I,1,S,7,L,14,0.497556,0.760316,0.3783
3,82,9,2,1,2,1,I,7,L,1,S,12,0.791803,0.428772,0.339503
3,83,9,2,9,2,1,C,7,L,7,L,9,0.825258,0.282837,0.233413
3,84,2,9,2,8,1,C,7,L,6,S,8,0.28641,0.760869,0.21792
3,85,9,1,2,1,1,C,8,L,1,S,10,0.832756,0.312036,0.25985
3,86,9,1,8,1,1,C,8,L,7,L,9,0.856195,0.259407,0.222103
3,87,9,2,1,8,1,I,7,L,7,L,15,0.758559,0.598325,0.453865
3,88,9,8,2,1,1,C,1,S,1,S,13,0.760818,0.423543,0.322239
3,89,2,1,2,8,1,I,1,S,6,S,20,0.750199,0.648589,0.486571
3,90,8,1,9,1,1,C,7,L,8,L,8,0.803598,0.256709,0.206291
3,91,8,2,2,9,1,I,6,S,7,L,13,0.758051,0.541077,0.410164
3,92,2,1,1,2,1,I,1,S,1,S,16,0.76911,0.535954,0.412208
3,93,8,2,2,8,1,I,6,S,6,S,14,0.768269,0.56933,0.437399
3,94,8,1,8,1,1,C,7,L,7,L,8,0.762935,0.286528,0.218602
3,95,8,9,2,1,1,I,1,S,1,S,16,0.520372,0.756756,0.393795
3,96,9,2,8,1,1,C,7,L,7,L,9,0.796334,0.303227,0.24147
3,97,9,8,8,2,1,C,1,S,6,S,11,0.783673,0.378549,0.296658
3,98,1,8,2,9,1,C,7,L,7,L,9,0.270125,0.839003,0.226636
3,99,1,8,1,8,1,C,7,L,7,L,8,0.287491,0.760755,0.21871
3,100,9,8,9,8,1,C,1,S,1,S,12,0.78253,0.396812,0.310518
3,101,1,8,2,8,1,C,7,L,6,S,8,0.292117,0.75241,0.219792
3,102,8,1,2,1,1,C,7,L,1,S,9,0.768248,0.329059,0.252799
3,103,8,9,2,8,1,C,1,S,6,S,10,0.355359,0.781195,0.277605
3,104,1,9,1,9,1,C,8,L,8,L,8,0.268836,0.78591,0.211281
3,105,2,9,1,8,1,C,7,L,7,L,8,0.281784,0.769214,0.216752
3,106,1,8,2,1,1,I,7,L,1,S,10,0.372042,0.771297,0.286955
3,107,8,1,1,2,1,I,7,L,1,S,10,0.781598,0.377153,0.294782
3,108,9,1,8,9,1,I,8,L,1,S,10,0.797888,0.350058,0.279307
3,109,1,2,2,1,1,I,1,S,1,S,12,0.430821,0.763937,0.32912
3,110,1,9,2,1,1,I,8,L,1,S,9,0.348713,0.755235,0.26336
3,111,9,8,1,8,0,I,1,S,7,L,12,0.450135,0.762858,0.343389
3,112,2,9,1,9,1,C,7,L,8,L,8,0.293976,0.750056,0.220498
3,113,8,1,8,2,1,C,7,L,6,S,9,0.84716,0.269612,0.228404
3,114,2,8,2,1,1,I,6,S,1,S,11,0.404876,0.766054,0.310157
3,115,1,9,8,2,1,I,8,L,6,S,11,0.443495,0.793985,0.352128
3,116,2,9,8,1,1,I,7,L,7,L,12,0.515545,0.762054,0.392874
3,117,1,9,8,1,1,I,8,L,7,L,11,0.477162,0.76816,0.366537
3,118,2,1,2,9,1,I,1,S,7,L,20,0.764955,0.629401,0.481463
3,119,2,9,9,1,1,I,7,L,8,L,13,0.568345,0.756422,0.429909
3,120,9,1,9,1,1,C,8,L,8,L,8,0.787559,0.266249,0.209687
3,121,1,2,8,1,1,I,1,S,7,L,17,0.604162,0.773115,0.467087
3,122,8,1,9,2,1,C,7,L,7,L,8,0.787858,0.26884,0.211808
3,123,1,8,9,1,1,I,7,L,8,L,14,0.575202,0.774797,0.445665
3,124,8,9,1,9,1,C,1,S,8,L,10,0.365202,0.767096,0.280145
3,125,2,9,9,8,1,I,7,L,1,S,11,0.41099,0.797862,0.327913
3,126,8,2,2,1,1,C,6,S,1,S,10,0.792827,0.343182,0.272084
3,127,2,8,1,2,1,C,6,S,1,S,10,0.345323,0.787141,0.271818
3,128,8,2,8,9,1,I,6,S,1,S,10,0.757959,0.381204,0.288937
3,129,1,8,9,8,1,I,7,L,1,S,11,0.418682,0.78681,0.329423
3,130,8,9,9,8,1,I,1,S,1,S,19,0.617683,0.750899,0.463817
3,131,1,9,1,2,1,C,8,L,1,S,9,0.298369,0.810776,0.24191
3,132,1,2,9,8,1,I,1,S,1,S,14,0.511881,0.775466,0.396946
3,133,2,1,9,8,1,C,1,S,1,S,11,0.778717,0.375389,0.292322
3,134,8,2,9,8,1,C,6,S,1,S,10,0.840005,0.308437,0.259088
3,135,2,9,8,9,1,C,7,L,1,S,10,0.329894,0.819983,0.270508
3,136,8,9,1,2,1,C,1,S,1,S,12,0.399737,0.778078,0.311027
3,137,8,2,1,8,1,I,6,S,7,L,14,0.761194,0.579938,0.441445
3,138,8,2,9,2,1,C,6,S,7,L,9,0.849016,0.267453,0.227072
3,139,8,1,9,8,1,C,7,L,1,S,9,0.803064,0.303564,0.243782
3,140,2,8,9,1,1,I,6,S,8,L,16,0.61272,0.765448,0.469006
3,141,1,8,1,2,1,C,7,L,1,S,9,0.333284,0.760636,0.253508
3,142,8,2,8,2,1,C,6,S,6,S,9,0.792638,0.309234,0.245111
3,143,2,9,1,2,1,C,7,L,1,S,9,0.326667,0.770444,0.251679
3,144,8,9,8,1,1,I,1,S,7,L,22,0.649147,0.761336,0.494219
4,1,1,2,1,2,1,C,1,S,1,S,12,0.387456,0.785794,0.304461
4,2,1,9,8,2,1,I,8,L,6,S,11,0.471904,0.750036,0.353945
4,3,2,8,1,8,1,C,6,S,7,L,9,0.267713,0.852844,0.228318
4,4,8,9,1,8,1,C,1,S,7,L,10,0.340912,0.799812,0.272665
4,5,1,8,8,2,1,I,7,L,6,S,11,0.462205,0.764161,0.353199
4,6,9,8,1,8,0,I,1,S,7,L,11,0.365801,0.808791,0.295857
4,7,8,2,2,1,1,C,6,S,1,S,10,0.780245,0.351168,0.273997
4,8,1,8,9,1,1,I,7,L,8,L,12,0.511849,0.77095,0.39461
4,9,1,2,8,2,1,I,1,S,6,S,20,0.635103,0.75336,0.478461
4,10,2,1,9,1,1,C,1,S,8,L,9,0.781838,0.319121,0.249501
4,11,1,2,9,8,1,I,1,S,1,S,13,0.426345,0.768409,0.327607
4,12,8,2,9,2,1,C,6,S,7,L,9,0.76409,0.328706,0.251161
4,13,9,2,8,2,1,C,7,L,6,S,9,0.794098,0.306137,0.243103
4,14,1,2,2,1,1,I,1,S,1,S,18,0.576012,0.770378,0.443746
4,15,1,2,8,1,1,I,1,S,7,L,21,0.640601,0.760603,0.487243
4,16,1,8,1,9,1,C,7,L,8,L,9,0.258851,0.857663,0.222007
4,17,1,8,1,2,1,C,7,L,1,S,9,0.324682,0.774438,0.251446
4,18,1,2,2,9,1,C,1,S,7,L,11,0.3562,0.801076,0.285343
4,19,2,1,8,2,1,C,1,S,6,S,10,0.841952,0.306627,0.258165
4,20,2,8,9,2,1,I,6,S,7,L,12,0.507504,0.766022,0.38876
4,21,8,9,2,9,1,C,1,S,7,L,11,0.346589,0.821658,0.284778
4,22,1,8,9,2,1,I,7,L,7,L,11,0.480653,0.750881,0.360913
4,23,9,2,9,2,1,C,7,L,7,L,9,0.808439,0.295723,0.239074
4,24,1,9,8,9,1,C,8,L,1,S,10,0.340848,0.806996,0.275063
4,25,2,9,2,1,1,I,7,L,1,S,11,0.41749,0.781729,0.326364
4,26,1,8,1,8,1,C,7,L,7,L,8,0.287065,0.762259,0.218818
4,27,1,9,9,2,1,I,8,L,7,L,12,0.496926,0.774638,0.384938
4,28,9,1,9,8,1,C,8,L,1,S,9,0.775975,0.335977,0.260709
4,29,2,1,2,1,1,C,1,S,1,S,10,0.777361,0.355836,0.276613
4,30,9,2,8,1,1,C,7,L,7,L,9,0.815986,0.290687,0.237196
4,31,9,1,1,8,1,I,8,L,7,L,11,0.766747,0.483408,0.370652
4,32,2,1,2,9,1,I,1,S,7,L,14,0.76982,0.539431,0.415264
4,33,1,2,9,1,1,I,1,S,8,L,21,0.649478,0.753235,0.489209
4,34,2,9,1,2,1,C,7,L,1,S,10,0.323671,0.823575,0.266567
4,35,1,9,9,1,1,I,8,L,8,L,12,0.521771,0.756842,0.394898
4,36,2,8,8,2,1,I,6,S,6,S,12,0.488239,0.780064,0.380857
4,37,8,2,8,1,1,C,6,S,7,L,9,0.771637,0.323669,0.249755
4,38,1,9,8,1,1,I,8,L,7,L,12,0.506551,0.767957,0.389009
4,39,2,8,9,1,1,I,6,S,8,L,13,0.535809,0.781201,0.418575
4,40,8,1,2,8,1,I,7,L,6,S,11,0.762684,0.469536,0.358107
4,41,9,1,1,2,1,I,8,L,1,S,10,0.815849,0.350746,0.286156
4,42,1,9,1,9,1,C,8,L,8,L,9,0.267231,0.844997,0.22581
4,43,8,9,8,9,1,C,1,S,1,S,13,0.419772,0.785712,0.32982
4,44,2,8,9,8,1,I,6,S,1,S,10,0.349086,0.803232,0.280398
4,45,9,8,9,1,1,C,1,S,8,L,12,0.761303,0.447428,0.340628
4,46,9,8,8,9,0,I,1,S,1,S,16,0.452064,0.779664,0.352458
4,47,1,2,2,8,1,C,1,S,6,S,11,0.338794,0.827216,0.280256
4,48,1,8,2,1,1,I,7,L,1,S,10,0.390389,0.768175,0.299887
4,49,1,8,9,8,1,I,7,L,1,S,10,0.328964,0.82597,0.271714
4,50,1,9,2,8,1,C,8,L,6,S,9,0.279018,0.831287,0.231944
4,51,1,8,8,1,1,I,7,L,7,L,12,0.496628,0.782065,0.388395
4,52,8,2,2,8,1,I,6,S,6,S,14,0.752513,0.563406,0.423971
4,53,9,8,1,2,0,I,1,S,1,S,13,0.425548,0.768086,0.326858
4,54,8,9,2,8,1,C,1,S,6,S,10,0.365658,0.765653,0.279967
4,55,9,2,2,1,1,C,7,L,1,S,10,0.831679,0.31343,0.260673
4,56,9,1,8,2,1,C,8,L,6,S,8,0.761659,0.29039,0.221178
4,57,2,1,1,2,1,I,1,S,1,S,12,0.776759,0.438274,0.340434
4,58,2,9,8,1,1,I,7,L,7,L,13,0.533082,0.775571,0.413443
4,59,8,1,1,2,1,I,7,L,1,S,10,0.785459,0.372767,0.292794
4,60,8,1,2,1,1,C,7,L,1,S,9,0.790472,0.314443,0.248558
4,61,2,8,8,9,1,C,6,S,1,S,10,0.351775,0.797944,0.280696
4,62,9,1,8,1,1,C,8,L,7,L,8,0.779151,0.277827,0.216469
4,63,8,1,1,8,1,I,7,L,7,L,12,0.773318,0.512738,0.396509
4,64,9,8,9,2,1,C,1,S,7,L,13,0.763975,0.466864,0.356673
4,65,8,1,9,8,1,C,7,L,1,S,10,0.82195,0.336292,0.276415
4,66,1,2,9,2,1,I,1,S,7,L,21,0.634589,0.765351,0.485684
4,67,2,1,1,8,1,I,1,S,7,L,15,0.750657,0.600709,0.450926
4,68,2,9,2,9,1,C,7,L,7,L,9,0.312313,0.788816,0.246357
4,69,9,8,8,2,1,C,1,S,6,S,14,0.764641,0.48697,0.372357
4,70,8,2,8,2,1,C,6,S,6,S,10,0.844836,0.301959,0.255106
4,71,9,8,1,9,0,I,1,S,8,L,11,0.378416,0.789243,0.298663
4,72,8,1,9,2,1,C,7,L,7,L,9,0.855582,0.26424,0.226079
4,73,2,9,9,8,1,I,7,L,1,S,10,0.360161,0.7871,0.283483
4,74,8,1,8,9,1,I,7,L,1,S,10,0.824638,0.331004,0.272958
4,75,9,2,2,8,1,I,7,L,6,S,13,0.78021,0.517689,0.403906
4,76,8,1,2,9,1,I,7,L,7,L,11,0.780089,0.443396,0.345889
4,77,9,1,9,1,1,C,8,L,8,L,8,0.789568,0.270345,0.213456
4,78,2,1,8,9,1,I,1,S,1,S,11,0.782964,0.387064,0.303058
4,79,9,8,8,1,1,C,1,S,7,L,13,0.773581,0.460041,0.355879
4,80,2,1,9,2,1,C,1,S,7,L,9,0.761722,0.333061,0.2537
4,81,2,1,9,8,1,C,1,S,1,S,11,0.77871,0.394019,0.306827
4,82,8,9,8,1,1,I,1,S,7,L,20,0.63231,0.770688,0.487314
4,83,9,1,9,2,1,C,8,L,7,L,8,0.773018,0.281936,0.217941
4,84,1,8,8,9,1,C,7,L,1,S,10,0.331652,0.820682,0.272181
4,85,2,9,1,8,1,C,7,L,7,L,9,0.277632,0.838276,0.232732
4,86,2,9,8,2,1,I,7,L,6,S,12,0.500455,0.76294,0.381817
4,87,9,8,9,8,0,C,1,S,1,S,15,0.4608,0.758094,0.349329
4,88,8,9,8,2,1,I,1,S,6,S,19,0.624371,0.764073,0.477065
4,89,9,1,2,8,1,I,8,L,6,S,11,0.793446,0.446808,0.354518
4,90,9,1,8,9,1,I,8,L,1,S,9,0.777521,0.331937,0.258088
4,91,8,9,9,8,1,I,1,S,1,S,13,0.410553,0.797878,0.327571
4,92,2,1,2,8,1,I,1,S,6,S,15,0.77759,0.56654,0.440536
4,93,9,1,2,1,1,C,8,L,1,S,9,0.81928,0.293831,0.24073
4,94,8,2,1,8,1,I,6,S,7,L,15,0.752961,0.596714,0.449303
4,95,8,1,8,2,1,C,7,L,6,S,9,0.841242,0.274654,0.231051
4,96,2,1,8,1,1,C,1,S,7,L,9,0.769269,0.328024,0.252339
4,97,9,2,9,1,1,C,7,L,8,L,9,0.828555,0.281784,0.233474
4,98,9,8,2,8,0,I,1,S,6,S,11,0.3925,0.772191,0.303085
4,99,2,9,9,2,1,I,7,L,7,L,13,0.523477,0.782394,0.409565
4,100,2,1,1,9,1,I,1,S,8,L,15,0.763866,0.582147,0.444682
4,101,2,8,8,1,1,I,6,S,7,L,12,0.517129,0.759341,0.392677
4,102,1,8,2,9,1,C,7,L,7,L,9,0.283421,0.824541,0.233692
4,103,1,2,1,9,1,C,1,S,8,L,10,0.359037,0.765277,0.274763
4,104,1,2,1,8,1,C,1,S,7,L,10,0.347466,0.783635,0.272286
4,105,8,2,9,1,1,C,6,S,8,L,9,0.784206,0.314767,0.246842
4,106,2,8,2,8,1,C,6,S,6,S,9,0.28961,0.822797,0.23829
4,107,2,9,8,9,1,C,7,L,1,S,10,0.362849,0.781811,0.28368
4,108,1,8,2,8,1,C,7,L,6,S,9,0.270637,0.843954,0.228405
4,109,9,8,2,1,0,C,1,S,1,S,23,0.63606,0.759184,0.482886
4,110,1,9,2,9,1,C,8,L,7,L,9,0.291801,0.811875,0.236906
4,111,8,2,1,9,1,I,6,S,8,L,15,0.76617,0.578152,0.442963
4,112,9,8,2,9,0,I,1,S,7,L,12,0.381623,0.80846,0.308527
4,113,9,1,2,9,1,I,8,L,7,L,10,0.763556,0.416518,0.318034
4,114,1,9,1,8,1,C,8,L,7,L,8,0.294318,0.751243,0.221104
4,115,8,1,1,9,1,I,7,L,8,L,12,0.786563,0.492742,0.387573
4,116,1,2,8,9,1,C,1,S,1,S,13,0.435564,0.756243,0.329392
4,117,8,9,2,1,1,I,1,S,1,S,16,0.559267,0.757561,0.423678
4,118,2,9,2,8,1,C,7,L,6,S,9,0.29953,0.808228,0.242088
4,119,9,2,2,9,1,I,7,L,7,L,12,0.765655,0.485645,0.371836
4,120,1,9,9,8,1,I,8,L,1,S,10,0.33816,0.812285,0.274682
4,121,9,2,1,9,1,I,7,L,8,L,13,0.76565,0.534966,0.409597
4,122,2,8,2,1,1,I,6,S,1,S,11,0.405659,0.798674,0.323989
4,123,2,9,1,9,1,C,7,L,8,L,9,0.287743,0.821937,0.236507
4,124,9,2,8,9,1,I,7,L,1,S,10,0.772943,0.365937,0.282848
4,125,9,1,1,9,1,I,8,L,8,L,11,0.779362,0.46386,0.361515
4,126,9,2,1,2,1,I,7,L,1,S,11,0.78917,0.399068,0.314932
4,127,8,9,9,1,1,I,1,S,8,L,20,0.641907,0.762749,0.489614
4,128,2,8,2,9,1,C,6,S,7,L,9,0.302393,0.803384,0.242938
4,129,8,2,2,9,1,I,6,S,7,L,14,0.772534,0.535095,0.413379
4,130,8,1,8,1,1,C,7,L,7,L,8,0.753377,0.296263,0.223198
4,131,8,9,9,2,1,I,1,S,7,L,19,0.638089,0.752728,0.480307
4,132,2,9,9,1,1,I,7,L,8,L,13,0.548094,0.764371,0.418947
4,133,9,2,1,8,1,I,7,L,7,L,13,0.752139,0.554835,0.417313
4,134,2,8,1,2,1,C,6,S,1,S,9,0.343655,0.753281,0.258869
4,135,8,2,9,8,1,C,6,S,1,S,11,0.781874,0.389215,0.304317
4,136,8,1,9,1,1,C,7,L,8,L,8,0.763794,0.288781,0.220569
4,137,2,8,1,9,1,C,6,S,8,L,9,0.277823,0.836506,0.232401
4,138,8,9,1,2,1,C,1,S,1,S,12,0.374663,0.811003,0.303853
4,139,8,9,1,9,1,C,1,S,8,L,10,0.352484,0.781455,0.27545
4,140,8,2,1,2,1,I,6,S,1,S,12,0.779959,0.4335,0.338113
4,141,8,2,8,9,1,I,6,S,1,S,11,0.786128,0.38226,0.300506
4,142,9,2,9,8,1,C,7,L,1,S,10,0.770254,0.371225,0.285938
4,143,1,9,1,2,1,C,8,L,1,S,9,0.333063,0.761772,0.253718
4,144,1,9,2,1,1,I,8,L,1,S,10,0.399584,0.75449,0.301482
5,1,2,8,8,2,1,I,6,S,6,S,13,0.554579,0.76989,0.426965
5,2,9,2,1,9,1,I,7,L,8,L,14,0.753011,0.597727,0.450095
5,3,9,8,2,1,1,C,1,S,1,S,17,0.782705,0.457634,0.358193
5,4,8,9,2,8,1,C,1,S,6,S,11,0.408131,0.752938,0.307298
5,5,1,2,2,8,1,C,1,S,6,S,11,0.38482,0.778114,0.299434
5,6,2,1,1,2,0,I,1,S,1,S,13,0.421373,0.775881,0.326935
5,7,1,2,9,1,0,I,1,S,8,L,12,0.758849,0.440168,0.334021
5,8,2,9,2,8,1,C,7,L,6,S,8,0.292052,0.756765,0.221014
5,9,8,9,9,2,0,I,1,S,7,L,12,0.779524,0.41164,0.320883
5,10,2,1,9,2,1,C,1,S,7,L,12,0.774436,0.420517,0.325663
5,11,9,2,9,2,1,C,7,L,7,L,9,0.825324,0.280923,0.231853
5,12,9,1,2,9,1,I,8,L,7,L,13,0.76192,0.560163,0.4268
5,13,8,9,2,1,1,I,1,S,1,S,29,0.647698,0.751942,0.487031
5,14,9,8,1,9,0,I,1,S,8,L,10,0.377999,0.769733,0.290958
5,15,2,8,9,2,1,I,6,S,7,L,12,0.502335,0.773004,0.388307
5,16,1,2,1,2,1,C,1,S,1,S,12,0.417707,0.752072,0.314146
5,17,8,1,2,8,1,I,7,L,6,S,11,0.750143,0.483017,0.362332
5,18,2,1,2,1,0,C,1,S,1,S,27,0.628101,0.769315,0.483207
5,19,9,1,1,9,1,I,8,L,8,L,14,0.771107,0.584134,0.45043
5,20,9,2,2,1,1,C,7,L,1,S,10,0.807451,0.336932,0.272056
5,21,9,8,2,9,0,I,1,S,7,L,11,0.385635,0.795514,0.306778
5,22,8,2,8,9,1,I,6,S,1,S,10,0.802032,0.344435,0.276248
5,23,1,9,9,2,1,I,8,L,7,L,12,0.492257,0.781363,0.384632
5,24,9,2,9,1,1,C,7,L,8,L,9,0.833948,0.276843,0.230873
5,25,9,1,2,1,1,C,8,L,1,S,10,0.825712,0.324309,0.267786
5,26,1,8,8,1,1,I,7,L,7,L,13,0.571231,0.752177,0.429667
5,27,1,2,2,1,1,I,1,S,1,S,21,0.58913,0.755384,0.44502
5,28,9,2,2,9,1,I,7,L,7,L,14,0.772668,0.573361,0.443018
5,29,1,9,8,1,1,I,8,L,7,L,13,0.552872,0.773265,0.427517
5,30,2,9,9,1,1,I,7,L,8,L,12,0.495847,0.78714,0.390301
5,31,2,9,8,9,1,C,7,L,1,S,9,0.342222,0.758626,0.259619
5,32,2,8,9,8,1,I,6,S,1,S,10,0.343907,0.80892,0.278194
5,33,8,1,1,2,1,I,7,L,1,S,10,0.754851,0.403277,0.304414
5,34,9,1,8,9,1,I,8,L,1,S,10,0.798978,0.348672,0.278581
5,35,1,2,2,9,1,C,1,S,7,L,10,0.36899,0.766362,0.28278
5,36,1,8,8,9,1,C,7,L,1,S,10,0.343764,0.803046,0.276058
5,37,9,1,9,8,1,C,8,L,1,S,10,0.806835,0.341619,0.275631
5,38,1,8,9,8,1,I,7,L,1,S,10,0.351621,0.795993,0.279888
5,39,1,2,8,1,0,I,1,S,7,L,11,0.768793,0.4098,0.315052
5,40,8,1,1,9,1,I,7,L,8,L,13,0.760086,0.570414,0.433564
5,41,2,1,8,1,1,C,1,S,7,L,11,0.788862,0.39145,0.3088
5,42,8,2,2,1,1,C,6,S,1,S,10,0.828766,0.320071,0.265264
5,43,1,2,9,8,1,I,1,S,1,S,17,0.465995,0.770595,0.359093
5,44,1,9,1,2,1,C,8,L,1,S,9,0.300851,0.798107,0.240111
5,45,8,9,9,8,1,I,1,S,1,S,23,0.5173,0.76664,0.396583
5,46,8,9,1,2,1,C,1,S,1,S,13,0.428906,0.764266,0.327798
5,47,9,1,9,1,1,C,8,L,8,L,9,0.850558,0.265453,0.225784
5,48,1,9,1,9,1,C,8,L,8,L,8,0.250665,0.810053,0.203052
5,49,8,2,2,9,1,I,6,S,7,L,13,0.764388,0.556412,0.425315
5,50,8,1,9,1,1,C,7,L,8,L,8,0.757638,0.288898,0.21888
5,51,2,9,9,8,1,I,7,L,1,S,9,0.347862,0.753775,0.26221
5,52,8,2,2,8,1,I,6,S,6,S,12,0.771383,0.501217,0.38663
5,53,9,8,9,2,1,C,1,S,7,L,11,0.750867,0.414213,0.311019
5,54,8,2,9,8,1,C,6,S,1,S,10,0.809889,0.337382,0.273242
5,55,8,1,2,9,1,I,7,L,7,L,13,0.780446,0.544678,0.425091
5,56,1,9,8,2,1,I,8,L,6,S,13,0.545028,0.777523,0.423772
5,57,8,2,1,2,1,I,6,S,1,S,11,0.789294,0.413528,0.326395
5,58,1,8,2,8,1,C,7,L,6,S,9,0.277895,0.835677,0.232231
5,59,9,1,2,8,1,I,8,L,6,S,12,0.768601,0.505216,0.38831
5,60,2,8,2,9,1,C,6,S,7,L,8,0.277735,0.778727,0.21628
5,61,2,8,8,9,1,C,6,S,1,S,10,0.33605,0.815973,0.274208
5,62,8,1,2,1,1,C,7,L,1,S,9,0.762684,0.336442,0.256599
5,63,2,1,2,9,0,I,1,S,7,L,10,0.383961,0.753592,0.28935
5,64,1,8,8,2,1,I,7,L,6,S,13,0.563386,0.756435,0.426165
5,65,1,2,9,2,0,I,1,S,7,L,13,0.777491,0.444954,0.345948
5,66,9,2,8,9,1,I,7,L,1,S,10,0.780717,0.361295,0.282069
5,67,2,1,8,9,0,I,1,S,1,S,18,0.44765,0.784352,0.351115
5,68,1,9,2,9,1,C,8,L,7,L,8,0.268161,0.786197,0.210827
5,69,2,1,9,8,0,C,1,S,1,S,20,0.500098,0.755319,0.377734
5,70,9,2,8,2,1,C,7,L,6,S,8,0.758003,0.288428,0.218629
5,71,1,2,8,9,1,C,1,S,1,S,16,0.439752,0.781559,0.343692
5,72,8,1,9,2,1,C,7,L,7,L,8,0.7505,0.292004,0.219149
5,73,8,1,1,8,1,I,7,L,7,L,12,0.754611,0.532979,0.402192
5,74,9,8,9,8,1,C,1,S,1,S,21,0.75295,0.485707,0.365713
5,75,1,8,1,9,1,C,7,L,8,L,8,0.265926,0.79243,0.210728
5,76,8,9,8,9,1,C,1,S,1,S,19,0.445871,0.785811,0.35037
5,77,9,1,1,8,1,I,8,L,7,L,13,0.768206,0.551656,0.423785
5,78,1,9,8,9,1,C,8,L,1,S,10,0.325561,0.824902,0.268556
5,79,8,2,8,1,1,C,6,S,7,L,8,0.780861,0.272345,0.212664
5,80,1,8,2,1,1,I,7,L,1,S,10,0.370498,0.778682,0.2885
5,81,2,9,1,2,1,C,7,L,1,S,9,0.294885,0.808777,0.238496
5,82,1,9,2,1,1,I,8,L,1,S,10,0.352295,0.800538,0.282025
5,83,1,8,9,1,1,I,7,L,8,L,12,0.521983,0.753276,0.393197
5,84,8,2,9,1,1,C,6,S,8,L,9,0.853465,0.261288,0.223
5,85,8,9,8,2,0,I,1,S,6,S,11,0.7843,0.38849,0.304693
5,86,1,8,1,8,1,C,7,L,7,L,8,0.288265,0.761429,0.219494
5,87,8,2,1,8,1,I,6,S,7,L,13,0.770673,0.547905,0.422256
5,88,2,1,9,1,1,C,1,S,8,L,12,0.785408,0.414426,0.325494
5,89,9,2,8,1,1,C,7,L,7,L,8,0.764212,0.286008,0.218571
5,90,1,2,1,8,1,C,1,S,7,L,10,0.374964,0.757714,0.284115
5,91,9,2,2,8,1,I,7,L,6,S,13,0.782559,0.522944,0.409235
5,92,2,8,9,1,1,I,6,S,8,L,12,0.513307,0.766913,0.393662
5,93,2,8,2,1,1,I,6,S,1,S,10,0.362784,0.79161,0.287184
5,94,8,9,1,9,1,C,1,S,8,L,10,0.365479,0.775684,0.283496
5,95,9,2,1,8,1,I,7,L,7,L,14,0.778804,0.565226,0.4402
5,96,8,2,9,2,1,C,6,S,7,L,9,0.844841,0.265368,0.224194
5,97,9,8,8,1,1,C,1,S,7,L,10,0.753323,0.389733,0.293595
5,98,2,9,8,1,1,I,7,L,7,L,12,0.542714,0.752914,0.408617
5,99,2,1,1,8,0,I,1,S,7,L,11,0.372379,0.803053,0.29904
5,100,9,8,1,2,0,I,1,S,1,S,14,0.439711,0.782326,0.343997
5,101,2,8,1,9,1,C,6,S,8,L,8,0.260239,0.802583,0.208864
5,102,9,2,9,8,1,C,7,L,1,S,10,0.788574,0.354242,0.279346
5,103,2,8,2,8,1,C,6,S,6,S,9,0.271067,0.847494,0.229728
5,104,1,8,1,2,1,C,7,L,1,S,9,0.317907,0.777788,0.247264
5,105,8,1,9,8,1,C,7,L,1,S,10,0.825943,0.32641,0.269596
5,106,2,1,8,2,1,C,1,S,6,S,11,0.781057,0.395317,0.308765
5,107,8,9,9,1,0,I,1,S,8,L,12,0.790496,0.405549,0.320585
5,108,1,9,9,1,1,I,8,L,8,L,12,0.503229,0.775273,0.39014
5,109,1,8,9,2,1,I,7,L,7,L,12,0.511011,0.759367,0.388044
5,110,8,2,8,2,1,C,6,S,6,S,8,0.774652,0.274765,0.212847
5,111,9,8,9,1,1,C,1,S,8,L,11,0.761436,0.408607,0.311128
5,112,9,8,8,9,1,I,1,S,1,S,32,0.762437,0.63318,0.48276
5,113,1,9,9,8,1,I,8,L,1,S,10,0.333418,0.817849,0.272686
5,114,2,9,1,8,1,C,7,L,7,L,8,0.267953,0.78844,0.211265
5,115,2,9,2,1,1,I,7,L,1,S,10,0.345637,0.812006,0.28066
5,116,8,1,8,1,1,C,7,L,7,L,8,0.793842,0.263614,0.209268
5,117,2,9,8,2,1,I,7,L,6,S,12,0.534823,0.757027,0.404876
5,118,9,2,1,2,1,I,7,L,1,S,11,0.767223,0.43111,0.330758
5,119,2,8,8,1,1,I,6,S,7,L,13,0.562424,0.765632,0.430609
5,120,1,8,2,9,1,C,7,L,7,L,8,0.283422,0.768574,0.217831
5,121,8,2,1,9,1,I,6,S,8,L,14,0.773204,0.58068,0.448984
5,122,8,9,2,9,1,C,1,S,7,L,11,0.369384,0.805068,0.297379
5,123,9,1,1,2,1,I,8,L,1,S,11,0.7863,0.417699,0.328437
5,124,1,9,2,8,1,C,8,L,6,S,9,0.260839,0.855996,0.223277
5,125,2,9,1,9,1,C,7,L,8,L,8,0.245614,0.819441,0.201266
5,126,2,9,9,2,1,I,7,L,7,L,11,0.47888,0.755239,0.361669
5,127,2,1,1,9,0,I,1,S,8,L,10,0.363605,0.780974,0.283966
5,128,9,8,1,8,0,I,1,S,7,L,11,0.391873,0.786673,0.308276
5,129,1,2,1,9,1,C,1,S,8,L,10,0.348634,0.793744,0.276726
5,130,1,9,1,8,1,C,8,L,7,L,8,0.273004,0.779052,0.212684
5,131,2,9,2,9,1,C,7,L,7,L,8,0.26311,0.795585,0.209326
5,132,9,1,8,1,1,C,8,L,7,L,8,0.778336,0.276276,0.215036
5,133,9,8,8,2,1,C,1,S,6,S,11,0.800551,0.378937,0.303358
5,134,8,1,8,9,1,I,7,L,1,S,10,0.818085,0.333463,0.272801
5,135,8,1,8,2,1,C,7,L,6,S,8,0.787633,0.266034,0.209537
5,136,8,9,8,1,0,I,1,S,7,L,11,0.792105,0.384623,0.304662
5,137,9,1,8,2,1,C,8,L,6,S,8,0.772127,0.278696,0.215189
5,138,8,9,1,8,1,C,1,S,7,L,11,0.375622,0.796227,0.29908
5,139,1,2,8,2,0,I,1,S,6,S,11,0.760988,0.413667,0.314796
5,140,9,8,2,8,0,I,1,S,6,S,12,0.409463,0.791114,0.323932
5,141,2,1,2,8,0,I,1,S,6,S,11,0.404888,0.759764,0.30762
5,142,2,8,1,2,1,C,6,S,1,S,9,0.311079,0.789604,0.245629
5,143,9,1,9,2,1,C,8,L,7,L,9,0.841934,0.269534,0.22693
5,144,2,8,1,8,1,C,6,S,7,L,8,0.282578,0.771583,0.218033
6,1,9,8,1,8,0,I,1,S,7,L,11,0.388218,0.779389,0.302573
6,2,9,2,8,1,1,C,7,L,7,L,8,0.769174,0.285965,0.219957
6,3,8,2,9,1,1,C,6,S,8,L,8,0.751788,0.294492,0.221396
6,4,2,9,8,2,1,I,7,L,6,S,13,0.520539,0.783121,0.407645
6,5,2,1,8,2,1,C,1,S,6,S,11,0.788325,0.380859,0.300241
6,6,2,9,9,8,1,I,7,L,1,S,10,0.36427,0.779359,0.283897
6,7,1,2,1,9,1,C,1,S,8,L,10,0.357529,0.77592,0.277414
6,8,9,1,1,8,1,I,8,L,7,L,12,0.750509,0.527231,0.395691
6,9,8,1,9,1,1,C,7,L,8,L,8,0.756335,0.291246,0.22028
6,10,8,9,8,1,0,I,1,S,7,L,11,0.788131,0.389262,0.306789
6,11,2,8,2,8,1,C,6,S,6,S,9,0.268599,0.846429,0.22735
6,12,9,8,8,9,0,I,1,S,1,S,17,0.44484,0.786186,0.349727
6,13,1,9,8,1,1,I,8,L,7,L,13,0.558811,0.765453,0.427744
6,14,9,8,8,1,1,C,1,S,7,L,11,0.784804,0.395922,0.310722
6,15,2,9,9,1,1,I,7,L,8,L,14,0.572726,0.771602,0.441917
6,16,9,2,2,9,1,I,7,L,7,L,13,0.760997,0.558716,0.425181
6,17,2,9,1,2,1,C,7,L,1,S,9,0.330494,0.761295,0.251604
6,18,8,2,9,8,1,C,6,S,1,S,10,0.785894,0.358084,0.281416
6,19,8,9,9,1,0,I,1,S,8,L,11,0.776658,0.396823,0.308196
6,20,8,1,2,1,1,C,7,L,1,S,10,0.829616,0.316122,0.26226
6,21,9,1,1,9,1,I,8,L,8,L,13,0.771957,0.545446,0.421061
6,22,8,1,1,8,1,I,7,L,7,L,13,0.772248,0.536432,0.414259
6,23,9,1,1,2,1,I,8,L,1,S,11,0.782767,0.424175,0.33203
6,24,9,2,9,1,1,C,7,L,8,L,8,0.759897,0.291659,0.221631
6,25,8,9,2,1,0,I,1,S,1,S,17,0.759247,0.493818,0.374929
6,26,8,2,2,8,1,I,6,S,6,S,13,0.760224,0.550985,0.418872
6,27,2,9,2,9,1,C,7,L,7,L,9,0.263593,0.854038,0.225119
6,28,2,9,8,9,1,C,7,L,1,S,10,0.355456,0.78871,0.280352
6,29,8,9,2,9,1,C,1,S,7,L,11,0.375234,0.796955,0.299045
6,30,1,9,1,2,1,C,8,L,1,S,9,0.308163,0.789746,0.24337
6,31,1,9,8,9,1,C,8,L,1,S,10,0.331155,0.819874,0.271505
6,32,1,2,1,2,1,C,1,S,1,S,12,0.376093,0.805486,0.302938
6,33,2,1,1,2,1,I,1,S,1,S,22,0.750286,0.640989,0.480925
6,34,2,1,2,8,0,I,1,S,6,S,12,0.453753,0.758543,0.344191
6,35,1,2,1,8,1,C,1,S,7,L,10,0.368655,0.761016,0.280553
6,36,8,1,8,9,1,I,7,L,1,S,10,0.783052,0.363209,0.284411
6,37,8,9,1,2,1,C,1,S,1,S,13,0.424834,0.770758,0.327445
6,38,2,1,8,9,1,I,1,S,1,S,16,0.758432,0.487597,0.36981
6,39,2,1,9,8,1,C,1,S,1,S,15,0.766286,0.457055,0.350235
6,40,2,1,1,9,0,I,1,S,8,L,12,0.447456,0.764128,0.341914
6,41,8,1,1,9,1,I,7,L,8,L,13,0.760411,0.551523,0.419384
6,42,2,9,9,2,1,I,7,L,7,L,12,0.495101,0.764703,0.378605
6,43,9,8,2,9,0,I,1,S,7,L,11,0.371907,0.803616,0.29887
6,44,1,2,8,2,1,I,1,S,6,S,22,0.653223,0.753208,0.492013
6,45,2,1,2,1,1,C,1,S,1,S,13,0.779337,0.415814,0.324059
6,46,8,1,9,8,1,C,7,L,1,S,10,0.791866,0.353858,0.280208
6,47,8,9,9,2,0,I,1,S,7,L,13,0.78552,0.428226,0.33638
6,48,1,9,9,1,1,I,8,L,8,L,13,0.547677,0.773181,0.423453
6,49,1,2,9,2,1,I,1,S,7,L,22,0.64049,0.763436,0.488973
6,50,8,2,2,9,1,I,6,S,7,L,14,0.778554,0.564806,0.439732
6,51,9,8,1,9,0,I,1,S,8,L,11,0.376529,0.794881,0.299295
6,52,1,9,8,2,1,I,8,L,6,S,12,0.490781,0.782036,0.383808
6,53,2,8,8,2,1,I,6,S,6,S,12,0.511121,0.756008,0.386411
6,54,8,2,1,8,1,I,6,S,7,L,13,0.766044,0.541071,0.414484
6,55,1,8,8,1,1,I,7,L,7,L,13,0.554718,0.769899,0.427077
6,56,1,8,1,9,1,C,7,L,8,L,8,0.279773,0.766673,0.214494
6,57,1,2,2,8,1,C,1,S,6,S,10,0.363951,0.770139,0.280293
6,58,1,9,1,8,1,C,8,L,7,L,8,0.292182,0.751224,0.219494
6,59,8,2,1,9,1,I,6,S,8,L,13,0.754206,0.556163,0.419461
6,60,2,1,9,1,1,C,1,S,8,L,10,0.773297,0.367018,0.283814
6,61,8,1,1,2,1,I,7,L,1,S,11,0.771606,0.429441,0.33136
6,62,2,1,8,1,1,C,1,S,7,L,10,0.784498,0.359836,0.28229
6,63,9,2,1,2,1,I,7,L,1,S,11,0.776765,0.42851,0.332852
6,64,9,1,8,9,1,I,8,L,1,S,10,0.793553,0.358613,0.284578
6,65,2,1,2,9,0,I,1,S,7,L,12,0.442542,0.773006,0.342088
6,66,2,1,9,2,1,C,1,S,7,L,11,0.76793,0.394864,0.303228
6,67,1,9,1,9,1,C,8,L,8,L,8,0.283326,0.762829,0.216129
6,68,2,8,1,8,1,C,6,S,7,L,9,0.272595,0.838224,0.228496
6,69,9,2,8,9,1,I,7,L,1,S,10,0.787791,0.362712,0.285741
6,70,8,9,2,8,1,C,1,S,6,S,11,0.386302,0.782405,0.302245
6,71,1,9,9,8,1,I,8,L,1,S,10,0.339968,0.810523,0.275552
6,72,8,9,8,9,1,C,1,S,1,S,17,0.469606,0.75316,0.353689
6,73,2,9,1,9,1,C,7,L,8,L,9,0.267194,0.8464,0.226153
6,74,1,9,9,2,1,I,8,L,7,L,11,0.464025,0.758013,0.351737
6,75,2,9,1,8,1,C,7,L,7,L,9,0.277375,0.832788,0.230994
6,76,8,2,8,1,1,C,6,S,7,L,8,0.761066,0.288798,0.219794
6,77,2,9,2,1,1,I,7,L,1,S,11,0.391971,0.798229,0.312883
6,78,1,9,2,8,1,C,8,L,6,S,8,0.289032,0.758171,0.219136
6,79,8,9,1,8,1,C,1,S,7,L,11,0.391545,0.772728,0.302558
6,80,9,8,1,2,0,I,1,S,1,S,13,0.41728,0.782186,0.326391
6,81,8,1,9,2,1,C,7,L,7,L,9,0.805809,0.298682,0.240681
6,82,8,1,8,2,1,C,7,L,6,S,9,0.821396,0.288029,0.236586
6,83,2,9,2,8,1,C,7,L,6,S,9,0.273378,0.840993,0.229909
6,84,9,1,9,2,1,C,8,L,7,L,9,0.815259,0.294929,0.240444
6,85,2,8,2,1,1,I,6,S,1,S,11,0.386572,0.804515,0.311003
6,86,9,8,8,2,1,C,1,S,6,S,12,0.762429,0.434436,0.331227
6,87,8,2,2,1,1,C,6,S,1,S,10,0.823644,0.320348,0.263853
6,88,8,2,8,2,1,C,6,S,6,S,9,0.816001,0.291835,0.238138
6,89,2,8,2,9,1,C,6,S,7,L,9,0.258813,0.859474,0.222444
6,90,2,8,8,9,1,C,6,S,1,S,10,0.350274,0.794731,0.278374
6,91,1,2,8,9,1,C,1,S,1,S,14,0.419362,0.793779,0.33288
6,92,1,8,2,8,1,C,7,L,6,S,8,0.285479,0.762016,0.21754
6,93,8,2,9,2,1,C,6,S,7,L,9,0.800413,0.302489,0.242116
6,94,1,2,9,8,1,I,1,S,1,S,14,0.451063,0.760084,0.342846
6,95,9,1,2,8,1,I,8,L,6,S,13,0.777975,0.540269,0.420316
6,96,2,1,1,8,0,I,1,S,7,L,13,0.465305,0.772497,0.359447
6,97,9,8,9,2,1,C,1,S,7,L,13,0.777966,0.439654,0.342036
6,98,1,9,2,9,1,C,8,L,7,L,8,0.280441,0.769442,0.215783
6,99,9,2,8,2,1,C,7,L,6,S,9,0.825593,0.287993,0.237765
6,100,1,8,2,9,1,C,7,L,7,L,8,0.276888,0.773286,0.214113
6,101,9,1,9,1,1,C,8,L,8,L,8,0.764372,0.288465,0.220495
6,102,9,8,9,8,0,C,1,S,1,S,19,0.470459,0.774588,0.364412
6,103,8,9,8,2,0,I,1,S,6,S,12,0.767579,0.425734,0.326784
6,104,8,1,2,9,1,I,7,L,7,L,13,0.755333,0.56036,0.423258
6,105,9,2,9,8,1,C,7,L,1,S,10,0.796604,0.353361,0.281489
6,106,8,2,8,9,1,I,6,S,1,S,10,0.77708,0.367435,0.285526
6,107,2,9,8,1,1,I,7,L,7,L,14,0.583438,0.764008,0.445752
6,108,2,8,1,2,1,C,6,S,1,S,9,0.325715,0.766732,0.249736
6,109,8,1,2,8,1,I,7,L,6,S,13,0.766429,0.546346,0.418735
6,110,9,8,2,1,0,C,1,S,1,S,27,0.646891,0.755144,0.488496
6,111,1,9,2,1,1,I,8,L,1,S,10,0.377718,0.772788,0.291896
6,112,9,2,1,9,1,I,7,L,8,L,13,0.766074,0.549879,0.421248
6,113,9,8,2,8,0,I,1,S,6,S,11,0.382975,0.789066,0.302193
6,114,1,2,8,1,0,I,1,S,7,L,12,0.762483,0.459465,0.350335
6,115,1,2,2,9,1,C,1,S,7,L,10,0.353343,0.784262,0.277113
6,116,2,8,9,2,1,I,6,S,7,L,12,0.489648,0.770982,0.37751
6,117,2,8,1,9,1,C,6,S,8,L,9,0.262415,0.851836,0.223534
6,118,1,2,2,1,1,I,1,S,1,S,18,0.572773,0.756044,0.433042
6,119,1,2,9,1,0,I,1,S,8,L,12,0.751066,0.467196,0.350895
6,120,2,8,8,1,1,I,6,S,7,L,14,0.578248,0.769744,0.445103
6,121,9,1,8,1,1,C,8,L,7,L,8,0.77365,0.282771,0.218766
6,122,9,2,2,1,1,C,7,L,1,S,10,0.834355,0.315625,0.263343
6,123,1,8,1,2,1,C,7,L,1,S,9,0.304237,0.794153,0.241611
6,124,1,8,1,8,1,C,7,L,7,L,8,0.288629,0.755068,0.217935
6,125,9,2,1,8,1,I,7,L,7,L,13,0.777912,0.534788,0.416018
6,126,1,8,9,1,1,I,7,L,8,L,13,0.543584,0.777626,0.422705
6,127,9,1,2,1,1,C,8,L,1,S,9,0.754132,0.342263,0.258111
6,128,9,1,9,8,1,C,8,L,1,S,10,0.802366,0.349262,0.280236
6,129,9,8,9,1,1,C,1,S,8,L,11,0.77333,0.403484,0.312026
6,130,9,2,9,2,1,C,7,L,7,L,9,0.810005,0.298647,0.241905
6,131,9,1,8,2,1,C,8,L,6,S,9,0.830847,0.284276,0.23619
6,132,1,8,2,1,1,I,7,L,1,S,10,0.373569,0.777497,0.290449
6,133,8,9,9,8,1,I,1,S,1,S,20,0.483409,0.758324,0.366581
6,134,1,8,9,8,1,I,7,L,1,S,10,0.335819,0.815233,0.273771
6,135,2,8,9,1,1,I,6,S,8,L,14,0.567535,0.777338,0.441167
6,136,8,9,1,9,1,C,1,S,8,L,11,0.379856,0.78822,0.29941
6,137,9,2,2,8,1,I,7,L,6,S,13,0.772092,0.544702,0.42056
6,138,1,8,8,2,1,I,7,L,6,S,12,0.486572,0.78671,0.382791
6,139,2,8,9,8,1,I,6,S,1,S,10,0.359088,0.78538,0.282021
6,140,1,8,8,9,1,C,7,L,1,S,10,0.327006,0.824584,0.269643
6,141,8,1,8,1,1,C,7,L,7,L,8,0.765613,0.285552,0.218622
6,142,1,8,9,2,1,I,7,L,7,L,11,0.45979,0.762793,0.350724
6,143,9,1,2,9,1,I,8,L,7,L,13,0.76688,0.554283,0.425068
6,144,8,2,1,2,1,I,6,S,1,S,11,0.765339,0.433937,0.332109
7,1,8,2,8,1,1,C,6,S,7,L,8,0.761578,0.282411,0.215078
7,2,2,9,2,9,1,C,7,L,7,L,9,0.268969,0.845102,0.227306
7,3,2,9,2,1,1,I,7,L,1,S,11,0.387734,0.797549,0.309237
7,4,1,9,8,9,1,C,8,L,1,S,9,0.339077,0.757675,0.25691
7,5,2,8,8,2,1,I,6,S,6,S,15,0.580854,0.773736,0.449428
7,6,1,9,9,2,1,I,8,L,7,L,12,0.523579,0.763766,0.399892
7,7,9,1,1,9,1,I,8,L,8,L,13,0.774369,0.543709,0.421032
7,8,9,1,2,8,1,I,8,L,6,S,13,0.76638,0.554761,0.425157
7,9,8,2,1,8,1,I,6,S,7,L,13,0.756202,0.558933,0.422666
7,10,8,9,2,1,1,I,1,S,1,S,22,0.601555,0.766795,0.46127
7,11,8,1,9,2,1,C,7,L,7,L,8,0.778073,0.275108,0.214054
7,12,9,8,2,9,0,I,1,S,7,L,10,0.382148,0.752139,0.287428
7,13,8,9,8,1,0,I,1,S,7,L,12,0.783657,0.422384,0.331004
7,14,1,8,8,2,1,I,7,L,6,S,12,0.526027,0.750155,0.394602
7,15,9,2,8,2,1,C,7,L,6,S,9,0.829994,0.277797,0.23057
7,16,9,8,2,1,0,C,1,S,1,S,23,0.615529,0.764481,0.47056
7,17,1,8,2,9,1,C,7,L,7,L,8,0.286284,0.760325,0.217669
7,18,2,1,9,2,1,C,1,S,7,L,9,0.777604,0.322145,0.250502
7,19,2,1,9,1,1,C,1,S,8,L,9,0.797494,0.307372,0.245127
7,20,8,1,1,8,1,I,7,L,7,L,12,0.753522,0.535047,0.40317
7,21,2,8,9,1,1,I,6,S,8,L,16,0.607436,0.774574,0.470504
7,22,8,1,9,8,1,C,7,L,1,S,10,0.817255,0.33769,0.275979
7,23,2,1,9,8,1,C,1,S,1,S,12,0.799834,0.400416,0.320267
7,24,9,8,9,2,1,C,1,S,7,L,11,0.751337,0.42611,0.320152
7,25,2,9,8,9,1,C,7,L,1,S,10,0.35547,0.783517,0.278517
7,26,9,2,1,8,1,I,7,L,7,L,14,0.761976,0.578536,0.440831
7,27,8,2,2,8,1,I,6,S,6,S,13,0.755826,0.559445,0.422844
7,28,9,1,1,2,1,I,8,L,1,S,10,0.784373,0.363418,0.285055
7,29,1,2,1,2,1,C,1,S,1,S,14,0.404596,0.798021,0.322876
7,30,8,2,8,9,1,I,6,S,1,S,10,0.785239,0.356227,0.279723
7,31,9,2,2,1,1,C,7,L,1,S,10,0.805431,0.331645,0.267117
7,32,9,1,9,2,1,C,8,L,7,L,8,0.762045,0.288568,0.219902
7,33,8,2,1,9,1,I,6,S,8,L,13,0.763816,0.548394,0.418872
7,34,9,2,2,9,1,I,7,L,7,L,14,0.769032,0.56897,0.437555
7,35,9,2,9,2,1,C,7,L,7,L,9,0.844019,0.269956,0.227848
7,36,2,8,2,8,1,C,6,S,6,S,9,0.286239,0.824574,0.236025
7,37,1,9,2,9,1,C,8,L,7,L,8,0.271345,0.779485,0.211509
7,38,9,8,1,9,0,I,1,S,8,L,10,0.382536,0.751572,0.287504
7,39,8,2,1,2,1,I,6,S,1,S,10,0.774989,0.366519,0.284048
7,40,9,2,8,9,1,I,7,L,1,S,10,0.761439,0.375349,0.285806
7,41,9,2,9,8,1,C,7,L,1,S,10,0.76442,0.375933,0.287371
7,42,9,1,8,9,1,I,8,L,1,S,10,0.794623,0.353126,0.280602
7,43,2,1,8,2,1,C,1,S,6,S,9,0.763579,0.329987,0.251971
7,44,2,9,2,8,1,C,7,L,6,S,9,0.262496,0.854866,0.224399
7,45,1,2,8,9,1,C,1,S,1,S,14,0.435118,0.762694,0.331862
7,46,1,2,9,2,0,I,1,S,7,L,12,0.758185,0.450442,0.341519
7,47,9,2,8,1,1,C,7,L,7,L,9,0.851686,0.261741,0.222921
7,48,9,8,8,9,0,I,1,S,1,S,15,0.452085,0.759352,0.343292
7,49,9,8,1,2,0,I,1,S,1,S,15,0.41458,0.804381,0.33348
7,50,9,2,1,9,1,I,7,L,8,L,14,0.76944,0.568423,0.437367
7,51,2,8,1,2,1,C,6,S,1,S,10,0.371979,0.759063,0.282355
7,52,2,9,9,8,1,I,7,L,1,S,10,0.358451,0.784101,0.281062
7,53,1,8,9,8,1,I,7,L,1,S,10,0.335575,0.813716,0.273063
7,54,8,1,8,9,1,I,7,L,1,S,10,0.814274,0.337107,0.274497
7,55,8,9,2,8,1,C,1,S,6,S,10,0.366495,0.766291,0.280842
7,56,9,1,8,2,1,C,8,L,6,S,8,0.750043,0.295034,0.221289
7,57,8,1,2,9,1,I,7,L,7,L,12,0.760735,0.524818,0.399248
7,58,2,8,9,2,1,I,6,S,7,L,15,0.596081,0.763541,0.455132
7,59,1,9,9,1,1,I,8,L,8,L,13,0.547651,0.779291,0.42678
7,60,1,8,8,9,1,C,7,L,1,S,10,0.332594,0.813133,0.270443
7,61,2,1,1,9,1,I,1,S,8,L,17,0.763025,0.619941,0.473031
7,62,1,8,2,1,1,I,7,L,1,S,10,0.376586,0.769429,0.289756
7,63,2,9,1,8,1,C,7,L,7,L,9,0.262823,0.854379,0.224551
7,64,9,1,1,8,1,I,8,L,7,L,13,0.766755,0.554248,0.424972
7,65,2,8,9,8,1,I,6,S,1,S,11,0.358616,0.819864,0.294016
7,66,2,9,1,9,1,C,7,L,8,L,9,0.269323,0.844579,0.227465
7,67,1,8,1,8,1,C,7,L,7,L,8,0.280941,0.768438,0.215886
7,68,8,1,1,9,1,I,7,L,8,L,12,0.761153,0.524234,0.399022
7,69,9,1,9,1,1,C,8,L,8,L,8,0.779615,0.275407,0.214712
7,70,8,9,8,9,1,C,1,S,1,S,15,0.430334,0.780129,0.335716
7,71,1,2,8,2,0,I,1,S,6,S,13,0.764423,0.468217,0.357916
7,72,2,1,2,1,1,C,1,S,1,S,11,0.801009,0.361294,0.2894
7,73,2,8,1,8,1,C,6,S,7,L,9,0.286566,0.824088,0.236156
7,74,9,8,1,8,0,I,1,S,7,L,10,0.375429,0.762118,0.286121
7,75,2,9,9,1,1,I,7,L,8,L,14,0.589345,0.756434,0.445801
7,76,8,1,1,2,1,I,7,L,1,S,10,0.804024,0.347399,0.279317
7,77,1,9,1,2,1,C,8,L,1,S,9,0.331672,0.764843,0.253677
7,78,2,1,1,8,1,I,1,S,7,L,17,0.756462,0.628453,0.475401
7,79,1,9,1,9,1,C,8,L,8,L,8,0.271652,0.779031,0.211625
7,80,1,2,9,8,1,I,1,S,1,S,14,0.44035,0.760928,0.335075
7,81,1,9,1,8,1,C,8,L,7,L,8,0.266002,0.787598,0.209503
7,82,1,2,8,1,0,I,1,S,7,L,12,0.765902,0.442141,0.338637
7,83,2,1,2,8,1,I,1,S,6,S,17,0.756141,0.628864,0.475511
7,84,9,1,2,9,1,I,8,L,7,L,13,0.773952,0.544279,0.421246
7,85,1,8,8,1,1,I,7,L,7,L,13,0.55291,0.764637,0.422775
7,86,1,8,9,2,1,I,7,L,7,L,13,0.545749,0.772572,0.42163
7,87,2,9,8,1,1,I,7,L,7,L,14,0.576414,0.764681,0.440773
7,88,9,1,8,1,1,C,8,L,7,L,8,0.768792,0.280948,0.215991
7,89,2,1,8,9,1,I,1,S,1,S,12,0.795892,0.400723,0.318932
7,90,2,8,2,9,1,C,6,S,7,L,9,0.292712,0.814811,0.238505
7,91,1,8,9,1,1,I,7,L,8,L,13,0.566209,0.756359,0.428257
7,92,1,2,9,1,0,I,1,S,8,L,12,0.779414,0.433978,0.338249
7,93,2,1,1,2,1,I,1,S,1,S,12,0.777385,0.420629,0.326991
7,94,8,2,9,8,1,C,6,S,1,S,10,0.78822,0.356811,0.281245
7,95,9,8,9,1,1,C,1,S,8,L,11,0.772874,0.409742,0.316679
7,96,8,1,2,1,1,C,7,L,1,S,9,0.772235,0.324133,0.250307
7,97,9,8,9,8,0,C,1,S,1,S,15,0.458061,0.75663,0.346583
7,98,8,9,1,8,1,C,1,S,7,L,10,0.36685,0.765771,0.280923
7,99,8,9,8,2,0,I,1,S,6,S,12,0.759549,0.440854,0.33485
7,100,8,9,9,8,1,I,1,S,1,S,15,0.43631,0.777407,0.339191
7,101,9,2,1,2,1,I,7,L,1,S,10,0.751189,0.385642,0.28969
7,102,8,9,1,2,1,C,1,S,1,S,14,0.431515,0.765396,0.33028
7,103,1,2,1,8,1,C,1,S,7,L,10,0.356523,0.776231,0.276744
7,104,2,9,9,2,1,I,7,L,7,L,14,0.569933,0.772139,0.440067
7,105,1,2,2,8,1,C,1,S,6,S,10,0.356168,0.776751,0.276654
7,106,2,1,2,9,1,I,1,S,7,L,17,0.762667,0.620399,0.473158
7,107,1,2,1,9,1,C,1,S,8,L,10,0.36363,0.765686,0.278427
7,108,2,9,8,2,1,I,7,L,6,S,13,0.553847,0.752761,0.416914
7,109,1,8,2,8,1,C,7,L,6,S,8,0.280654,0.768867,0.215785
7,110,9,1,9,8,1,C,8,L,1,S,10,0.797604,0.353709,0.28212
7,111,8,1,2,8,1,I,7,L,6,S,12,0.753144,0.535575,0.403366
7,112,8,1,9,1,1,C,7,L,8,L,8,0.795643,0.261948,0.208417
7,113,8,2,8,2,1,C,6,S,6,S,9,0.851527,0.260262,0.22162
7,114,2,1,8,1,1,C,1,S,7,L,9,0.785271,0.313931,0.246521
7,115,2,8,8,9,1,C,6,S,1,S,11,0.355193,0.819662,0.291138
7,116,8,9,9,1,0,I,1,S,8,L,11,0.762237,0.415659,0.31683
7,117,8,2,2,1,1,C,6,S,1,S,10,0.829231,0.312523,0.259154
7,118,8,2,2,9,1,I,6,S,7,L,13,0.763399,0.548964,0.419078
7,119,8,2,9,2,1,C,6,S,7,L,8,0.754831,0.290031,0.218924
7,120,9,8,8,2,1,C,1,S,6,S,12,0.772631,0.432039,0.333807
7,121,1,8,1,9,1,C,7,L,8,L,8,0.286591,0.759871,0.217772
7,122,1,9,9,8,1,I,8,L,1,S,9,0.34168,0.758531,0.259175
7,123,1,9,8,2,1,I,8,L,6,S,12,0.507188,0.773936,0.392531
7,124,1,9,2,1,1,I,8,L,1,S,10,0.358524,0.79296,0.284295
7,125,9,1,2,1,1,C,8,L,1,S,9,0.753881,0.339157,0.255684
7,126,2,8,2,1,1,I,6,S,1,S,11,0.416538,0.760112,0.316616
7,127,9,2,9,1,1,C,7,L,8,L,8,0.754303,0.292165,0.220381
7,128,8,9,2,9,1,C,1,S,7,L,10,0.373569,0.755792,0.282341
7,129,8,1,8,2,1,C,7,L,6,S,8,0.766071,0.281575,0.215706
7,130,8,2,9,1,1,C,6,S,8,L,8,0.772401,0.27687,0.213855
7,131,2,8,1,9,1,C,6,S,8,L,9,0.293066,0.814288,0.23864
7,132,9,2,2,8,1,I,7,L,6,S,14,0.761609,0.579027,0.440993
7,133,1,9,2,8,1,C,8,L,6,S,8,0.265715,0.788027,0.209391
7,134,8,1,8,1,1,C,7,L,7,L,8,0.78482,0.267489,0.209931
7,135,2,8,8,1,1,I,6,S,7,L,15,0.601824,0.756626,0.455356
7,136,8,9,9,2,0,I,1,S,7,L,12,0.77594,0.430685,0.334185
7,137,1,2,2,9,1,C,1,S,7,L,10,0.363242,0.766252,0.278335
7,138,9,8,2,8,0,I,1,S,6,S,10,0.375073,0.762638,0.286045
7,139,2,9,1,2,1,C,7,L,1,S,10,0.34522,0.79381,0.274039
7,140,9,8,8,1,1,C,1,S,7,L,11,0.759397,0.417603,0.317126
7,141,1,2,2,1,1,I,1,S,1,S,20,0.578076,0.769335,0.444734
7,142,8,9,1,9,1,C,1,S,8,L,10,0.373958,0.755226,0.282422
7,143,1,9,8,1,1,I,8,L,7,L,12,0.531296,0.755465,0.401376
7,144,1,8,1,2,1,C,7,L,1,S,10,0.322344,0.823425,0.265426
8,1,2,9,2,8,1,C,7,L,6,S,9,0.294047,0.812256,0.238841
8,2,1,8,1,8,1,C,7,L,7,L,8,0.273687,0.781385,0.213855
8,3,2,8,8,2,1,I,6,S,6,S,13,0.512155,0.780791,0.399886
8,4,2,8,9,1,1,I,6,S,8,L,15,0.607819,0.761751,0.463007
8,5,1,2,8,2,1,I,1,S,6,S,19,0.630457,0.751019,0.473485
8,6,9,2,1,9,1,I,7,L,8,L,12,0.765597,0.505428,0.386954
8,7,9,1,2,9,1,I,8,L,7,L,11,0.762477,0.469116,0.35769
8,8,1,9,1,2,1,C,8,L,1,S,9,0.338867,0.762187,0.25828
8,9,1,8,8,9,1,C,7,L,1,S,9,0.335157,0.766208,0.2568
8,10,2,1,2,8,1,I,1,S,6,S,18,0.76366,0.625375,0.477573
8,11,9,8,9,2,1,C,1,S,7,L,11,0.780537,0.389106,0.303712
8,12,9,1,1,9,1,I,8,L,8,L,11,0.755716,0.479409,0.362297
8,13,2,9,9,1,1,I,7,L,8,L,16,0.615352,0.769945,0.473788
8,14,9,8,2,9,0,I,1,S,7,L,12,0.436425,0.757553,0.330615
8,15,2,1,8,2,1,C,1,S,6,S,10,0.791302,0.341973,0.270604
8,16,1,2,9,1,0,I,1,S,8,L,13,0.75345,0.513953,0.387238
8,17,2,1,2,1,1,C,1,S,1,S,10,0.795381,0.338021,0.268856
8,18,8,9,8,2,0,I,1,S,6,S,12,0.760257,0.433391,0.329488
8,19,1,9,9,8,1,I,8,L,1,S,9,0.345308,0.75375,0.260276
8,20,8,2,2,1,1,C,6,S,1,S,9,0.800878,0.301443,0.241419
8,21,8,2,8,2,1,C,6,S,6,S,9,0.797464,0.304967,0.2432
8,22,8,1,1,2,1,I,7,L,1,S,10,0.787736,0.366022,0.288329
8,23,1,2,9,8,1,I,1,S,1,S,13,0.391196,0.808183,0.316157
8,24,8,9,2,8,1,C,1,S,6,S,11,0.395519,0.779293,0.308225
8,25,8,1,2,1,1,C,7,L,1,S,9,0.828901,0.282406,0.234086
8,26,1,2,8,1,1,I,1,S,7,L,21,0.655194,0.754314,0.494222
8,27,8,1,9,2,1,C,7,L,7,L,8,0.750951,0.296893,0.222952
8,28,2,1,1,8,1,I,1,S,7,L,18,0.759247,0.631416,0.479401
8,29,8,1,1,8,1,I,7,L,7,L,13,0.781606,0.539572,0.421733
8,30,1,8,9,2,1,I,7,L,7,L,12,0.501638,0.783184,0.392875
8,31,9,1,1,8,1,I,8,L,7,L,12,0.767118,0.521836,0.40031
8,32,9,2,2,8,1,I,7,L,6,S,13,0.776977,0.537367,0.417522
8,33,8,2,9,2,1,C,6,S,7,L,9,0.832896,0.278779,0.232193
8,34,9,8,8,9,1,I,1,S,1,S,24,0.752549,0.61573,0.463368
8,35,2,8,1,8,1,C,6,S,7,L,9,0.277482,0.834605,0.231588
8,36,1,9,2,8,1,C,8,L,6,S,8,0.284776,0.766095,0.218165
8,37,9,1,9,2,1,C,8,L,7,L,8,0.765804,0.285126,0.218351
8,38,2,8,8,1,1,I,6,S,7,L,15,0.588402,0.777172,0.457289
8,39,9,8,1,2,1,I,1,S,1,S,26,0.767929,0.628071,0.482314
8,40,1,8,2,9,1,C,7,L,7,L,9,0.260207,0.85726,0.223065
8,41,1,9,9,1,1,I,8,L,8,L,13,0.571427,0.760829,0.434758
8,42,9,8,1,9,0,I,1,S,8,L,12,0.429245,0.768248,0.329767
8,43,2,1,8,9,1,I,1,S,1,S,12,0.756027,0.432976,0.327342
8,44,2,1,1,9,1,I,1,S,8,L,17,0.757388,0.613421,0.464597
8,45,9,1,2,1,1,C,8,L,1,S,9,0.845845,0.269212,0.227711
8,46,1,2,1,9,1,C,1,S,8,L,10,0.357157,0.770991,0.275365
8,47,2,9,2,9,1,C,7,L,7,L,9,0.316788,0.780208,0.247161
8,48,9,1,9,8,1,C,8,L,1,S,10,0.815167,0.340156,0.277284
8,49,9,8,9,8,1,C,1,S,1,S,24,0.765339,0.600377,0.459492
8,50,9,2,1,2,1,I,7,L,1,S,10,0.778581,0.370398,0.288385
8,51,2,9,8,2,1,I,7,L,6,S,13,0.527859,0.761183,0.401797
8,52,1,2,2,9,1,C,1,S,7,L,10,0.36327,0.761527,0.27664
8,53,8,2,9,8,1,C,6,S,1,S,10,0.76624,0.375408,0.287653
8,54,1,2,1,2,1,C,1,S,1,S,12,0.405891,0.768848,0.312069
8,55,9,1,2,8,1,I,8,L,6,S,12,0.772257,0.514042,0.396972
8,56,8,2,8,9,1,I,6,S,1,S,10,0.7639,0.377873,0.288657
8,57,2,9,8,9,1,C,7,L,1,S,10,0.371132,0.762157,0.282861
8,58,2,8,9,2,1,I,6,S,7,L,14,0.558386,0.776069,0.433346
8,59,9,1,8,1,1,C,8,L,7,L,8,0.793769,0.265093,0.210422
8,60,8,1,8,9,1,I,7,L,1,S,10,0.794715,0.356741,0.283507
8,61,8,9,1,2,1,C,1,S,1,S,16,0.462475,0.769866,0.356044
8,62,8,9,1,9,1,C,1,S,8,L,11,0.416264,0.75116,0.312681
8,63,9,8,2,8,0,I,1,S,6,S,11,0.417326,0.754434,0.314845
8,64,9,2,8,9,1,I,7,L,1,S,10,0.78556,0.361117,0.28368
8,65,2,8,1,2,1,C,6,S,1,S,10,0.350156,0.789327,0.276388
8,66,1,8,9,1,1,I,7,L,8,L,13,0.56234,0.771721,0.433969
8,67,2,1,1,2,1,I,1,S,1,S,13,0.787162,0.438375,0.345072
8,68,8,1,8,2,1,C,7,L,6,S,9,0.825487,0.285929,0.236031
8,69,1,9,8,1,1,I,8,L,7,L,13,0.549748,0.777441,0.427397
8,70,9,8,8,1,1,C,1,S,7,L,10,0.757397,0.38156,0.288992
8,71,8,9,8,9,1,C,1,S,1,S,17,0.466834,0.767281,0.358193
8,72,9,8,9,1,1,C,1,S,8,L,10,0.780217,0.365171,0.284913
8,73,8,2,1,8,1,I,6,S,7,L,14,0.779316,0.562789,0.438591
8,74,9,1,8,2,1,C,8,L,6,S,9,0.842431,0.272735,0.229761
8,75,8,9,2,1,0,I,1,S,1,S,12,0.764969,0.429011,0.32818
8,76,9,2,9,8,1,C,7,L,1,S,10,0.7879,0.358653,0.282582
8,77,9,1,8,9,1,I,8,L,1,S,10,0.812827,0.342621,0.278491
8,78,1,2,2,1,1,I,1,S,1,S,20,0.621671,0.770987,0.4793
8,79,1,8,9,8,1,I,7,L,1,S,9,0.336828,0.76448,0.257498
8,80,8,9,1,8,1,C,1,S,7,L,11,0.390564,0.787023,0.307383
8,81,1,2,8,9,1,C,1,S,1,S,12,0.419208,0.751772,0.315149
8,82,9,1,1,2,1,I,8,L,1,S,10,0.805848,0.351902,0.283579
8,83,1,9,1,8,1,C,8,L,7,L,8,0.281303,0.771913,0.217141
8,84,2,9,8,1,1,I,7,L,7,L,15,0.603342,0.759285,0.458109
8,85,8,2,2,8,1,I,6,S,6,S,13,0.755005,0.555115,0.419115
8,86,8,1,9,1,1,C,7,L,8,L,8,0.798655,0.262972,0.210024
8,87,2,1,9,2,1,C,1,S,7,L,10,0.832144,0.312111,0.259722
8,88,1,9,2,1,1,I,8,L,1,S,11,0.464657,0.762473,0.354289
8,89,8,9,8,1,0,I,1,S,7,L,11,0.794986,0.387583,0.308123
8,90,2,1,9,1,1,C,1,S,8,L,9,0.796186,0.307641,0.244939
8,91,1,9,9,2,1,I,8,L,7,L,12,0.510916,0.771824,0.394337
8,92,8,9,2,9,1,C,1,S,7,L,12,0.405573,0.791188,0.320885
8,93,8,1,2,8,1,I,7,L,6,S,12,0.75406,0.528677,0.398654
8,94,9,2,9,2,1,C,7,L,7,L,9,0.852588,0.26344,0.224605
8,95,8,2,1,9,1,I,6,S,8,L,13,0.776446,0.527102,0.409267
8,96,8,1,9,8,1,C,7,L,1,S,10,0.797055,0.354276,0.282377
8,97,8,2,8,1,1,C,6,S,7,L,8,0.755086,0.293092,0.221309
8,98,8,1,1,9,1,I,7,L,8,L,12,0.775432,0.500175,0.387852
8,99,8,2,9,1,1,C,6,S,8,L,8,0.774825,0.279204,0.216334
8,100,9,2,8,2,1,C,7,L,6,S,9,0.817156,0.289628,0.236671
8,101,1,2,2,8,1,C,1,S,6,S,10,0.337691,0.797626,0.269351
8,102,2,9,1,9,1,C,7,L,8,L,9,0.31154,0.78841,0.245621
8,103,2,8,2,1,1,I,6,S,1,S,13,0.516846,0.776401,0.40128
8,104,9,2,9,1,1,C,7,L,8,L,8,0.79149,0.26586,0.210425
8,105,8,9,9,2,0,I,1,S,7,L,11,0.75873,0.413965,0.314088
8,106,2,1,8,1,1,C,1,S,7,L,9,0.774376,0.32306,0.25017
8,107,2,1,2,9,1,I,1,S,7,L,17,0.764171,0.604328,0.46181
8,108,2,9,1,2,1,C,7,L,1,S,10,0.364153,0.771438,0.280921
8,109,2,1,9,8,1,C,1,S,1,S,12,0.760329,0.428228,0.325594
8,110,1,8,2,1,1,I,7,L,1,S,11,0.455382,0.774044,0.352486
8,111,2,9,9,8,1,I,7,L,1,S,10,0.373472,0.759692,0.283724
8,112,2,8,2,9,1,C,6,S,7,L,9,0.304347,0.795782,0.242194
8,113,9,8,1,8,0,I,1,S,7,L,11,0.412371,0.762164,0.314294
8,114,8,9,9,8,1,I,1,S,1,S,17,0.47884,0.75183,0.360006
8,115,8,2,1,2,1,I,6,S,1,S,10,0.756922,0.387154,0.293045
8,116,2,9,1,8,1,C,7,L,7,L,9,0.289923,0.819031,0.237456
8,117,1,2,1,8,1,C,1,S,7,L,10,0.33307,0.805036,0.268134
8,118,2,8,2,8,1,C,6,S,6,S,9,0.281606,0.82783,0.233122
8,119,1,9,8,9,1,C,8,L,1,S,9,0.343638,0.755477,0.25961
8,120,8,2,2,9,1,I,6,S,7,L,12,0.750187,0.512618,0.384559
8,121,9,2,2,1,1,C,7,L,1,S,9,0.82057,0.286105,0.234769
8,122,9,2,1,8,1,I,7,L,7,L,13,0.771783,0.54504,0.420652
8,123,2,8,8,9,1,C,6,S,1,S,10,0.357135,0.780046,0.278581
8,124,9,8,8,2,1,C,1,S,6,S,12,0.791109,0.399756,0.316251
8,125,1,8,1,9,1,C,7,L,8,L,8,0.292045,0.755697,0.220698
8,126,2,8,1,9,1,C,6,S,8,L,9,0.299099,0.803984,0.240471
8,127,1,9,1,9,1,C,8,L,8,L,9,0.263438,0.854732,0.225169
8,128,2,9,2,1,1,I,7,L,1,S,13,0.53255,0.756792,0.40303
8,129,1,8,8,1,1,I,7,L,7,L,12,0.537808,0.756315,0.406753
8,130,1,8,2,8,1,C,7,L,6,S,8,0.27716,0.775567,0.214956
8,131,1,9,8,2,1,I,8,L,6,S,11,0.460138,0.766712,0.352793
8,132,9,8,2,1,1,C,1,S,1,S,12,0.795822,0.395376,0.314649
8,133,9,1,9,1,1,C,8,L,8,L,8,0.813508,0.251205,0.204357
8,134,1,2,9,2,1,I,1,S,7,L,21,0.634587,0.771516,0.489594
8,135,1,9,2,9,1,C,8,L,7,L,9,0.268687,0.84653,0.227451
8,136,1,8,8,2,1,I,7,L,6,S,11,0.450863,0.778283,0.350899
8,137,8,1,2,9,1,I,7,L,7,L,12,0.782612,0.48948,0.383073
8,138,2,8,9,8,1,I,6,S,1,S,10,0.359475,0.777581,0.279521
8,139,9,2,2,9,1,I,7,L,7,L,12,0.772777,0.494733,0.382318
8,140,1,8,1,2,1,C,7,L,1,S,9,0.330386,0.772918,0.255361
8,141,9,2,8,1,1,C,7,L,7,L,8,0.771751,0.279747,0.215895
8,142,8,9,9,1,0,I,1,S,8,L,10,0.765126,0.383414,0.29336
8,143,8,1,8,1,1,C,7,L,7,L,8,0.778917,0.27686,0.21565
8,144,2,9,9,2,1,I,7,L,7,L,14,0.573843,0.757158,0.43449
9,1,2,8,2,8,1,C,6,S,6,S,9,0.304184,0.803483,0.244407
9,2,2,9,2,1,1,I,7,L,1,S,13,0.503473,0.774149,0.389763
9,3,2,8,8,1,1,I,6,S,7,L,13,0.550031,0.760302,0.418189
9,4,8,2,9,1,1,C,6,S,8,L,8,0.76543,0.28607,0.218966
9,5,9,8,9,2,1,C,1,S,7,L,11,0.760457,0.407269,0.30971
9,6,1,2,9,2,1,I,1,S,7,L,21,0.645071,0.759381,0.489855
9,7,9,1,8,1,1,C,8,L,7,L,9,0.851723,0.268615,0.228785
9,8,8,9,8,2,0,I,1,S,6,S,10,0.801225,0.336286,0.269441
9,9,2,8,9,8,1,I,6,S,1,S,10,0.369305,0.776074,0.286608
9,10,8,2,9,8,1,C,6,S,1,S,10,0.813983,0.339322,0.276203
9,11,8,2,8,2,1,C,6,S,6,S,9,0.825067,0.286757,0.236594
9,12,2,8,9,2,1,I,6,S,7,L,13,0.530641,0.775315,0.411414
9,13,1,8,8,9,1,C,7,L,1,S,9,0.337039,0.761112,0.256524
9,14,9,1,2,1,1,C,8,L,1,S,9,0.791747,0.313271,0.248031
9,15,1,2,9,8,1,I,1,S,1,S,14,0.42923,0.791874,0.339896
9,16,1,8,2,9,1,C,7,L,7,L,9,0.280002,0.831733,0.232887
9,17,2,9,1,9,1,C,7,L,8,L,9,0.313966,0.788969,0.247709
9,18,2,9,8,2,1,I,7,L,6,S,14,0.542609,0.777666,0.421969
9,19,1,9,8,1,1,I,8,L,7,L,13,0.549847,0.757954,0.416758
9,20,1,2,1,9,1,C,1,S,8,L,10,0.36102,0.772432,0.278863
9,21,1,8,1,9,1,C,7,L,8,L,9,0.259435,0.858322,0.222679
9,22,1,9,1,2,1,C,8,L,1,S,10,0.331899,0.811456,0.269321
9,23,9,1,1,2,1,I,8,L,1,S,10,0.766561,0.386598,0.296351
9,24,9,2,2,9,1,I,7,L,7,L,12,0.770498,0.498583,0.384157
9,25,9,1,2,9,1,I,8,L,7,L,12,0.77924,0.491752,0.383193
9,26,8,9,2,1,0,I,1,S,1,S,10,0.772567,0.356808,0.275658
9,27,8,9,1,2,0,C,1,S,1,S,13,0.781121,0.453809,0.35448
9,28,1,8,9,1,1,I,7,L,8,L,13,0.539775,0.780015,0.421033
9,29,8,1,2,9,1,I,7,L,7,L,11,0.758905,0.47006,0.356731
9,30,2,1,8,9,1,I,1,S,1,S,20,0.763891,0.597231,0.456219
9,31,9,1,8,2,1,C,8,L,6,S,9,0.814902,0.296406,0.241542
9,32,2,8,1,2,1,C,6,S,1,S,10,0.332828,0.81315,0.270639
9,33,8,9,1,9,0,C,1,S,8,L,17,0.762387,0.614467,0.468462
9,34,8,1,1,8,1,I,7,L,7,L,12,0.770495,0.511928,0.394438
9,35,9,1,8,9,1,I,8,L,1,S,10,0.767383,0.386839,0.296854
9,36,8,9,1,8,0,C,1,S,7,L,17,0.761018,0.617047,0.469584
9,37,2,8,2,1,1,I,6,S,1,S,12,0.46279,0.788525,0.364922
9,38,1,9,2,9,1,C,8,L,7,L,9,0.303699,0.799844,0.242912
9,39,8,1,9,1,1,C,7,L,8,L,8,0.771322,0.281551,0.217166
9,40,8,1,8,2,1,C,7,L,6,S,9,0.83183,0.281646,0.234281
9,41,8,1,9,2,1,C,7,L,7,L,9,0.852552,0.265932,0.226721
9,42,1,9,9,2,1,I,8,L,7,L,13,0.530457,0.772968,0.410026
9,43,1,8,9,8,1,I,7,L,1,S,10,0.342343,0.809469,0.277116
9,44,2,1,2,9,0,I,1,S,7,L,14,0.509088,0.752047,0.382858
9,45,1,9,1,8,1,C,8,L,7,L,9,0.28254,0.82851,0.234087
9,46,8,1,1,9,1,I,7,L,8,L,12,0.771617,0.509285,0.392973
9,47,9,2,2,8,1,I,7,L,6,S,12,0.769123,0.501664,0.385841
9,48,9,2,9,8,1,C,7,L,1,S,10,0.794632,0.355917,0.282823
9,49,1,9,8,9,1,C,8,L,1,S,10,0.332721,0.811698,0.270069
9,50,8,9,9,1,0,I,1,S,8,L,9,0.767177,0.328533,0.252043
9,51,1,8,9,2,1,I,7,L,7,L,12,0.498503,0.776268,0.386972
9,52,9,8,2,1,1,C,1,S,1,S,12,0.751368,0.432097,0.324664
9,53,9,8,1,2,1,I,1,S,1,S,27,0.757065,0.647723,0.490368
9,54,2,9,8,9,1,C,7,L,1,S,10,0.367395,0.768513,0.282348
9,55,2,9,1,2,1,C,7,L,1,S,10,0.366573,0.768271,0.281627
9,56,2,9,8,1,1,I,7,L,7,L,15,0.585815,0.769787,0.450953
9,57,8,9,8,9,0,C,1,S,1,S,13,0.781977,0.454005,0.355022
9,58,9,2,8,2,1,C,7,L,6,S,9,0.807239,0.302254,0.243991
9,59,2,8,1,9,1,C,6,S,8,L,9,0.284275,0.827886,0.235347
9,60,1,8,2,8,1,C,7,L,6,S,9,0.279345,0.83392,0.232951
9,61,8,1,9,8,1,C,7,L,1,S,10,0.821253,0.333814,0.274146
9,62,1,2,1,2,1,C,1,S,1,S,12,0.408473,0.767565,0.31353
9,63,1,8,8,1,1,I,7,L,7,L,12,0.518176,0.76133,0.394503
9,64,9,8,9,1,1,C,1,S,8,L,11,0.798068,0.379249,0.302667
9,65,2,1,1,8,0,I,1,S,7,L,13,0.470547,0.772025,0.363274
9,66,1,8,1,8,1,C,7,L,7,L,8,0.295927,0.750507,0.222095
9,67,8,2,8,9,1,I,6,S,1,S,10,0.778329,0.37664,0.293149
9,68,9,2,8,1,1,C,7,L,7,L,9,0.84406,0.274463,0.231663
9,69,2,1,9,1,1,C,1,S,8,L,10,0.766068,0.374208,0.286668
9,70,8,9,9,2,0,I,1,S,7,L,10,0.825555,0.31816,0.262658
9,71,9,2,2,1,1,C,7,L,1,S,9,0.784084,0.319119,0.250216
9,72,9,8,8,2,1,C,1,S,6,S,12,0.787595,0.406226,0.319941
9,73,2,9,9,1,1,I,7,L,8,L,15,0.60194,0.756815,0.455557
9,74,1,2,2,8,1,C,1,S,6,S,11,0.351349,0.82026,0.288198
9,75,9,2,9,1,1,C,7,L,8,L,8,0.750166,0.29987,0.224952
9,76,8,2,1,9,1,I,6,S,8,L,12,0.764244,0.515056,0.393629
9,77,9,1,1,8,1,I,8,L,7,L,12,0.752215,0.528018,0.397183
9,78,9,8,8,1,1,C,1,S,7,L,11,0.779783,0.392809,0.306306
9,79,1,9,1,9,1,C,8,L,8,L,9,0.283132,0.826433,0.233989
9,80,9,8,1,9,0,I,1,S,8,L,12,0.41533,0.788553,0.32751
9,81,1,2,2,1,1,I,1,S,1,S,20,0.615033,0.772533,0.475133
9,82,2,9,9,8,1,I,7,L,1,S,11,0.381096,0.796681,0.303612
9,83,9,1,2,8,1,I,8,L,6,S,12,0.777865,0.494833,0.384913
9,84,2,1,1,2,1,I,1,S,1,S,20,0.76376,0.596382,0.455493
9,85,2,1,9,2,1,C,1,S,7,L,11,0.797,0.375714,0.299444
9,86,2,9,9,2,1,I,7,L,7,L,14,0.570027,0.756328,0.431127
9,87,9,1,9,8,1,C,8,L,1,S,10,0.803038,0.349522,0.280679
9,88,1,9,8,2,1,I,8,L,6,S,12,0.498586,0.760503,0.379176
9,89,8,1,8,9,1,I,7,L,1,S,10,0.785599,0.371131,0.29156
9,90,2,9,1,8,1,C,7,L,7,L,9,0.313373,0.791047,0.247893
9,91,1,8,8,2,1,I,7,L,6,S,11,0.465314,0.758198,0.352801
9,92,2,1,2,1,1,C,1,S,1,S,12,0.801337,0.389311,0.311969
9,93,1,9,9,1,1,I,8,L,8,L,14,0.567614,0.773897,0.439275
9,94,9,1,9,2,1,C,8,L,7,L,9,0.835624,0.280692,0.234553
9,95,1,2,9,1,1,I,1,S,8,L,22,0.650069,0.76452,0.496991
9,96,8,2,8,1,1,C,6,S,7,L,8,0.751785,0.296206,0.222683
9,97,2,1,1,9,0,I,1,S,8,L,13,0.471776,0.769331,0.362952
9,98,8,1,2,8,1,I,7,L,6,S,11,0.757731,0.472937,0.358359
9,99,1,8,2,1,1,I,7,L,1,S,11,0.432135,0.781795,0.337841
9,100,2,9,2,8,1,C,7,L,6,S,9,0.333875,0.764567,0.25527
9,101,9,8,1,8,0,I,1,S,7,L,12,0.414207,0.791196,0.327719
9,102,8,1,2,1,1,C,7,L,1,S,9,0.808675,0.29851,0.241398
9,103,1,2,8,1,1,I,1,S,7,L,22,0.640675,0.772614,0.494995
9,104,1,2,8,9,1,C,1,S,1,S,12,0.409349,0.767751,0.314279
9,105,9,8,2,9,0,I,1,S,7,L,12,0.441232,0.754929,0.333099
9,106,1,9,2,8,1,C,8,L,6,S,9,0.303041,0.80203,0.243048
9,107,1,2,8,2,1,I,1,S,6,S,20,0.641711,0.750664,0.481709
9,108,9,1,9,1,1,C,8,L,8,L,8,0.756673,0.294794,0.223063
9,109,8,2,9,2,1,C,6,S,7,L,9,0.845789,0.271043,0.229245
9,110,1,2,1,8,1,C,1,S,7,L,10,0.360219,0.774776,0.279089
9,111,8,1,8,1,1,C,7,L,7,L,8,0.757677,0.291687,0.221005
9,112,2,1,8,1,1,C,1,S,7,L,11,0.816326,0.361254,0.294901
9,113,2,8,1,8,1,C,6,S,7,L,9,0.283682,0.829963,0.235446
9,114,1,9,9,8,1,I,8,L,1,S,10,0.368376,0.774381,0.285263
9,115,1,2,2,9,1,C,1,S,7,L,11,0.352523,0.817383,0.288147
9,116,2,9,2,9,1,C,7,L,7,L,9,0.334533,0.76238,0.255041
9,117,2,8,2,9,1,C,6,S,7,L,9,0.304842,0.801297,0.244269
9,118,8,9,2,9,0,C,1,S,7,L,16,0.7606,0.593746,0.451603
9,119,1,9,2,1,1,I,8,L,1,S,12,0.462359,0.786374,0.363587
9,120,9,2,8,9,1,I,7,L,1,S,10,0.758977,0.393235,0.298456
9,121,8,9,2,8,0,C,1,S,6,S,16,0.758877,0.5969,0.452973
9,122,9,2,1,9,1,I,7,L,8,L,13,0.778053,0.535408,0.416575
9,123,8,2,2,9,1,I,6,S,7,L,11,0.751457,0.47578,0.357528
9,124,9,1,1,9,1,I,8,L,8,L,12,0.753338,0.525375,0.395785
9,125,2,8,8,9,1,C,6,S,1,S,10,0.33365,0.813391,0.271388
9,126,9,8,9,8,1,C,1,S,1,S,18,0.760273,0.476344,0.362152
9,127,8,2,1,2,1,I,6,S,1,S,10,0.777506,0.376398,0.292652
9,128,9,2,1,2,1,I,7,L,1,S,10,0.758155,0.392993,0.297949
9,129,9,2,9,2,1,C,7,L,7,L,9,0.827961,0.28654,0.237244
9,130,8,9,8,1,0,I,1,S,7,L,9,0.751151,0.340256,0.255584
9,131,9,2,1,8,1,I,7,L,7,L,13,0.776824,0.538101,0.41801
9,132,8,9,9,8,0,I,1,S,1,S,12,0.805314,0.389562,0.31372
9,133,2,1,8,2,1,C,1,S,6,S,11,0.770238,0.395607,0.304711
9,134,8,2,1,8,1,I,6,S,7,L,12,0.763122,0.517699,0.395067
9,135,2,1,2,8,0,I,1,S,6,S,14,0.507456,0.755275,0.383269
9,136,8,2,2,1,1,C,6,S,1,S,9,0.801912,0.303621,0.243478
9,137,9,8,8,9,1,I,1,S,1,S,27,0.756655,0.64903,0.491092
9,138,2,1,9,8,1,C,1,S,1,S,15,0.775799,0.451278,0.350101
9,139,8,1,1,2,1,I,7,L,1,S,10,0.784776,0.37089,0.291065
9,140,1,8,1,2,1,C,7,L,1,S,9,0.336275,0.760831,0.255849
9,141,9,8,2,8,0,I,1,S,6,S,12,0.439857,0.75801,0.333416
9,142,2,8,8,2,1,I,6,S,6,S,12,0.499017,0.762654,0.380577
9,143,2,8,9,1,1,I,6,S,8,L,14,0.567568,0.776417,0.44067
9,144,8,2,2,8,1,I,6,S,6,S,11,0.750282,0.478657,0.359128
10,1,9,2,1,8,1,I,7,L,7,L,15,0.774982,0.57988,0.449397
10,2,9,1,1,9,1,I,8,L,8,L,13,0.763442,0.551059,0.420702
10,3,8,1,9,8,1,C,7,L,1,S,10,0.802959,0.349188,0.280384
10,4,1,9,9,8,1,I,8,L,1,S,10,0.347106,0.807231,0.280195
10,5,1,8,2,9,1,C,7,L,7,L,9,0.264751,0.85474,0.226294
10,6,1,2,1,9,1,C,1,S,8,L,9,0.336286,0.754995,0.253894
10,7,9,8,9,1,1,C,1,S,8,L,11,0.762245,0.405417,0.309027
10,8,2,1,2,1,1,C,1,S,1,S,13,0.761949,0.42882,0.326739
10,9,9,8,2,9,0,I,1,S,7,L,12,0.407688,0.7916,0.322725
10,10,8,1,9,1,1,C,7,L,8,L,9,0.843618,0.274346,0.231443
10,11,9,1,2,8,1,I,8,L,6,S,12,0.761681,0.509395,0.387996
10,12,8,2,1,2,1,I,6,S,1,S,11,0.765438,0.415872,0.318324
10,13,8,1,2,8,1,I,7,L,6,S,12,0.767819,0.5073,0.389514
10,14,2,8,1,8,1,C,6,S,7,L,9,0.281969,0.828392,0.233581
10,15,2,9,9,8,1,I,7,L,1,S,10,0.377727,0.761387,0.287596
10,16,8,2,2,1,1,C,6,S,1,S,10,0.772363,0.365003,0.281914
10,17,1,2,8,1,1,I,1,S,7,L,18,0.625958,0.76281,0.477487
10,18,1,8,9,2,1,I,7,L,7,L,12,0.502152,0.774123,0.388728
10,19,1,2,9,1,1,I,1,S,8,L,18,0.617849,0.770083,0.475795
10,20,1,9,9,2,1,I,8,L,7,L,12,0.504909,0.770707,0.389137
10,21,1,9,2,9,1,C,8,L,7,L,9,0.2672,0.85163,0.227555
10,22,2,1,1,9,0,I,1,S,8,L,13,0.476725,0.766143,0.365239
10,23,8,2,8,1,1,C,6,S,7,L,9,0.809936,0.296597,0.240224
10,24,2,1,8,1,1,C,1,S,7,L,10,0.759147,0.371706,0.28218
10,25,9,2,2,9,1,I,7,L,7,L,14,0.759705,0.566088,0.43006
10,26,9,2,9,1,1,C,7,L,8,L,9,0.794916,0.305317,0.242702
10,27,9,8,2,8,0,I,1,S,6,S,12,0.418906,0.778852,0.326266
10,28,2,9,2,8,1,C,7,L,6,S,9,0.303955,0.799988,0.24316
10,29,2,8,2,9,1,C,6,S,7,L,9,0.29139,0.814268,0.23727
10,30,1,2,2,9,1,C,1,S,7,L,10,0.320447,0.821217,0.263156
10,31,1,8,2,8,1,C,7,L,6,S,9,0.27428,0.844301,0.231575
10,32,8,2,2,9,1,I,6,S,7,L,14,0.767124,0.562934,0.43184
10,33,8,9,1,8,1,C,1,S,7,L,12,0.41967,0.790237,0.331639
10,34,1,2,9,2,1,I,1,S,7,L,17,0.61914,0.750721,0.464802
10,35,8,1,2,1,1,C,7,L,1,S,10,0.821509,0.330951,0.271879
10,36,1,8,8,1,1,I,7,L,7,L,12,0.522363,0.760508,0.397261
10,37,9,2,1,2,1,I,7,L,1,S,11,0.758926,0.417836,0.317106
10,38,2,9,8,2,1,I,7,L,6,S,14,0.555875,0.775306,0.430973
10,39,2,1,1,8,0,I,1,S,7,L,13,0.484712,0.7577,0.367267
10,40,2,1,2,9,0,I,1,S,7,L,14,0.512696,0.753231,0.386179
10,41,2,1,9,1,1,C,1,S,8,L,11,0.819111,0.351877,0.288226
10,42,1,8,1,9,1,C,7,L,8,L,8,0.286483,0.764668,0.219065
10,43,8,9,2,9,1,C,1,S,7,L,12,0.431478,0.773391,0.333701
10,44,8,2,8,2,1,C,6,S,6,S,9,0.803688,0.298969,0.240278
10,45,8,1,1,2,1,I,7,L,1,S,10,0.760336,0.38983,0.296402
10,46,2,8,2,1,1,I,6,S,1,S,11,0.376826,0.808643,0.304718
10,47,8,9,8,9,0,C,1,S,1,S,18,0.788623,0.456569,0.36006
10,48,8,1,1,9,1,I,7,L,8,L,13,0.769732,0.548674,0.422332
10,49,2,9,1,2,1,C,7,L,1,S,10,0.335104,0.802028,0.268763
10,50,2,8,1,2,1,C,6,S,1,S,10,0.331719,0.806383,0.267493
10,51,2,9,9,1,1,I,7,L,8,L,13,0.551578,0.75071,0.414075
10,52,9,2,8,1,1,C,7,L,7,L,9,0.804929,0.297388,0.239376
10,53,1,9,1,2,1,C,8,L,1,S,9,0.335859,0.761052,0.255606
10,54,9,2,2,1,1,C,7,L,1,S,10,0.76652,0.3664,0.280853
10,55,9,2,8,2,1,C,7,L,6,S,9,0.79868,0.299761,0.239413
10,56,9,8,9,8,1,C,1,S,1,S,20,0.781288,0.459671,0.359135
10,57,8,1,2,9,1,I,7,L,7,L,12,0.756601,0.520047,0.393468
10,58,1,8,9,1,1,I,7,L,8,L,12,0.510537,0.769931,0.393079
10,59,9,2,1,9,1,I,7,L,8,L,15,0.767792,0.587078,0.450754
10,60,1,2,2,1,1,I,1,S,1,S,13,0.433983,0.790223,0.342944
10,61,2,9,8,1,1,I,7,L,7,L,14,0.563718,0.771087,0.434676
10,62,2,9,1,8,1,C,7,L,7,L,9,0.285005,0.824551,0.235001
10,63,1,9,8,2,1,I,8,L,6,S,12,0.517315,0.760915,0.393632
10,64,8,2,8,9,1,I,6,S,1,S,11,0.816961,0.360416,0.294446
10,65,1,9,1,9,1,C,8,L,8,L,8,0.288649,0.761978,0.219944
10,66,1,2,9,8,1,I,1,S,1,S,12,0.411258,0.778654,0.320228
10,67,8,9,8,2,0,I,1,S,6,S,11,0.784115,0.386958,0.30342
10,68,9,1,8,2,1,C,8,L,6,S,9,0.842518,0.269595,0.227139
10,69,2,9,8,9,1,C,7,L,1,S,10,0.373326,0.762123,0.28452
10,70,2,8,8,1,1,I,6,S,7,L,14,0.560054,0.775568,0.43436
10,71,9,1,1,8,1,I,8,L,7,L,13,0.771429,0.542617,0.418591
10,72,9,8,8,1,1,C,1,S,7,L,11,0.77398,0.396194,0.306646
10,73,2,8,8,9,1,C,6,S,1,S,10,0.369941,0.766478,0.283551
10,74,2,8,8,2,1,I,6,S,6,S,13,0.551503,0.750065,0.413663
10,75,8,1,1,8,1,I,7,L,7,L,13,0.777719,0.540232,0.420149
10,76,8,2,1,8,1,I,6,S,7,L,14,0.755337,0.578994,0.437336
10,77,1,9,8,1,1,I,8,L,7,L,12,0.52512,0.757092,0.397564
10,78,8,1,9,2,1,C,7,L,7,L,9,0.83714,0.276878,0.231786
10,79,2,1,8,2,1,C,1,S,6,S,10,0.752126,0.374676,0.281804
10,80,8,9,2,8,1,C,1,S,6,S,12,0.442696,0.760643,0.336734
10,81,1,2,1,2,1,C,1,S,1,S,11,0.375938,0.779317,0.292974
10,82,9,1,9,1,1,C,8,L,8,L,9,0.838754,0.275152,0.230785
10,83,9,1,8,1,1,C,8,L,7,L,9,0.848767,0.267223,0.22681
10,84,2,8,9,8,1,I,6,S,1,S,10,0.374342,0.765742,0.286649
10,85,1,9,2,8,1,C,8,L,6,S,9,0.276729,0.84119,0.232781
10,86,2,9,2,1,1,I,7,L,1,S,11,0.380439,0.803996,0.305872
10,87,1,9,2,1,1,I,8,L,1,S,10,0.365656,0.788994,0.2885
10,88,1,9,1,8,1,C,8,L,7,L,8,0.295481,0.754969,0.223079
10,89,8,9,1,2,0,C,1,S,1,S,25,0.758785,0.63881,0.484719
10,90,9,1,1,2,1,I,8,L,1,S,10,0.754888,0.391125,0.295256
10,91,8,1,8,1,1,C,7,L,7,L,9,0.85363,0.266417,0.227422
10,92,8,9,9,8,0,I,1,S,1,S,17,0.773318,0.463445,0.358391
10,93,2,8,9,1,1,I,6,S,8,L,13,0.547843,0.755374,0.413827
10,94,1,2,1,8,1,C,1,S,7,L,10,0.309855,0.836945,0.259332
10,95,9,8,9,2,1,C,1,S,7,L,11,0.754219,0.409185,0.308615
10,96,2,9,9,2,1,I,7,L,7,L,13,0.54306,0.755193,0.410115
10,97,8,2,9,2,1,C,6,S,7,L,9,0.793445,0.307058,0.243634
10,98,9,1,2,9,1,I,8,L,7,L,12,0.750462,0.522142,0.391848
10,99,8,2,2,8,1,I,6,S,6,S,14,0.777909,0.551123,0.428723
10,100,9,8,1,8,0,I,1,S,7,L,11,0.409483,0.762279,0.31214
10,101,9,8,2,1,1,C,1,S,1,S,16,0.767958,0.458684,0.35225
10,102,1,8,8,2,1,I,7,L,6,S,12,0.514558,0.764331,0.393292
10,103,9,1,9,2,1,C,8,L,7,L,9,0.832276,0.277684,0.23111
10,104,2,1,8,9,1,I,1,S,1,S,15,0.79378,0.430641,0.341834
10,105,2,1,9,2,1,C,1,S,7,L,11,0.811085,0.355645,0.288458
10,106,8,1,8,9,1,I,7,L,1,S,10,0.798558,0.349925,0.279435
10,107,2,9,2,9,1,C,7,L,7,L,9,0.294426,0.810427,0.23861
10,108,9,1,8,9,1,I,8,L,1,S,10,0.79311,0.35122,0.278556
10,109,9,8,1,9,0,I,1,S,8,L,11,0.401233,0.771307,0.309474
10,110,2,8,2,8,1,C,6,S,6,S,9,0.300919,0.803828,0.241887
10,111,9,2,2,8,1,I,7,L,6,S,14,0.77049,0.554277,0.427065
10,112,8,9,9,1,0,I,1,S,8,L,11,0.779912,0.392724,0.30629
10,113,9,8,1,2,0,I,1,S,1,S,16,0.481433,0.756938,0.364415
10,114,9,2,9,2,1,C,7,L,7,L,9,0.788438,0.307849,0.24272
10,115,1,8,1,8,1,C,7,L,7,L,8,0.293316,0.757659,0.222233
10,116,9,1,9,8,1,C,8,L,1,S,10,0.797511,0.350484,0.279515
10,117,2,9,1,9,1,C,7,L,8,L,9,0.277413,0.832719,0.231007
10,118,8,2,9,8,1,C,6,S,1,S,10,0.753813,0.38324,0.288891
10,119,8,2,1,9,1,I,6,S,8,L,15,0.775246,0.583707,0.452516
10,120,1,8,8,9,1,C,7,L,1,S,10,0.340067,0.811326,0.275906
10,121,2,1,2,8,1,I,1,S,6,S,23,0.759888,0.651239,0.494869
10,122,1,8,1,2,1,C,7,L,1,S,9,0.333411,0.764162,0.25478
10,123,8,9,9,2,0,I,1,S,7,L,11,0.771886,0.396491,0.306046
10,124,2,1,1,2,1,I,1,S,1,S,19,0.760992,0.582504,0.443281
10,125,1,8,9,8,1,I,7,L,1,S,10,0.344469,0.81059,0.279223
10,126,1,9,9,1,1,I,8,L,8,L,12,0.513294,0.766515,0.393448
10,127,8,1,8,2,1,C,7,L,6,S,9,0.847382,0.26879,0.227768
10,128,9,2,9,8,1,C,7,L,1,S,11,0.815942,0.360659,0.294277
10,129,8,2,9,1,1,C,6,S,8,L,9,0.799924,0.304526,0.243597
10,130,1,2,8,9,1,C,1,S,1,S,12,0.404323,0.781725,0.316069
10,131,8,9,8,1,0,I,1,S,7,L,11,0.791647,0.383501,0.303598
10,132,1,2,2,8,1,C,1,S,6,S,10,0.330913,0.809371,0.267831
10,133,1,2,8,2,1,I,1,S,6,S,18,0.618881,0.766953,0.474653
10,134,2,8,9,2,1,I,6,S,7,L,13,0.539324,0.759857,0.40981
10,135,8,9,1,9,1,C,1,S,8,L,11,0.4189,0.758614,0.317784
10,136,2,8,1,9,1,C,6,S,8,L,9,0.274377,0.836559,0.229533
10,137,8,9,2,1,0,I,1,S,1,S,15,0.782864,0.4397,0.344225
10,138,9,8,8,9,1,I,1,S,1,S,21,0.755713,0.48695,0.367995
10,139,1,9,8,9,1,C,8,L,1,S,10,0.342705,0.807967,0.276894
10,140,9,1,2,1,1,C,8,L,1,S,10,0.816061,0.332247,0.271133
10,141,2,1,9,8,1,C,1,S,1,S,14,0.758239,0.450119,0.341298
10,142,1,8,2,1,1,I,7,L,1,S,10,0.363018,0.792353,0.287639
10,143,9,2,8,9,1,I,7,L,1,S,11,0.810449,0.36238,0.29369
10,144,9,8,8,2,1,C,1,S,6,S,11,0.766448,0.399651,0.306312
11,1,2,1,8,1,1,C,1,S,7,L,10,0.77173,0.368703,0.284539
11,2,8,1,8,2,1,C,7,L,6,S,9,0.843329,0.273741,0.230854
11,3,2,1,1,9,0,I,1,S,8,L,11,0.406125,0.782513,0.317798
11,4,9,1,9,1,1,C,8,L,8,L,8,0.75912,0.288525,0.219025
11,5,9,1,2,9,1,I,8,L,7,L,12,0.757193,0.506306,0.383371
11,6,1,8,2,1,1,I,7,L,1,S,11,0.462245,0.75622,0.349559
11,7,8,9,8,9,1,C,1,S,1,S,14,0.41538,0.798324,0.331608
11,8,1,9,9,1,1,I,8,L,8,L,12,0.531004,0.761149,0.404174
11,9,1,8,8,2,1,I,7,L,6,S,12,0.506254,0.767588,0.388594
11,10,2,1,8,2,1,C,1,S,6,S,11,0.793071,0.37671,0.298758
11,11,1,2,8,2,1,I,1,S,6,S,23,0.644398,0.766267,0.493781
11,12,8,2,1,8,1,I,6,S,7,L,14,0.773752,0.58514,0.452754
11,13,9,8,2,9,0,I,1,S,7,L,12,0.420995,0.771543,0.324815
11,14,8,2,9,8,1,C,6,S,1,S,10,0.816036,0.334821,0.273226
11,15,8,1,2,8,1,I,7,L,6,S,12,0.776564,0.496499,0.385563
11,16,8,2,2,9,1,I,6,S,7,L,12,0.779733,0.491676,0.383376
11,17,8,1,1,9,1,I,7,L,8,L,14,0.772872,0.584245,0.451546
11,18,1,9,2,1,1,I,8,L,1,S,11,0.437282,0.788745,0.344904
11,19,1,2,9,1,0,I,1,S,8,L,12,0.757999,0.458592,0.347613
11,20,8,2,9,1,1,C,6,S,8,L,8,0.775408,0.279028,0.216361
11,21,9,8,9,1,1,C,1,S,8,L,11,0.804533,0.373038,0.300121
11,22,9,8,1,2,0,I,1,S,1,S,12,0.409416,0.786947,0.322189
11,23,9,2,9,1,1,C,7,L,8,L,8,0.760706,0.2873,0.218551
11,24,8,9,9,2,1,I,1,S,7,L,22,0.657075,0.750343,0.493032
11,25,2,9,8,1,1,I,7,L,7,L,13,0.552913,0.770496,0.426017
11,26,9,8,9,8,1,C,1,S,1,S,18,0.771901,0.461267,0.356052
11,27,1,9,9,8,1,I,8,L,1,S,9,0.346341,0.754353,0.261263
11,28,1,2,8,1,0,I,1,S,7,L,12,0.753425,0.463342,0.349094
11,29,2,8,8,9,1,C,6,S,1,S,10,0.36281,0.778095,0.282301
11,30,2,1,9,2,1,C,1,S,7,L,11,0.801404,0.369078,0.29578
11,31,8,9,9,8,1,I,1,S,1,S,15,0.46618,0.770257,0.359079
11,32,9,8,8,1,1,C,1,S,7,L,11,0.799745,0.377911,0.302232
11,33,8,1,9,8,1,C,7,L,1,S,10,0.814136,0.336253,0.273756
11,34,1,9,8,2,1,I,8,L,6,S,11,0.474531,0.762441,0.361802
11,35,9,2,2,1,1,C,7,L,1,S,9,0.798886,0.302915,0.241995
11,36,9,1,8,1,1,C,8,L,7,L,8,0.754971,0.292935,0.221157
11,37,2,9,2,8,1,C,7,L,6,S,9,0.276098,0.837724,0.231294
11,38,2,8,2,9,1,C,6,S,7,L,9,0.304523,0.798672,0.243214
11,39,8,2,2,8,1,I,6,S,6,S,12,0.77852,0.49498,0.385351
11,40,1,8,9,8,1,I,7,L,1,S,10,0.351608,0.795906,0.279847
11,41,2,1,9,8,1,C,1,S,1,S,15,0.793322,0.426753,0.338553
11,42,8,2,9,2,1,C,6,S,7,L,9,0.852154,0.265657,0.226381
11,43,2,8,9,1,1,I,6,S,8,L,14,0.58881,0.755084,0.444601
11,44,2,1,1,8,0,I,1,S,7,L,11,0.405464,0.784766,0.318195
11,45,8,1,8,1,1,C,7,L,7,L,8,0.769758,0.284589,0.219065
11,46,8,2,1,2,1,I,6,S,1,S,12,0.768154,0.50708,0.389516
11,47,1,2,1,9,1,C,1,S,8,L,10,0.32578,0.818946,0.266796
11,48,1,8,8,9,1,C,7,L,1,S,10,0.333097,0.81491,0.271444
11,49,1,9,2,9,1,C,8,L,7,L,8,0.290887,0.753589,0.21921
11,50,8,1,2,9,1,I,7,L,7,L,12,0.777777,0.493195,0.383596
11,51,2,9,2,9,1,C,7,L,7,L,9,0.276523,0.835367,0.230998
11,52,9,1,1,2,1,I,8,L,1,S,13,0.778924,0.525507,0.409331
11,53,8,1,8,9,1,I,7,L,1,S,10,0.795624,0.355258,0.282652
11,54,2,8,2,1,1,I,6,S,1,S,12,0.498808,0.757094,0.377645
11,55,9,1,8,2,1,C,8,L,6,S,9,0.825907,0.283862,0.234444
11,56,2,8,9,8,1,I,6,S,1,S,10,0.381322,0.759091,0.289458
11,57,1,2,2,9,1,C,1,S,7,L,11,0.36068,0.801971,0.289255
11,58,8,9,2,1,1,I,1,S,1,S,22,0.632063,0.772329,0.488161
11,59,8,2,2,1,1,C,6,S,1,S,9,0.816168,0.2929,0.239055
11,60,1,9,2,8,1,C,8,L,6,S,8,0.290745,0.755508,0.21966
11,61,9,1,2,8,1,I,8,L,6,S,12,0.75598,0.50961,0.385255
11,62,1,8,1,9,1,C,7,L,8,L,8,0.260755,0.796806,0.207771
11,63,1,8,8,1,1,I,7,L,7,L,13,0.554589,0.766352,0.42501
11,64,9,8,2,8,0,I,1,S,6,S,12,0.419782,0.774847,0.325266
11,65,1,9,9,2,1,I,8,L,7,L,11,0.482865,0.754809,0.364471
11,66,8,9,1,9,1,C,1,S,8,L,10,0.326307,0.822518,0.268393
11,67,2,9,9,1,1,I,7,L,8,L,13,0.557162,0.765955,0.426761
11,68,8,1,9,1,1,C,7,L,8,L,8,0.773906,0.280179,0.216832
11,69,1,9,8,1,1,I,8,L,7,L,12,0.52643,0.765899,0.403193
11,70,2,8,8,2,1,I,6,S,6,S,13,0.541545,0.762788,0.413084
11,71,9,1,9,8,1,C,8,L,1,S,10,0.794879,0.34778,0.276443
11,72,9,2,2,9,1,I,7,L,7,L,12,0.7594,0.50461,0.383201
11,73,2,9,1,2,1,C,7,L,1,S,9,0.267533,0.84732,0.226686
11,74,1,2,9,8,1,I,1,S,1,S,15,0.469696,0.761161,0.357514
11,75,8,2,8,9,1,I,6,S,1,S,10,0.797525,0.353826,0.282185
11,76,9,8,9,2,1,C,1,S,7,L,11,0.762961,0.403276,0.307684
11,77,8,9,9,1,0,I,1,S,8,L,12,0.757164,0.464084,0.351387
11,78,9,2,1,9,1,I,7,L,8,L,14,0.755109,0.595914,0.449981
11,79,2,1,8,9,1,I,1,S,1,S,17,0.76857,0.4882,0.375216
11,80,9,1,8,9,1,I,8,L,1,S,10,0.776367,0.366785,0.28476
11,81,8,1,9,2,1,C,7,L,7,L,9,0.850406,0.266974,0.227036
11,82,9,2,9,2,1,C,7,L,7,L,9,0.834872,0.275672,0.230151
11,83,1,8,2,9,1,C,7,L,7,L,9,0.277233,0.83206,0.230674
11,84,8,1,1,2,1,I,7,L,1,S,12,0.766199,0.508599,0.389688
11,85,9,2,8,9,1,I,7,L,1,S,10,0.778458,0.365217,0.284306
11,86,8,9,1,8,1,C,1,S,7,L,10,0.32578,0.824678,0.268664
11,87,8,2,1,9,1,I,6,S,8,L,14,0.774678,0.582782,0.451468
11,88,1,9,8,9,1,C,8,L,1,S,9,0.333404,0.767803,0.255988
11,89,1,8,9,2,1,I,7,L,7,L,12,0.5146,0.759892,0.391041
11,90,9,1,2,1,1,C,8,L,1,S,9,0.796998,0.304338,0.242557
11,91,9,8,1,9,0,I,1,S,8,L,10,0.380132,0.76424,0.290512
11,92,2,1,1,2,0,I,1,S,1,S,13,0.464881,0.766821,0.356481
11,93,9,2,9,8,1,C,7,L,1,S,10,0.79697,0.346212,0.275921
11,94,9,8,8,2,1,C,1,S,6,S,11,0.754628,0.410909,0.310083
11,95,9,2,2,8,1,I,7,L,6,S,12,0.758187,0.507914,0.385093
11,96,2,8,9,2,1,I,6,S,7,L,13,0.54961,0.755223,0.415078
11,97,1,9,1,2,1,C,8,L,1,S,8,0.283424,0.763201,0.21631
11,98,9,1,9,2,1,C,8,L,7,L,9,0.832984,0.277095,0.230816
11,99,2,9,8,2,1,I,7,L,6,S,12,0.504747,0.771655,0.38949
11,100,1,2,8,9,1,C,1,S,1,S,14,0.418018,0.790353,0.330382
11,101,8,9,8,1,0,I,1,S,7,L,12,0.75259,0.468834,0.352839
11,102,8,1,2,1,1,C,7,L,1,S,9,0.81442,0.294217,0.239616
11,103,8,9,2,9,1,C,1,S,7,L,11,0.360608,0.806395,0.290792
11,104,8,9,1,2,1,C,1,S,1,S,11,0.349523,0.821319,0.28707
11,105,9,8,8,9,1,I,1,S,1,S,30,0.762339,0.632486,0.482169
11,106,2,8,1,9,1,C,6,S,8,L,8,0.284592,0.768675,0.218759
11,107,2,8,8,1,1,I,6,S,7,L,14,0.584948,0.759357,0.444184
11,108,9,8,2,1,1,C,1,S,1,S,12,0.766872,0.420335,0.322343
11,109,1,2,1,8,1,C,1,S,7,L,10,0.325254,0.821105,0.267067
11,110,1,2,2,1,1,I,1,S,1,S,22,0.63796,0.761989,0.486118
11,111,1,2,2,8,1,C,1,S,6,S,11,0.359697,0.805049,0.289574
11,112,8,2,8,2,1,C,6,S,6,S,9,0.845077,0.272424,0.230219
11,113,2,9,9,2,1,I,7,L,7,L,12,0.513093,0.763959,0.391982
11,114,9,1,1,8,1,I,8,L,7,L,14,0.75212,0.599928,0.451217
11,115,8,9,2,8,1,C,1,S,6,S,11,0.359625,0.809474,0.291107
11,116,2,8,1,8,1,C,6,S,7,L,8,0.284397,0.770493,0.219126
11,117,1,8,9,1,1,I,7,L,8,L,13,0.558839,0.761811,0.42573
11,118,2,1,2,1,1,C,1,S,1,S,11,0.755821,0.403014,0.304606
11,119,8,9,8,2,1,I,1,S,6,S,22,0.654309,0.753951,0.493317
11,120,9,2,8,1,1,C,7,L,7,L,8,0.756557,0.291711,0.220696
11,121,8,1,1,8,1,I,7,L,7,L,14,0.771946,0.586604,0.452826
11,122,2,9,2,1,1,I,7,L,1,S,11,0.460957,0.760135,0.35039
11,123,1,9,1,8,1,C,8,L,7,L,8,0.240466,0.824985,0.198381
11,124,9,2,8,2,1,C,7,L,6,S,9,0.827795,0.28244,0.233802
11,125,2,9,1,8,1,C,7,L,7,L,8,0.260182,0.801466,0.208527
11,126,9,1,1,9,1,I,8,L,8,L,14,0.753045,0.597569,0.449996
11,127,1,8,1,2,1,C,7,L,1,S,9,0.268243,0.844013,0.2264
11,128,8,2,8,1,1,C,6,S,7,L,8,0.77126,0.283438,0.218604
11,129,2,1,2,9,0,I,1,S,7,L,13,0.476622,0.751483,0.358173
11,130,1,2,1,2,1,C,1,S,1,S,11,0.349595,0.816895,0.285583
11,131,9,2,1,2,1,I,7,L,1,S,13,0.781081,0.523815,0.409142
11,132,2,1,9,1,1,C,1,S,8,L,10,0.77656,0.363825,0.282532
11,133,1,9,1,9,1,C,8,L,8,L,8,0.240662,0.823168,0.198105
11,134,2,9,9,8,1,I,7,L,1,S,10,0.350588,0.799573,0.280321
11,135,9,2,1,8,1,I,7,L,7,L,14,0.754184,0.598273,0.451208
11,136,2,8,1,2,1,C,6,S,1,S,9,0.295533,0.810625,0.239567
11,137,1,2,9,2,1,I,1,S,7,L,23,0.646719,0.763052,0.49348
11,138,1,8,2,8,1,C,7,L,6,S,9,0.276808,0.834417,0.230973
11,139,1,8,1,8,1,C,7,L,7,L,8,0.26056,0.798623,0.208089
11,140,2,9,8,9,1,C,7,L,1,S,10,0.332077,0.818578,0.271831
11,141,2,8,2,8,1,C,6,S,6,S,9,0.304098,0.801029,0.243592
11,142,9,8,1,8,0,I,1,S,7,L,10,0.379605,0.766399,0.290929
11,143,2,1,2,8,0,I,1,S,6,S,13,0.475223,0.754922,0.358757
11,144,2,9,1,9,1,C,7,L,8,L,8,0.260377,0.799649,0.20821
12,1,8,9,1,9,1,C,1,S,8,L,10,0.369108,0.772015,0.284957
12,2,1,8,1,8,1,C,7,L,7,L,8,0.29489,0.75101,0.221465
12,3,8,9,9,8,1,I,1,S,1,S,17,0.461398,0.772638,0.356494
12,4,8,1,9,2,1,C,7,L,7,L,8,0.752931,0.291807,0.219711
12,5,1,8,8,2,1,I,7,L,6,S,13,0.529908,0.773101,0.409672
12,6,1,9,8,1,1,I,8,L,7,L,13,0.533346,0.779224,0.415596
12,7,1,8,2,8,1,C,7,L,6,S,9,0.286645,0.820632,0.23523
12,8,2,1,2,1,1,C,1,S,1,S,11,0.816012,0.357576,0.291786
12,9,1,2,1,9,1,C,1,S,8,L,10,0.355855,0.783378,0.278769
12,10,1,9,9,1,1,I,8,L,8,L,13,0.528902,0.781319,0.413242
12,11,8,1,2,8,1,I,7,L,6,S,11,0.753025,0.4829,0.363636
12,12,8,2,8,9,1,I,6,S,1,S,10,0.760542,0.382352,0.290795
12,13,1,8,1,2,1,C,7,L,1,S,9,0.31609,0.779033,0.246245
12,14,1,8,9,2,1,I,7,L,7,L,13,0.524961,0.775477,0.407095
12,15,9,1,2,9,1,I,8,L,7,L,12,0.778235,0.506213,0.393953
12,16,1,8,8,1,1,I,7,L,7,L,13,0.549411,0.760425,0.417786
12,17,9,8,8,1,1,C,1,S,7,L,11,0.776794,0.398547,0.309589
12,18,9,2,1,2,1,I,7,L,1,S,12,0.761647,0.484911,0.369331
12,19,9,2,1,8,1,I,7,L,7,L,14,0.751074,0.58988,0.443044
12,20,8,1,9,8,1,C,7,L,1,S,9,0.754671,0.345022,0.260378
12,21,9,2,8,2,1,C,7,L,6,S,9,0.804201,0.299588,0.240929
12,22,8,9,8,2,0,I,1,S,6,S,12,0.753136,0.44523,0.335319
12,23,2,9,2,1,1,I,7,L,1,S,11,0.382891,0.795899,0.304743
12,24,2,8,1,2,1,C,6,S,1,S,10,0.323185,0.818321,0.264469
12,25,9,8,1,9,0,I,1,S,8,L,11,0.389502,0.795746,0.309944
12,26,1,8,1,9,1,C,7,L,8,L,8,0.291504,0.758301,0.221048
12,27,9,1,9,8,1,C,8,L,1,S,9,0.750051,0.349016,0.26178
12,28,9,8,8,9,1,I,1,S,1,S,27,0.762764,0.630623,0.481016
12,29,9,1,1,8,1,I,8,L,7,L,12,0.752084,0.538905,0.405302
12,30,9,1,2,8,1,I,8,L,6,S,12,0.785937,0.493426,0.387802
12,31,9,2,8,9,1,I,7,L,1,S,10,0.752991,0.388624,0.292631
12,32,8,2,1,8,1,I,6,S,7,L,14,0.758644,0.583315,0.442528
12,33,2,8,9,2,1,I,6,S,7,L,15,0.576559,0.768921,0.443328
12,34,2,9,8,2,1,I,7,L,6,S,14,0.558206,0.768508,0.428986
12,35,8,1,8,9,1,I,7,L,1,S,10,0.82036,0.338677,0.277837
12,36,9,8,1,8,0,I,1,S,7,L,11,0.394488,0.786673,0.310333
12,37,9,2,9,2,1,C,7,L,7,L,9,0.800601,0.300727,0.240762
12,38,9,8,9,1,1,C,1,S,8,L,11,0.772594,0.400249,0.30923
12,39,2,9,1,9,1,C,7,L,8,L,9,0.275755,0.840409,0.231747
12,40,1,9,9,8,1,I,8,L,1,S,10,0.348505,0.794691,0.276954
12,41,9,2,8,1,1,C,7,L,7,L,9,0.819897,0.290534,0.238208
12,42,8,9,1,8,1,C,1,S,7,L,10,0.373718,0.763217,0.285228
12,43,8,2,2,1,1,C,6,S,1,S,10,0.784178,0.356211,0.279333
12,44,9,2,2,1,1,C,7,L,1,S,10,0.776626,0.362483,0.281514
12,45,8,1,2,9,1,I,7,L,7,L,12,0.783007,0.501988,0.39306
12,46,2,8,9,1,1,I,6,S,8,L,15,0.595505,0.75603,0.450219
12,47,9,2,9,1,1,C,7,L,8,L,9,0.816437,0.291601,0.238074
12,48,1,9,1,9,1,C,8,L,8,L,8,0.279059,0.772551,0.215588
12,49,1,2,2,9,1,C,1,S,7,L,11,0.360325,0.809261,0.291597
12,50,2,9,1,8,1,C,7,L,7,L,9,0.279829,0.832189,0.232871
12,51,8,1,2,1,1,C,7,L,1,S,9,0.763942,0.337977,0.258194
12,52,8,9,2,9,1,C,1,S,7,L,11,0.3778,0.793006,0.299598
12,53,1,9,2,8,1,C,8,L,6,S,9,0.272451,0.837559,0.228193
12,54,1,2,1,8,1,C,1,S,7,L,10,0.360464,0.77458,0.279209
12,55,8,9,9,1,0,I,1,S,8,L,12,0.768289,0.434836,0.33408
12,56,8,9,2,1,1,I,1,S,1,S,20,0.54936,0.762817,0.419061
12,57,2,9,2,9,1,C,7,L,7,L,9,0.302902,0.802617,0.243114
12,58,1,8,9,8,1,I,7,L,1,S,10,0.363913,0.776031,0.282408
12,59,9,1,1,2,1,I,8,L,1,S,11,0.786612,0.432382,0.340117
12,60,1,9,9,2,1,I,8,L,7,L,12,0.505029,0.761192,0.384424
12,61,8,9,8,1,0,I,1,S,7,L,12,0.772662,0.432906,0.33449
12,62,2,8,8,9,1,C,6,S,1,S,11,0.373576,0.802053,0.299628
12,63,2,9,2,8,1,C,7,L,6,S,9,0.308428,0.79233,0.244377
12,64,8,1,1,2,1,I,7,L,1,S,11,0.791518,0.428117,0.338862
12,65,2,9,8,9,1,C,7,L,1,S,10,0.377594,0.759526,0.286793
12,66,1,2,9,2,0,I,1,S,7,L,13,0.750832,0.474688,0.356411
12,67,8,1,8,1,1,C,7,L,7,L,8,0.768881,0.283818,0.218223
12,68,1,2,8,1,0,I,1,S,7,L,12,0.750047,0.455456,0.341613
12,69,9,8,8,2,1,C,1,S,6,S,11,0.757808,0.410168,0.310828
12,70,2,8,1,9,1,C,6,S,8,L,9,0.295155,0.817615,0.241323
12,71,2,8,1,8,1,C,6,S,7,L,9,0.29923,0.809396,0.242195
12,72,8,1,9,1,1,C,7,L,8,L,8,0.765974,0.28451,0.217927
12,73,9,1,8,2,1,C,8,L,6,S,8,0.751781,0.294732,0.221574
12,74,2,1,1,2,1,I,1,S,1,S,13,0.760838,0.514098,0.391146
12,75,8,1,1,8,1,I,7,L,7,L,12,0.756856,0.53468,0.404676
12,76,2,9,9,8,1,I,7,L,1,S,11,0.365277,0.810739,0.296144
12,77,8,9,2,8,1,C,1,S,6,S,11,0.385017,0.780588,0.300539
12,78,1,9,8,2,1,I,8,L,6,S,12,0.509849,0.759024,0.386987
12,79,2,1,8,9,1,I,1,S,1,S,11,0.782445,0.393718,0.308063
12,80,2,8,8,1,1,I,6,S,7,L,15,0.599894,0.753764,0.452179
12,81,2,9,9,2,1,I,7,L,7,L,14,0.553232,0.771024,0.426555
12,82,1,2,9,8,1,I,1,S,1,S,16,0.439132,0.790877,0.347299
12,83,2,1,1,9,1,I,1,S,8,L,16,0.765773,0.613612,0.469887
12,84,8,9,8,9,1,C,1,S,1,S,15,0.449315,0.766813,0.34454
12,85,8,2,9,8,1,C,6,S,1,S,10,0.771348,0.366591,0.282769
12,86,2,9,9,1,1,I,7,L,8,L,14,0.572845,0.75798,0.434205
12,87,9,8,9,2,1,C,1,S,7,L,11,0.753246,0.412056,0.31038
12,88,1,2,8,2,0,I,1,S,6,S,13,0.755779,0.472312,0.356963
12,89,1,9,1,8,1,C,8,L,7,L,8,0.282445,0.76526,0.216144
12,90,1,9,2,9,1,C,8,L,7,L,9,0.266924,0.847846,0.226311
12,91,1,2,2,8,1,C,1,S,6,S,11,0.367541,0.796843,0.292873
12,92,9,8,2,1,1,C,1,S,1,S,17,0.78236,0.452283,0.353848
12,93,1,9,1,2,1,C,8,L,1,S,9,0.301895,0.79596,0.240297
12,94,2,1,2,9,1,I,1,S,7,L,15,0.768736,0.583839,0.448818
12,95,8,2,2,9,1,I,6,S,7,L,13,0.754216,0.552583,0.416767
12,96,1,2,2,1,1,I,1,S,1,S,17,0.507562,0.75483,0.383123
12,97,2,9,1,2,1,C,7,L,1,S,9,0.337873,0.750731,0.253652
12,98,1,2,8,9,1,C,1,S,1,S,14,0.444327,0.758741,0.337129
12,99,8,2,1,2,1,I,6,S,1,S,12,0.769761,0.478137,0.368052
12,100,2,1,8,1,1,C,1,S,7,L,9,0.79262,0.309879,0.245616
12,101,1,8,2,9,1,C,7,L,7,L,9,0.281119,0.830919,0.233587
12,102,8,2,8,1,1,C,6,S,7,L,9,0.826585,0.284846,0.235449
12,103,8,1,8,2,1,C,7,L,6,S,8,0.755883,0.29109,0.22003
12,104,1,2,1,2,1,C,1,S,1,S,12,0.376545,0.805929,0.303469
12,105,8,1,1,9,1,I,7,L,8,L,12,0.751639,0.543798,0.40874
12,106,9,1,1,9,1,I,8,L,8,L,13,0.779051,0.550682,0.42901
12,107,9,8,1,2,0,I,1,S,1,S,13,0.445057,0.767101,0.341404
12,108,2,1,9,2,1,C,1,S,7,L,9,0.773324,0.320072,0.247519
12,109,9,8,2,9,0,I,1,S,7,L,11,0.420389,0.753726,0.316859
12,110,9,2,2,9,1,I,7,L,7,L,14,0.776082,0.559908,0.434535
12,111,2,1,1,8,1,I,1,S,7,L,16,0.770934,0.605395,0.46672
12,112,8,9,1,2,1,C,1,S,1,S,12,0.399161,0.783378,0.312694
12,113,8,2,9,1,1,C,6,S,8,L,9,0.823125,0.285912,0.235342
12,114,2,1,9,1,1,C,1,S,8,L,9,0.78916,0.310946,0.245386
12,115,9,1,8,1,1,C,8,L,7,L,8,0.764779,0.28746,0.219844
12,116,2,8,2,8,1,C,6,S,6,S,9,0.327828,0.769537,0.252276
12,117,9,2,2,8,1,I,7,L,6,S,13,0.754244,0.546522,0.412211
12,118,1,8,9,1,1,I,7,L,8,L,13,0.544967,0.762521,0.415548
12,119,1,2,9,1,0,I,1,S,8,L,13,0.770837,0.461732,0.35592
12,120,2,1,8,2,1,C,1,S,6,S,9,0.776924,0.318933,0.247787
12,121,8,2,2,8,1,I,6,S,6,S,13,0.762182,0.539782,0.411412
12,122,2,9,8,1,1,I,7,L,7,L,14,0.577287,0.755776,0.436299
12,123,8,2,9,2,1,C,6,S,7,L,9,0.807289,0.295038,0.238181
12,124,9,8,2,8,0,I,1,S,6,S,12,0.415714,0.786132,0.326806
12,125,9,1,2,1,1,C,8,L,1,S,9,0.759322,0.341971,0.259666
12,126,1,9,8,9,1,C,8,L,1,S,10,0.337699,0.810452,0.273689
12,127,2,8,2,9,1,C,6,S,7,L,9,0.322302,0.779824,0.251339
12,128,8,2,1,9,1,I,6,S,8,L,14,0.753307,0.592103,0.446035
12,129,9,1,9,2,1,C,8,L,7,L,9,0.857479,0.259117,0.222187
12,130,2,1,2,8,1,I,1,S,6,S,15,0.77671,0.571674,0.444025
12,131,2,8,2,1,1,I,6,S,1,S,11,0.407144,0.765911,0.311836
12,132,2,8,9,8,1,I,6,S,1,S,11,0.389529,0.780751,0.304125
12,133,2,8,8,2,1,I,6,S,6,S,15,0.58149,0.766323,0.445609
12,134,9,2,1,9,1,I,7,L,8,L,15,0.773152,0.594677,0.459776
12,135,9,1,8,9,1,I,8,L,1,S,10,0.815486,0.342874,0.279608
12,136,9,2,9,8,1,C,7,L,1,S,10,0.763797,0.372863,0.284792
12,137,2,1,9,8,1,C,1,S,1,S,11,0.798398,0.372416,0.297336
12,138,9,8,9,8,1,C,1,S,1,S,20,0.786776,0.458545,0.360772
12,139,8,2,8,2,1,C,6,S,6,S,9,0.810889,0.293899,0.23832
12,140,8,9,9,2,0,I,1,S,7,L,13,0.779423,0.444367,0.34635
12,141,1,8,8,9,1,C,7,L,1,S,10,0.353108,0.791792,0.279588
12,142,1,9,2,1,1,I,8,L,1,S,10,0.361334,0.784311,0.283399
12,143,1,8,2,1,1,I,7,L,1,S,10,0.376743,0.765651,0.288454
12,144,9,1,9,1,1,C,8,L,8,L,8,0.761872,0.288152,0.219535
13,1,1,2,8,2,1,I,1,S,6,S,14,0.561149,0.772809,0.433661
13,2,8,9,2,8,1,C,1,S,6,S,12,0.449569,0.753703,0.338841
13,3,9,2,8,1,1,C,7,L,7,L,9,0.851301,0.262618,0.223567
13,4,9,8,1,8,0,I,1,S,7,L,12,0.441669,0.766209,0.338411
13,5,8,2,8,9,1,I,6,S,1,S,10,0.754271,0.381399,0.287678
13,6,8,2,2,8,1,I,6,S,6,S,13,0.763049,0.535582,0.408675
13,7,1,2,9,8,1,I,1,S,1,S,10,0.367546,0.771306,0.283491
13,8,1,8,8,1,1,I,7,L,7,L,11,0.496984,0.762348,0.378874
13,9,8,2,1,8,1,I,6,S,7,L,14,0.756442,0.58326,0.441202
13,10,9,1,1,2,1,I,8,L,1,S,12,0.789732,0.460997,0.364064
13,11,9,8,8,1,1,C,1,S,7,L,10,0.772516,0.361903,0.279576
13,12,2,8,2,9,1,C,6,S,7,L,9,0.28952,0.813704,0.235583
13,13,9,8,2,9,0,I,1,S,7,L,12,0.441256,0.764085,0.337157
13,14,8,1,8,2,1,C,7,L,6,S,9,0.843455,0.27289,0.23017
13,15,2,8,9,2,1,I,6,S,7,L,14,0.535986,0.778186,0.417097
13,16,1,8,9,1,1,I,7,L,8,L,10,0.4431,0.751576,0.333024
13,17,8,9,9,1,0,I,1,S,8,L,11,0.775368,0.397483,0.308196
13,18,1,9,8,2,1,I,8,L,6,S,11,0.479057,0.774535,0.371046
13,19,1,2,2,1,1,I,1,S,1,S,10,0.380997,0.756891,0.288373
13,20,8,1,9,8,1,C,7,L,1,S,10,0.783236,0.364902,0.285805
13,21,1,2,9,1,1,I,1,S,8,L,13,0.535652,0.76482,0.409678
13,22,8,9,8,1,0,I,1,S,7,L,10,0.759334,0.384869,0.292244
13,23,1,2,8,1,1,I,1,S,7,L,14,0.580408,0.760286,0.441276
13,24,8,2,9,1,1,C,6,S,8,L,9,0.802891,0.302671,0.243011
13,25,2,8,1,9,1,C,6,S,8,L,9,0.268008,0.843877,0.226166
13,26,1,2,8,9,1,C,1,S,1,S,10,0.359503,0.775093,0.278648
13,27,9,1,9,1,1,C,8,L,8,L,9,0.829152,0.281067,0.233047
13,28,8,2,2,9,1,I,6,S,7,L,14,0.756482,0.580781,0.43935
13,29,9,8,1,2,1,I,1,S,1,S,24,0.768972,0.632731,0.486552
13,30,9,2,8,2,1,C,7,L,6,S,9,0.833793,0.272263,0.227011
13,31,8,9,1,8,1,C,1,S,7,L,11,0.419477,0.762832,0.31999
13,32,9,2,2,1,1,C,7,L,1,S,10,0.78562,0.350999,0.275751
13,33,2,8,8,2,1,I,6,S,6,S,15,0.586833,0.764875,0.448854
13,34,1,8,2,1,1,I,7,L,1,S,9,0.331024,0.781468,0.258684
13,35,9,1,8,2,1,C,8,L,6,S,9,0.851231,0.26224,0.223227
13,36,8,9,9,8,0,I,1,S,1,S,17,0.767908,0.472462,0.362808
13,37,1,9,2,9,1,C,8,L,7,L,8,0.248855,0.81596,0.203056
13,38,2,9,9,1,1,I,7,L,8,L,14,0.571477,0.754105,0.430953
13,39,1,2,1,8,1,C,1,S,7,L,9,0.268054,0.844363,0.226335
13,40,1,9,2,8,1,C,8,L,6,S,8,0.27591,0.782828,0.21599
13,41,2,1,9,8,1,C,1,S,1,S,14,0.787809,0.430976,0.339527
13,42,9,8,9,1,1,C,1,S,8,L,11,0.795454,0.368375,0.293026
13,43,2,1,8,9,1,I,1,S,1,S,14,0.7648,0.45005,0.344198
13,44,9,1,9,8,1,C,8,L,1,S,10,0.791679,0.353873,0.280153
13,45,9,8,1,9,0,I,1,S,8,L,11,0.41513,0.764128,0.317212
13,46,2,8,8,9,1,C,6,S,1,S,11,0.360086,0.810184,0.291736
13,47,2,8,2,8,1,C,6,S,6,S,9,0.320881,0.774023,0.248369
13,48,1,8,2,9,1,C,7,L,7,L,8,0.246396,0.816069,0.201076
13,49,8,2,8,1,1,C,6,S,7,L,9,0.842477,0.274199,0.231006
13,50,9,1,1,9,1,I,8,L,8,L,14,0.762621,0.585261,0.446333
13,51,1,2,2,8,1,C,1,S,6,S,9,0.298293,0.803213,0.239593
13,52,9,2,2,8,1,I,7,L,6,S,13,0.772366,0.523891,0.404636
13,53,9,2,1,8,1,I,7,L,7,L,14,0.76482,0.572269,0.437683
13,54,8,1,9,1,1,C,7,L,8,L,9,0.821376,0.291716,0.239609
13,55,8,1,8,1,1,C,7,L,7,L,8,0.751229,0.300296,0.225591
13,56,2,8,9,8,1,I,6,S,1,S,11,0.370506,0.804083,0.297918
13,57,2,8,2,1,1,I,6,S,1,S,11,0.389657,0.784273,0.305597
13,58,9,1,8,9,1,I,8,L,1,S,10,0.783636,0.357659,0.280275
13,59,9,1,2,1,1,C,8,L,1,S,10,0.80513,0.339457,0.273307
13,60,1,2,1,2,1,C,1,S,1,S,9,0.317449,0.772114,0.245106
13,61,1,8,1,2,1,C,7,L,1,S,8,0.288117,0.758668,0.218585
13,62,9,2,1,2,1,I,7,L,1,S,12,0.768499,0.474351,0.364539
13,63,2,1,8,1,1,C,1,S,7,L,10,0.799126,0.343855,0.274784
13,64,1,8,8,2,1,I,7,L,6,S,11,0.477126,0.774154,0.369369
13,65,9,8,9,8,1,C,1,S,1,S,15,0.760245,0.456021,0.346687
13,66,8,1,1,8,1,I,7,L,7,L,14,0.778941,0.567999,0.442438
13,67,1,8,1,9,1,C,7,L,8,L,8,0.227169,0.843023,0.191508
13,68,8,9,1,9,1,C,1,S,8,L,11,0.395044,0.793235,0.313363
13,69,2,1,9,1,1,C,1,S,8,L,10,0.755511,0.375306,0.283548
13,70,1,8,8,9,1,C,7,L,1,S,9,0.315549,0.793914,0.250519
13,71,1,9,9,1,1,I,8,L,8,L,10,0.445263,0.751736,0.33472
13,72,9,2,8,9,1,I,7,L,1,S,10,0.764126,0.369201,0.282116
13,73,8,2,9,8,1,C,6,S,1,S,10,0.762314,0.377613,0.287859
13,74,1,2,9,2,1,I,1,S,7,L,12,0.501399,0.750948,0.376525
13,75,1,8,1,8,1,C,7,L,7,L,8,0.247695,0.817317,0.202445
13,76,2,1,1,9,0,I,1,S,8,L,12,0.463737,0.763123,0.353888
13,77,8,9,2,9,1,C,1,S,7,L,11,0.418819,0.760913,0.318685
13,78,9,2,9,1,1,C,7,L,8,L,9,0.811714,0.29109,0.236282
13,79,2,1,8,2,1,C,1,S,6,S,10,0.780065,0.354774,0.276747
13,80,8,9,2,1,0,I,1,S,1,S,15,0.762039,0.457085,0.348317
13,81,2,1,1,2,1,I,1,S,1,S,20,0.753758,0.629717,0.474654
13,82,2,1,2,1,1,C,1,S,1,S,13,0.775356,0.420873,0.326327
13,83,1,8,9,8,1,I,7,L,1,S,9,0.321784,0.791816,0.254793
13,84,2,9,8,9,1,C,7,L,1,S,11,0.366277,0.805657,0.295093
13,85,1,9,1,2,1,C,8,L,1,S,8,0.290576,0.758559,0.220419
13,86,2,1,2,8,1,I,1,S,6,S,21,0.752811,0.649221,0.48874
13,87,9,8,2,1,1,C,1,S,1,S,14,0.768303,0.432216,0.332073
13,88,8,2,1,9,1,I,6,S,8,L,15,0.761759,0.605062,0.460912
13,89,2,8,9,1,1,I,6,S,8,L,14,0.565895,0.757962,0.428926
13,90,1,8,2,8,1,C,7,L,6,S,8,0.273451,0.782937,0.214095
13,91,9,2,1,9,1,I,7,L,8,L,15,0.769039,0.594909,0.457508
13,92,1,2,2,9,1,C,1,S,7,L,9,0.266932,0.842895,0.224995
