ANN,trial,N1,N2,P1,P2,Succ.,Cong,Ndist,Ndist,Pdist,Pdist,rt,a1,a2,x_acc
1,1,2,8,2,8,1,C,6,S,6,S,9,0.290868,0.813935,0.236748
1,2,2,1,2,8,1,I,1,S,6,S,15,0.753119,0.597151,0.449726
1,3,1,2,9,1,0,I,1,S,8,L,10,0.755685,0.393091,0.297053
1,4,9,8,9,1,1,C,1,S,8,L,10,0.804423,0.342511,0.275524
1,5,2,9,2,8,1,C,7,L,6,S,9,0.328408,0.765277,0.251323
1,6,9,1,9,2,1,C,8,L,7,L,8,0.812293,0.255241,0.207331
1,7,9,1,9,1,1,C,8,L,8,L,8,0.83554,0.23742,0.198374
1,8,2,9,9,2,1,I,7,L,7,L,17,0.631019,0.75565,0.476829
1,9,1,2,9,2,0,I,1,S,7,L,11,0.777744,0.405523,0.315393
1,10,2,8,9,2,1,I,6,S,7,L,15,0.594429,0.768696,0.456935
1,11,1,2,8,9,1,C,1,S,1,S,13,0.438469,0.762163,0.334185
1,12,2,8,1,8,1,C,6,S,7,L,9,0.271694,0.842198,0.22882
1,13,1,8,8,9,1,C,7,L,1,S,9,0.324862,0.775283,0.25186
1,14,1,9,9,1,1,I,8,L,8,L,15,0.607048,0.763707,0.463607
1,15,9,8,1,2,1,I,1,S,1,S,23,0.764245,0.639582,0.488798
1,16,9,1,1,2,1,I,8,L,1,S,10,0.777273,0.401693,0.312225
1,17,8,1,2,8,1,I,7,L,6,S,13,0.778791,0.53521,0.416817
1,18,9,1,1,8,1,I,8,L,7,L,12,0.77883,0.523165,0.407456
1,19,9,8,9,8,1,C,1,S,1,S,12,0.770811,0.407497,0.314103
1,20,2,8,8,9,1,C,6,S,1,S,10,0.32853,0.812364,0.266886
1,21,9,8,2,9,0,I,1,S,7,L,12,0.435223,0.780702,0.33978
1,22,2,1,1,9,1,I,1,S,8,L,17,0.769585,0.625904,0.481686
1,23,1,8,9,1,1,I,7,L,8,L,14,0.579071,0.777385,0.450161
1,24,1,8,8,2,1,I,7,L,6,S,12,0.527342,0.755367,0.398337
1,25,9,1,8,2,1,C,8,L,6,S,8,0.792653,0.27011,0.214103
1,26,1,8,1,8,1,C,7,L,7,L,8,0.276794,0.777362,0.215169
1,27,9,8,2,1,1,C,1,S,1,S,12,0.756789,0.415802,0.314675
1,28,9,1,8,9,1,I,8,L,1,S,10,0.801976,0.37005,0.296771
1,29,8,1,8,2,1,C,7,L,6,S,9,0.856832,0.263959,0.226169
1,30,8,2,1,9,1,I,6,S,8,L,16,0.773944,0.612476,0.474022
1,31,9,2,9,2,1,C,7,L,7,L,8,0.783298,0.276686,0.216727
1,32,9,8,2,8,0,I,1,S,6,S,12,0.457168,0.751165,0.343409
1,33,8,9,9,1,0,I,1,S,8,L,10,0.754785,0.389825,0.294234
1,34,2,8,8,1,1,I,6,S,7,L,15,0.601735,0.762144,0.458608
1,35,1,8,2,9,1,C,7,L,7,L,8,0.276813,0.776072,0.214827
1,36,9,2,1,2,1,I,7,L,1,S,11,0.791787,0.429304,0.339917
1,37,9,1,1,9,1,I,8,L,8,L,12,0.762177,0.545443,0.415724
1,38,8,2,2,9,1,I,6,S,7,L,15,0.763864,0.59891,0.457485
1,39,8,2,9,1,1,C,6,S,8,L,8,0.753395,0.296335,0.223257
1,40,8,2,8,2,1,C,6,S,6,S,9,0.812384,0.297209,0.241448
1,41,2,1,9,2,1,C,1,S,7,L,9,0.811,0.297784,0.241503
1,42,8,1,9,2,1,C,7,L,7,L,8,0.766981,0.28592,0.219295
1,43,1,9,1,2,1,C,8,L,1,S,9,0.333414,0.761524,0.253903
1,44,1,8,2,1,1,I,7,L,1,S,10,0.402548,0.75111,0.302358
1,45,9,1,8,1,1,C,8,L,7,L,8,0.819854,0.248985,0.204131
1,46,2,9,1,8,1,C,7,L,7,L,9,0.309233,0.793539,0.245389
1,47,8,9,8,1,0,I,1,S,7,L,11,0.78631,0.394222,0.309981
1,48,8,2,8,1,1,C,6,S,7,L,9,0.843599,0.273349,0.230596
1,49,2,1,9,8,1,C,1,S,1,S,10,0.791181,0.344029,0.272189
1,50,1,8,2,8,1,C,7,L,6,S,8,0.293478,0.75274,0.220913
1,51,8,1,1,9,1,I,7,L,8,L,14,0.769721,0.585373,0.450574
1,52,1,8,1,9,1,C,7,L,8,L,8,0.263033,0.79703,0.209645
1,53,9,8,8,2,1,C,1,S,6,S,10,0.752894,0.381632,0.287328
1,54,8,1,1,2,1,I,7,L,1,S,11,0.770422,0.442585,0.340977
1,55,2,1,8,1,1,C,1,S,7,L,9,0.819482,0.290887,0.238377
1,56,1,9,2,9,1,C,8,L,7,L,9,0.265088,0.852063,0.225872
1,57,2,1,1,8,1,I,1,S,7,L,16,0.758906,0.617709,0.468783
1,58,1,2,8,1,0,I,1,S,7,L,11,0.786752,0.398094,0.313201
1,59,8,2,9,8,1,C,6,S,1,S,10,0.819595,0.323613,0.265232
1,60,9,1,2,1,1,C,8,L,1,S,9,0.81993,0.291641,0.239125
1,61,2,1,2,9,1,I,1,S,7,L,16,0.759672,0.615836,0.467833
1,62,9,8,8,1,1,C,1,S,7,L,10,0.786443,0.355943,0.279929
1,63,9,2,9,8,1,C,7,L,1,S,9,0.794589,0.311987,0.247901
1,64,2,8,8,2,1,I,6,S,6,S,14,0.574762,0.759835,0.436724
1,65,1,8,1,2,1,C,7,L,1,S,9,0.305383,0.799383,0.244118
1,66,1,2,1,2,1,C,1,S,1,S,12,0.42766,0.758253,0.324274
1,67,2,1,1,2,1,I,1,S,1,S,13,0.760429,0.512918,0.390037
1,68,9,2,1,8,1,I,7,L,7,L,13,0.777574,0.551762,0.429036
1,69,2,8,2,1,1,I,6,S,1,S,12,0.436796,0.790974,0.345494
1,70,9,2,2,1,1,C,7,L,1,S,9,0.78745,0.315576,0.2485
1,71,1,9,9,2,1,I,8,L,7,L,14,0.588251,0.755494,0.44442
1,72,1,9,1,8,1,C,8,L,7,L,9,0.264927,0.853537,0.226125
1,73,8,9,2,1,0,I,1,S,1,S,16,0.768404,0.485189,0.372821
1,74,8,9,1,9,1,C,1,S,8,L,10,0.364526,0.78036,0.284462
1,75,8,9,1,2,1,C,1,S,1,S,12,0.427877,0.753569,0.322435
1,76,2,9,8,2,1,I,7,L,6,S,17,0.61214,0.771674,0.472373
1,77,2,9,1,2,1,C,7,L,1,S,10,0.347825,0.785603,0.273252
1,78,8,2,2,8,1,I,6,S,6,S,14,0.756835,0.575875,0.435842
1,79,9,2,2,9,1,I,7,L,7,L,13,0.77818,0.549934,0.427948
1,80,8,1,2,9,1,I,7,L,7,L,13,0.757001,0.563897,0.426871
1,81,2,9,9,1,1,I,7,L,8,L,18,0.638331,0.763634,0.487451
1,82,9,1,2,9,1,I,8,L,7,L,12,0.779352,0.52138,0.406338
1,83,8,9,9,2,0,I,1,S,7,L,11,0.777302,0.401651,0.312204
1,84,9,2,8,2,1,C,7,L,6,S,8,0.763658,0.291554,0.222648
1,85,1,9,8,9,1,C,8,L,1,S,10,0.320593,0.825374,0.264609
1,86,8,9,8,9,1,C,1,S,1,S,13,0.439599,0.756383,0.332505
1,87,8,1,9,1,1,C,7,L,8,L,8,0.790228,0.2681,0.21186
1,88,1,8,8,1,1,I,7,L,7,L,13,0.563765,0.761432,0.429268
1,89,1,2,9,8,0,I,1,S,1,S,15,0.76151,0.485632,0.369813
1,90,8,1,1,8,1,I,7,L,7,L,13,0.756395,0.565725,0.427912
1,91,8,1,8,1,1,C,7,L,7,L,8,0.774542,0.279664,0.216612
1,92,9,8,8,9,1,I,1,S,1,S,22,0.768816,0.621994,0.478199
1,93,9,2,9,1,1,C,7,L,8,L,8,0.806545,0.258865,0.208786
1,94,2,1,8,2,1,C,1,S,6,S,9,0.788268,0.314748,0.248106
1,95,9,1,9,8,1,C,8,L,1,S,9,0.827068,0.288052,0.238239
1,96,2,8,9,1,1,I,6,S,8,L,16,0.609556,0.775466,0.47269
1,97,2,9,2,9,1,C,7,L,7,L,9,0.309394,0.792066,0.245061
1,98,2,1,9,1,1,C,1,S,8,L,9,0.83674,0.278159,0.232747
1,99,9,2,8,9,1,I,7,L,1,S,10,0.767686,0.395574,0.303676
1,100,9,2,8,1,1,C,7,L,7,L,8,0.790859,0.270429,0.213872
1,101,8,2,9,2,1,C,6,S,7,L,9,0.835116,0.280245,0.234037
1,102,2,9,9,8,1,I,7,L,1,S,14,0.505337,0.781908,0.395127
1,103,8,1,2,1,1,C,7,L,1,S,9,0.768577,0.326583,0.251004
1,104,1,8,9,8,1,I,7,L,1,S,11,0.409512,0.797629,0.326639
1,105,8,9,2,9,1,C,1,S,7,L,10,0.381002,0.756131,0.288087
1,106,2,8,9,8,1,I,6,S,1,S,12,0.450818,0.782668,0.352841
1,107,2,1,2,1,1,C,1,S,1,S,10,0.781833,0.349155,0.272981
1,108,1,8,9,2,1,I,7,L,7,L,13,0.555376,0.768634,0.426881
1,109,1,9,2,8,1,C,8,L,6,S,9,0.284102,0.825274,0.234462
1,110,8,1,8,9,1,I,7,L,1,S,11,0.800096,0.403525,0.322859
1,111,1,2,1,8,1,C,1,S,7,L,10,0.381605,0.761012,0.290406
1,112,2,9,1,9,1,C,7,L,8,L,9,0.293988,0.815199,0.239659
1,113,2,8,2,9,1,C,6,S,7,L,9,0.271855,0.840724,0.228555
1,114,9,2,2,8,1,I,7,L,6,S,12,0.767215,0.51821,0.397578
1,115,2,8,1,9,1,C,6,S,8,L,8,0.292429,0.756015,0.221081
1,116,1,9,8,2,1,I,8,L,6,S,14,0.564989,0.774239,0.437436
1,117,1,2,2,1,0,I,1,S,1,S,16,0.762607,0.496846,0.378898
1,118,1,9,8,1,1,I,8,L,7,L,15,0.592083,0.776047,0.459484
1,119,9,8,1,9,0,I,1,S,8,L,11,0.415146,0.773614,0.321162
1,120,2,1,8,9,1,I,1,S,1,S,12,0.759054,0.464441,0.352535
1,121,8,9,2,8,1,C,1,S,6,S,11,0.384483,0.785079,0.301849
1,122,1,2,1,9,1,C,1,S,8,L,10,0.365427,0.783626,0.286358
1,123,1,2,2,8,1,C,1,S,6,S,11,0.384925,0.788951,0.303687
1,124,9,2,1,9,1,I,7,L,8,L,13,0.7612,0.573199,0.436319
1,125,9,8,1,8,0,I,1,S,7,L,11,0.431765,0.750873,0.324201
1,126,1,9,2,1,1,I,8,L,1,S,11,0.430642,0.760294,0.327415
1,127,1,9,9,8,1,I,8,L,1,S,11,0.442384,0.753542,0.333355
1,128,8,9,1,8,1,C,1,S,7,L,10,0.380705,0.757746,0.288477
1,129,1,2,2,9,1,C,1,S,7,L,10,0.381902,0.759397,0.290015
1,130,8,1,9,8,1,C,7,L,1,S,9,0.775715,0.322994,0.250552
1,131,2,9,2,1,1,I,7,L,1,S,13,0.488773,0.758846,0.370904
1,132,9,8,9,2,1,C,1,S,7,L,10,0.777503,0.363222,0.282406
1,133,8,2,2,1,1,C,6,S,1,S,10,0.810247,0.328739,0.26636
1,134,1,9,1,9,1,C,8,L,8,L,8,0.287046,0.765242,0.21966
1,135,8,9,8,2,0,I,1,S,6,S,11,0.751946,0.420872,0.316473
1,136,8,2,1,2,1,I,6,S,1,S,12,0.75807,0.485811,0.368278
1,137,1,2,8,2,0,I,1,S,6,S,11,0.752388,0.424744,0.319573
1,138,2,8,1,2,1,C,6,S,1,S,9,0.340181,0.750184,0.255198
1,139,8,2,1,8,1,I,6,S,7,L,15,0.763137,0.600777,0.458475
1,140,8,9,9,8,0,I,1,S,1,S,15,0.765415,0.476434,0.36467
1,141,2,9,8,1,1,I,7,L,7,L,18,0.626281,0.773926,0.484695
1,142,8,2,8,9,1,I,6,S,1,S,12,0.791962,0.440492,0.348853
1,143,9,1,2,8,1,I,8,L,6,S,11,0.764058,0.485805,0.371183
1,144,2,9,8,9,1,C,7,L,1,S,10,0.372528,0.75396,0.280871
2,1,9,2,2,8,1,I,7,L,6,S,15,0.777166,0.57435,0.446365
2,2,2,9,2,8,1,C,7,L,6,S,9,0.306734,0.795796,0.244098
2,3,9,1,9,8,1,C,8,L,1,S,10,0.758957,0.386579,0.293397
2,4,1,2,8,1,1,I,1,S,7,L,20,0.637227,0.768228,0.489535
2,5,9,1,2,9,1,I,8,L,7,L,13,0.766831,0.540671,0.414603
2,6,1,9,8,1,1,I,8,L,7,L,13,0.537794,0.773257,0.415853
2,7,9,8,9,1,1,C,1,S,8,L,11,0.776147,0.393984,0.30579
2,8,9,1,2,8,1,I,8,L,6,S,13,0.774338,0.530914,0.411107
2,9,2,9,8,2,1,I,7,L,6,S,13,0.527855,0.765026,0.403823
2,10,8,2,9,2,1,C,6,S,7,L,10,0.838316,0.308119,0.258301
2,11,8,9,2,8,1,C,1,S,6,S,11,0.399336,0.765471,0.305681
2,12,2,9,1,2,1,C,7,L,1,S,10,0.36268,0.773893,0.280675
2,13,1,2,2,8,1,C,1,S,6,S,10,0.354988,0.780879,0.277203
2,14,8,2,1,2,1,I,6,S,1,S,11,0.761095,0.410992,0.312804
2,15,9,8,9,8,1,C,1,S,1,S,23,0.767105,0.609103,0.467246
2,16,1,9,2,9,1,C,8,L,7,L,9,0.281391,0.831144,0.233877
2,17,9,1,2,1,1,C,8,L,1,S,10,0.798769,0.345381,0.27588
2,18,9,1,1,2,1,I,8,L,1,S,10,0.759236,0.384606,0.292007
2,19,1,9,2,8,1,C,8,L,6,S,9,0.287393,0.823084,0.236548
2,20,8,1,8,9,1,I,7,L,1,S,10,0.750079,0.391631,0.293754
2,21,8,9,8,1,0,I,1,S,7,L,12,0.779293,0.422956,0.329607
2,22,1,9,9,2,1,I,8,L,7,L,12,0.487774,0.772856,0.376979
2,23,9,2,1,2,1,I,7,L,1,S,11,0.766241,0.410673,0.314674
2,24,9,1,9,2,1,C,8,L,7,L,9,0.792284,0.309972,0.245585
2,25,1,2,9,1,1,I,1,S,8,L,20,0.631524,0.772717,0.487989
2,26,8,9,1,8,1,C,1,S,7,L,11,0.402768,0.76177,0.306817
2,27,8,1,2,9,1,I,7,L,7,L,13,0.760847,0.542223,0.412549
2,28,1,8,1,2,1,C,7,L,1,S,10,0.354229,0.784579,0.277921
2,29,2,8,8,1,1,I,6,S,7,L,15,0.581079,0.770426,0.447679
2,30,2,1,8,2,1,C,1,S,6,S,11,0.8088,0.357175,0.288883
2,31,9,1,8,9,1,I,8,L,1,S,10,0.754915,0.391392,0.295468
2,32,8,2,9,1,1,C,6,S,8,L,9,0.772078,0.325124,0.251021
2,33,1,9,8,2,1,I,8,L,6,S,12,0.499251,0.764812,0.381833
2,34,1,8,8,9,1,C,7,L,1,S,10,0.349908,0.791365,0.276905
2,35,8,9,1,2,1,C,1,S,1,S,15,0.451406,0.762123,0.344027
2,36,8,1,9,8,1,C,7,L,1,S,10,0.754121,0.386819,0.291708
2,37,8,1,8,2,1,C,7,L,6,S,9,0.796052,0.304159,0.242126
2,38,1,9,8,9,1,C,8,L,1,S,10,0.336488,0.81159,0.27309
2,39,8,2,8,9,1,I,6,S,1,S,11,0.75486,0.420147,0.317152
2,40,1,8,2,8,1,C,7,L,6,S,9,0.29919,0.805135,0.240889
2,41,2,9,9,8,1,I,7,L,1,S,10,0.3624,0.775867,0.281174
2,42,9,2,1,8,1,I,7,L,7,L,14,0.752455,0.573086,0.431221
2,43,8,2,8,1,1,C,6,S,7,L,9,0.778983,0.320528,0.249686
2,44,8,9,1,9,1,C,1,S,8,L,11,0.395233,0.771887,0.305076
2,45,2,1,9,2,1,C,1,S,7,L,11,0.798022,0.364638,0.290989
2,46,2,1,1,2,1,I,1,S,1,S,15,0.756299,0.492993,0.37285
2,47,9,8,8,1,1,C,1,S,7,L,11,0.784524,0.388275,0.304611
2,48,8,1,1,8,1,I,7,L,7,L,13,0.771787,0.528828,0.408143
2,49,2,9,2,1,1,I,7,L,1,S,11,0.386015,0.795535,0.307088
2,50,8,1,8,1,1,C,7,L,7,L,9,0.822708,0.28568,0.235031
2,51,1,8,9,8,1,I,7,L,1,S,10,0.35395,0.786552,0.2784
2,52,1,9,9,8,1,I,8,L,1,S,10,0.34053,0.806778,0.274732
2,53,9,8,8,2,1,C,1,S,6,S,11,0.751014,0.411684,0.309181
2,54,8,2,2,9,1,I,6,S,7,L,15,0.763457,0.585341,0.446883
2,55,8,1,9,1,1,C,7,L,8,L,9,0.815802,0.290277,0.236808
2,56,2,8,9,2,1,I,6,S,7,L,14,0.537463,0.776524,0.417353
2,57,1,2,1,9,1,C,1,S,8,L,10,0.351258,0.786849,0.276387
2,58,9,1,8,1,1,C,8,L,7,L,9,0.826931,0.285937,0.236451
2,59,1,9,1,9,1,C,8,L,8,L,9,0.284172,0.828336,0.23539
2,60,8,9,9,8,1,I,1,S,1,S,15,0.447957,0.768385,0.344203
2,61,2,9,9,1,1,I,7,L,8,L,14,0.555212,0.775805,0.430736
2,62,1,2,9,8,1,I,1,S,1,S,12,0.406534,0.776486,0.315668
2,63,2,1,8,9,1,I,1,S,1,S,16,0.768846,0.513581,0.394865
2,64,8,1,2,1,1,C,7,L,1,S,10,0.793933,0.34562,0.274399
2,65,9,2,2,1,1,C,7,L,1,S,11,0.82123,0.355882,0.292261
2,66,1,8,2,1,1,I,7,L,1,S,11,0.376964,0.807013,0.304215
2,67,2,8,1,9,1,C,6,S,8,L,9,0.317149,0.780933,0.247672
2,68,2,9,8,9,1,C,7,L,1,S,10,0.358358,0.780679,0.279763
2,69,2,1,2,1,1,C,1,S,1,S,13,0.790412,0.40594,0.32086
2,70,8,2,2,1,1,C,6,S,1,S,11,0.816083,0.356202,0.29069
2,71,2,1,1,8,1,I,1,S,7,L,21,0.751087,0.650195,0.488353
2,72,2,1,2,8,1,I,1,S,6,S,22,0.771788,0.636926,0.491572
2,73,1,2,1,2,1,C,1,S,1,S,12,0.407782,0.77326,0.315322
2,74,2,8,1,8,1,C,6,S,7,L,9,0.323367,0.772627,0.249842
2,75,2,9,9,2,1,I,7,L,7,L,13,0.516136,0.773394,0.399177
2,76,2,1,9,8,1,C,1,S,1,S,15,0.75285,0.499254,0.375864
2,77,1,8,1,9,1,C,7,L,8,L,9,0.29597,0.810387,0.23985
2,78,2,9,2,9,1,C,7,L,7,L,9,0.300732,0.803856,0.241746
2,79,9,8,1,2,1,I,1,S,1,S,23,0.77256,0.601197,0.464461
2,80,1,2,8,2,1,I,1,S,6,S,19,0.625441,0.76454,0.478174
2,81,2,9,1,8,1,C,7,L,7,L,9,0.309731,0.792742,0.245537
2,82,2,9,8,1,1,I,7,L,7,L,14,0.563495,0.769764,0.433758
2,83,9,2,1,9,1,I,7,L,8,L,15,0.772784,0.580552,0.448641
2,84,8,2,1,8,1,I,6,S,7,L,15,0.773757,0.573258,0.443562
2,85,9,2,9,2,1,C,7,L,7,L,10,0.842813,0.308344,0.259876
2,86,8,9,2,1,1,I,1,S,1,S,25,0.619238,0.764543,0.473434
2,87,1,9,1,2,1,C,8,L,1,S,10,0.340809,0.804804,0.274285
2,88,9,1,1,8,1,I,8,L,7,L,13,0.77777,0.527277,0.4101
2,89,2,1,1,9,1,I,1,S,8,L,22,0.768751,0.641027,0.49279
2,90,9,8,2,8,0,I,1,S,6,S,12,0.441265,0.76067,0.335657
2,91,2,8,2,9,1,C,6,S,7,L,9,0.314368,0.783741,0.246383
2,92,2,8,9,1,1,I,6,S,8,L,15,0.57316,0.776323,0.444958
2,93,8,2,8,2,1,C,6,S,6,S,9,0.752328,0.339006,0.255044
2,94,9,8,9,2,1,C,1,S,7,L,12,0.798134,0.394639,0.314975
2,95,9,2,2,9,1,I,7,L,7,L,15,0.770014,0.583261,0.449119
2,96,1,8,8,1,1,I,7,L,7,L,13,0.553253,0.751394,0.415711
2,97,8,9,2,9,1,C,1,S,7,L,11,0.392125,0.775175,0.303966
2,98,2,8,2,1,1,I,6,S,1,S,11,0.403725,0.769619,0.310715
2,99,9,2,9,8,1,C,7,L,1,S,11,0.765541,0.413188,0.316312
2,100,2,8,2,8,1,C,6,S,6,S,9,0.32037,0.775681,0.248505
2,101,8,9,9,1,0,I,1,S,8,L,12,0.770706,0.428934,0.330582
2,102,9,2,8,1,1,C,7,L,7,L,9,0.782774,0.321264,0.251477
2,103,1,2,2,9,1,C,1,S,7,L,10,0.34826,0.789987,0.275121
2,104,2,8,1,2,1,C,6,S,1,S,10,0.378633,0.750338,0.284103
2,105,1,8,8,2,1,I,7,L,6,S,13,0.518461,0.776632,0.402654
2,106,2,1,9,1,1,C,1,S,8,L,10,0.75767,0.371883,0.281765
2,107,1,8,1,8,1,C,7,L,7,L,9,0.302188,0.802081,0.242379
2,108,9,1,9,1,1,C,8,L,8,L,9,0.820026,0.290534,0.238245
2,109,8,9,8,9,1,C,1,S,1,S,15,0.434669,0.785843,0.341582
2,110,8,1,1,2,1,I,7,L,1,S,10,0.7544,0.384845,0.290327
2,111,1,9,1,8,1,C,8,L,7,L,9,0.29039,0.82003,0.238129
2,112,8,2,9,8,1,C,6,S,1,S,11,0.760394,0.413507,0.314428
2,113,1,8,9,2,1,I,7,L,7,L,12,0.502992,0.750814,0.377653
2,114,2,8,8,2,1,I,6,S,6,S,14,0.549063,0.768062,0.421714
2,115,8,1,2,8,1,I,7,L,6,S,13,0.768354,0.532466,0.409122
2,116,9,1,8,2,1,C,8,L,6,S,9,0.800276,0.304416,0.243617
2,117,1,8,9,1,1,I,7,L,8,L,13,0.544723,0.757473,0.412613
2,118,8,1,1,9,1,I,7,L,8,L,13,0.763905,0.539066,0.411795
2,119,9,2,8,2,1,C,7,L,6,S,9,0.756118,0.339742,0.256885
2,120,9,1,1,9,1,I,8,L,8,L,13,0.769888,0.537514,0.413826
2,121,9,8,1,9,0,I,1,S,8,L,12,0.436927,0.767279,0.335245
2,122,8,2,2,8,1,I,6,S,6,S,15,0.77061,0.57643,0.444203
2,123,9,2,8,9,1,I,7,L,1,S,11,0.760006,0.419827,0.319072
2,124,9,2,9,1,1,C,7,L,8,L,9,0.775869,0.32586,0.252825
2,125,2,1,8,1,1,C,1,S,7,L,10,0.765496,0.366634,0.280657
2,126,2,1,2,9,1,I,1,S,7,L,22,0.767342,0.642016,0.492645
2,127,2,8,9,8,1,I,6,S,1,S,10,0.378354,0.752312,0.28464
2,128,1,2,8,9,1,C,1,S,1,S,12,0.399213,0.785432,0.313555
2,129,1,2,9,2,1,I,1,S,7,L,19,0.616726,0.771488,0.475797
2,130,8,1,9,2,1,C,7,L,7,L,9,0.78806,0.309714,0.244074
2,131,8,2,1,9,1,I,6,S,8,L,15,0.766228,0.582632,0.446429
2,132,9,8,2,1,1,C,1,S,1,S,15,0.783906,0.435882,0.341691
2,133,1,2,1,8,1,C,1,S,7,L,10,0.358262,0.777401,0.278513
2,134,2,8,8,9,1,C,6,S,1,S,10,0.374312,0.757125,0.283401
2,135,1,9,9,1,1,I,8,L,8,L,13,0.529265,0.779336,0.412475
2,136,2,9,1,9,1,C,7,L,8,L,9,0.303513,0.801048,0.243129
2,137,1,9,2,1,1,I,8,L,1,S,10,0.380342,0.765579,0.291182
2,138,8,9,8,2,0,I,1,S,6,S,13,0.780752,0.438757,0.34256
2,139,9,8,1,8,0,I,1,S,7,L,12,0.444744,0.75693,0.33664
2,140,1,2,2,1,1,I,1,S,1,S,14,0.459262,0.779765,0.358117
2,141,9,8,8,9,1,I,1,S,1,S,23,0.752727,0.626406,0.471512
2,142,9,8,2,9,0,I,1,S,7,L,12,0.433805,0.77056,0.334273
2,143,1,8,2,9,1,C,7,L,7,L,9,0.293189,0.813195,0.23842
2,144,8,9,9,2,0,I,1,S,7,L,13,0.769033,0.447125,0.343854
3,1,8,1,9,2,1,C,7,L,7,L,9,0.849839,0.269588,0.229107
3,2,8,2,8,9,1,I,6,S,1,S,10,0.754294,0.378905,0.285806
3,3,9,1,8,9,1,I,8,L,1,S,9,0.77694,0.330116,0.256481
3,4,2,9,1,2,1,C,7,L,1,S,10,0.342703,0.792888,0.271725
3,5,2,9,2,1,1,I,7,L,1,S,11,0.377141,0.797181,0.30065
3,6,2,8,8,1,1,I,6,S,7,L,17,0.626249,0.755467,0.473111
3,7,8,1,8,9,1,I,7,L,1,S,10,0.826824,0.326505,0.269962
3,8,8,2,9,8,1,C,6,S,1,S,10,0.813997,0.329017,0.267819
3,9,8,9,8,1,0,I,1,S,7,L,11,0.767953,0.40566,0.311528
3,10,2,9,9,8,1,I,7,L,1,S,12,0.482522,0.754863,0.364238
3,11,1,9,8,2,1,I,8,L,6,S,11,0.468277,0.768851,0.360036
3,12,9,2,9,1,1,C,7,L,8,L,9,0.857212,0.263878,0.226199
3,13,8,2,1,8,1,I,6,S,7,L,14,0.75515,0.567616,0.428636
3,14,1,9,9,8,1,I,8,L,1,S,10,0.402829,0.768383,0.309527
3,15,8,2,1,9,1,I,6,S,8,L,15,0.765462,0.589663,0.451365
3,16,1,9,8,9,1,C,8,L,1,S,10,0.343125,0.818271,0.28077
3,17,9,1,2,8,1,I,8,L,6,S,11,0.76539,0.471207,0.360657
3,18,2,8,1,2,1,C,6,S,1,S,11,0.352537,0.814719,0.287218
3,19,1,9,1,9,1,C,8,L,8,L,8,0.278333,0.776932,0.216246
3,20,8,9,8,2,0,I,1,S,6,S,12,0.777426,0.418661,0.325478
3,21,1,2,1,8,1,C,1,S,7,L,9,0.31209,0.788823,0.246184
3,22,1,8,2,9,1,C,7,L,7,L,8,0.295418,0.752707,0.222363
3,23,9,2,2,9,1,I,7,L,7,L,13,0.761132,0.54885,0.417747
3,24,2,1,8,1,1,C,1,S,7,L,10,0.829105,0.318367,0.263959
3,25,8,9,9,1,0,I,1,S,8,L,11,0.781045,0.39709,0.310145
3,26,9,2,9,2,1,C,7,L,7,L,9,0.829665,0.282779,0.234612
3,27,8,9,8,9,0,C,1,S,1,S,20,0.755671,0.538504,0.406932
3,28,2,1,8,2,1,C,1,S,6,S,10,0.795726,0.341567,0.271794
3,29,2,8,9,2,1,I,6,S,7,L,17,0.6123,0.767075,0.46968
3,30,9,1,2,9,1,I,8,L,7,L,12,0.786576,0.501873,0.394761
3,31,9,8,9,1,1,C,1,S,8,L,9,0.791069,0.312103,0.246895
3,32,1,2,9,2,1,I,1,S,7,L,14,0.567014,0.765432,0.434011
3,33,8,9,1,9,1,C,1,S,8,L,11,0.39781,0.773352,0.307647
3,34,1,2,9,1,1,I,1,S,8,L,15,0.592897,0.770822,0.457018
3,35,8,9,2,9,1,C,1,S,7,L,11,0.396251,0.773693,0.306577
3,36,2,9,2,8,1,C,7,L,6,S,9,0.314524,0.781105,0.245676
3,37,1,8,1,9,1,C,7,L,8,L,8,0.297046,0.752379,0.223491
3,38,1,2,9,8,1,I,1,S,1,S,12,0.475836,0.766193,0.364583
3,39,8,1,2,1,1,C,7,L,1,S,10,0.809193,0.340768,0.275747
3,40,1,8,1,8,1,C,7,L,7,L,9,0.273058,0.842214,0.229973
3,41,9,2,8,2,1,C,7,L,6,S,9,0.815556,0.291892,0.238054
3,42,2,8,1,9,1,C,6,S,8,L,9,0.340166,0.75422,0.25656
3,43,9,2,1,9,1,I,7,L,8,L,13,0.762416,0.548775,0.418395
3,44,1,2,8,2,1,I,1,S,6,S,14,0.550054,0.777544,0.427691
3,45,1,8,2,1,1,I,7,L,1,S,10,0.347892,0.802992,0.279355
3,46,9,2,1,8,1,I,7,L,7,L,13,0.780249,0.523427,0.408403
3,47,1,2,8,9,1,C,1,S,1,S,11,0.395294,0.78799,0.311487
3,48,8,2,8,2,1,C,6,S,6,S,9,0.772089,0.324933,0.250878
3,49,9,8,1,2,1,I,1,S,1,S,13,0.783814,0.464435,0.364031
3,50,8,1,8,1,1,C,7,L,7,L,8,0.754888,0.295678,0.223204
3,51,9,2,8,9,1,I,7,L,1,S,10,0.804458,0.341325,0.274581
3,52,8,9,9,2,0,I,1,S,7,L,12,0.794948,0.406734,0.323332
3,53,1,2,8,1,1,I,1,S,7,L,14,0.58404,0.752001,0.439199
3,54,2,1,2,1,1,C,1,S,1,S,12,0.776728,0.407285,0.31635
3,55,8,1,2,8,1,I,7,L,6,S,12,0.768638,0.503854,0.387282
3,56,9,1,1,8,1,I,8,L,7,L,11,0.76738,0.470379,0.36096
3,57,1,8,9,8,1,I,7,L,1,S,11,0.426744,0.787896,0.33623
3,58,1,9,9,1,1,I,8,L,8,L,12,0.523268,0.771991,0.403958
3,59,9,8,2,1,1,C,1,S,1,S,11,0.774548,0.388533,0.300937
3,60,9,8,1,8,1,I,1,S,7,L,16,0.775141,0.586493,0.454614
3,61,2,8,9,1,1,I,6,S,8,L,18,0.626308,0.771731,0.483341
3,62,9,1,8,1,1,C,8,L,7,L,8,0.782832,0.27478,0.215106
3,63,2,8,2,8,1,C,6,S,6,S,10,0.317197,0.825343,0.261797
3,64,9,2,8,1,1,C,7,L,7,L,9,0.845506,0.271163,0.22927
3,65,8,9,1,8,1,C,1,S,7,L,12,0.394547,0.801357,0.316173
3,66,2,1,2,9,1,I,1,S,7,L,19,0.768383,0.63067,0.484596
3,67,1,8,8,9,1,C,7,L,1,S,10,0.365524,0.788729,0.288299
3,68,2,1,1,8,1,I,1,S,7,L,18,0.759923,0.623515,0.473824
3,69,1,9,1,2,1,C,8,L,1,S,9,0.306492,0.800295,0.245284
3,70,2,9,8,2,1,I,7,L,6,S,14,0.557237,0.766137,0.42692
3,71,1,2,2,9,1,C,1,S,7,L,9,0.297111,0.809571,0.240533
3,72,9,8,2,8,1,I,1,S,6,S,16,0.773938,0.586494,0.45391
3,73,2,1,1,2,1,I,1,S,1,S,15,0.778163,0.516074,0.40159
3,74,2,8,1,8,1,C,6,S,7,L,10,0.319224,0.824511,0.263204
3,75,1,8,9,2,1,I,7,L,7,L,12,0.515149,0.765021,0.3941
3,76,9,8,2,9,1,I,1,S,7,L,16,0.757589,0.608446,0.460952
3,77,1,9,2,9,1,C,8,L,7,L,8,0.276705,0.77726,0.215071
3,78,1,9,2,1,1,I,8,L,1,S,9,0.345121,0.758335,0.261717
3,79,8,2,1,2,1,I,6,S,1,S,12,0.778206,0.444353,0.345799
3,80,1,9,1,8,1,C,8,L,7,L,8,0.289232,0.760247,0.219888
3,81,1,9,2,8,1,C,8,L,6,S,8,0.287369,0.760796,0.218629
3,82,8,2,2,1,1,C,6,S,1,S,11,0.80586,0.367469,0.296129
3,83,8,1,1,9,1,I,7,L,8,L,12,0.753039,0.528578,0.39804
3,84,2,9,9,1,1,I,7,L,8,L,15,0.600084,0.759704,0.455887
3,85,1,2,1,2,1,C,1,S,1,S,10,0.337331,0.802713,0.27078
3,86,8,1,8,2,1,C,7,L,6,S,9,0.83573,0.278702,0.232919
3,87,8,2,2,9,1,I,6,S,7,L,15,0.764507,0.589404,0.450604
3,88,9,8,1,9,1,I,1,S,8,L,16,0.758379,0.608874,0.461757
3,89,2,8,8,2,1,I,6,S,6,S,16,0.604562,0.753214,0.455364
3,90,2,1,9,1,1,C,1,S,8,L,9,0.753922,0.342878,0.258503
3,91,8,2,8,1,1,C,6,S,7,L,9,0.802039,0.304205,0.243984
3,92,1,8,1,2,1,C,7,L,1,S,9,0.32744,0.772513,0.252952
3,93,1,8,8,2,1,I,7,L,6,S,12,0.497627,0.776948,0.38663
3,94,9,1,1,2,1,I,8,L,1,S,10,0.789695,0.374339,0.295614
3,95,9,2,2,8,1,I,7,L,6,S,13,0.778498,0.524021,0.40795
3,96,8,1,1,8,1,I,7,L,7,L,12,0.770531,0.503114,0.387664
3,97,2,8,8,9,1,C,6,S,1,S,12,0.43878,0.761875,0.334295
3,98,1,9,9,2,1,I,8,L,7,L,11,0.485359,0.757487,0.367653
3,99,9,1,1,9,1,I,8,L,8,L,11,0.750726,0.495165,0.371733
3,100,1,9,8,1,1,I,8,L,7,L,12,0.510156,0.780811,0.398335
3,101,1,8,2,8,1,C,7,L,6,S,9,0.271072,0.84295,0.2285
3,102,9,1,9,1,1,C,8,L,8,L,8,0.793015,0.268552,0.212966
3,103,8,1,9,8,1,C,7,L,1,S,9,0.788679,0.315912,0.249153
3,104,9,1,9,8,1,C,8,L,1,S,9,0.820718,0.292203,0.239817
3,105,2,1,9,8,1,C,1,S,1,S,11,0.819036,0.350176,0.286807
3,106,2,9,9,2,1,I,7,L,7,L,14,0.574197,0.754026,0.432959
3,107,2,9,2,9,1,C,7,L,7,L,9,0.301532,0.801116,0.241562
3,108,8,1,1,2,1,I,7,L,1,S,10,0.755261,0.399951,0.302067
3,109,9,8,8,2,1,C,1,S,6,S,10,0.843489,0.303596,0.25608
3,110,9,1,2,1,1,C,8,L,1,S,9,0.764303,0.339971,0.259841
3,111,1,8,9,1,1,I,7,L,8,L,13,0.549501,0.774899,0.425807
3,112,1,8,8,1,1,I,7,L,7,L,12,0.533375,0.751242,0.400694
3,113,8,9,1,2,1,C,1,S,1,S,14,0.440613,0.771546,0.339953
3,114,9,2,9,8,1,C,7,L,1,S,9,0.768505,0.329102,0.252917
3,115,9,1,9,2,1,C,8,L,7,L,8,0.769391,0.2848,0.219122
3,116,9,8,9,8,1,C,1,S,1,S,10,0.786469,0.347429,0.273242
3,117,8,2,9,1,1,C,6,S,8,L,9,0.813746,0.296919,0.241616
3,118,1,2,2,1,1,I,1,S,1,S,11,0.371006,0.807971,0.299762
3,119,9,8,9,2,1,C,1,S,7,L,9,0.763522,0.331005,0.252729
3,120,1,2,1,9,1,C,1,S,8,L,9,0.298782,0.809164,0.241764
3,121,8,1,2,9,1,I,7,L,7,L,12,0.751605,0.528802,0.39745
3,122,8,9,2,8,1,C,1,S,6,S,12,0.392654,0.802098,0.314947
3,123,2,1,9,2,1,C,1,S,7,L,10,0.81169,0.33114,0.268783
3,124,2,9,8,9,1,C,7,L,1,S,11,0.401429,0.7772,0.311991
3,125,2,8,2,1,1,I,6,S,1,S,12,0.4058,0.789044,0.320194
3,126,2,1,1,9,1,I,1,S,8,L,19,0.768726,0.631552,0.485491
3,127,9,1,8,2,1,C,8,L,6,S,8,0.757762,0.292286,0.221483
3,128,8,2,2,8,1,I,6,S,6,S,14,0.75357,0.568027,0.428048
3,129,9,2,2,1,1,C,7,L,1,S,10,0.786826,0.355588,0.279786
3,130,1,2,2,8,1,C,1,S,6,S,9,0.310103,0.78956,0.244845
3,131,8,2,9,2,1,C,6,S,7,L,9,0.786198,0.31582,0.248297
3,132,9,8,8,1,1,C,1,S,7,L,9,0.779363,0.319389,0.24892
3,133,2,9,1,8,1,C,7,L,7,L,9,0.316511,0.780368,0.246995
3,134,2,1,2,8,1,I,1,S,6,S,18,0.759094,0.623115,0.473003
3,135,2,8,2,9,1,C,6,S,7,L,9,0.338495,0.754627,0.255438
3,136,8,9,9,8,0,I,1,S,1,S,14,0.78147,0.447244,0.349508
3,137,9,2,1,2,1,I,7,L,1,S,11,0.786956,0.408217,0.321249
3,138,2,8,9,8,1,I,6,S,1,S,14,0.541184,0.751717,0.406818
3,139,2,1,8,9,1,I,1,S,1,S,12,0.809707,0.380116,0.307783
3,140,8,9,2,1,1,I,1,S,1,S,26,0.612486,0.756637,0.46343
3,141,9,8,8,9,1,I,1,S,1,S,11,0.798836,0.368552,0.294413
3,142,2,9,8,1,1,I,7,L,7,L,15,0.588261,0.768198,0.451901
3,143,2,9,1,9,1,C,7,L,8,L,9,0.303203,0.800709,0.242777
3,144,8,1,9,1,1,C,7,L,8,L,8,0.765071,0.289451,0.221451
4,1,8,9,8,1,1,I,1,S,7,L,21,0.63111,0.771364,0.486816
4,2,8,2,2,1,1,C,6,S,1,S,10,0.767322,0.367654,0.282109
4,3,1,8,1,2,1,C,7,L,1,S,10,0.324571,0.822928,0.267099
4,4,9,8,1,2,1,I,1,S,1,S,13,0.768491,0.459637,0.353227
4,5,1,8,2,9,1,C,7,L,7,L,9,0.299625,0.807513,0.241951
4,6,1,9,9,1,1,I,8,L,8,L,12,0.507783,0.774025,0.393037
4,7,9,2,9,2,1,C,7,L,7,L,9,0.848117,0.267177,0.226597
4,8,8,9,8,2,1,I,1,S,6,S,20,0.640447,0.750411,0.480598
4,9,9,8,9,2,1,C,1,S,7,L,10,0.825746,0.315861,0.260821
4,10,2,9,9,8,1,I,7,L,1,S,10,0.362749,0.783849,0.284341
4,11,2,1,9,1,1,C,1,S,8,L,11,0.811851,0.359916,0.292198
4,12,8,2,2,9,1,I,6,S,7,L,13,0.753657,0.536415,0.404273
4,13,1,9,8,2,1,I,8,L,6,S,11,0.466823,0.759772,0.354679
4,14,1,2,9,1,1,I,1,S,8,L,19,0.632298,0.765668,0.48413
4,15,9,2,9,1,1,C,7,L,8,L,9,0.851029,0.266652,0.226929
4,16,2,1,2,1,1,C,1,S,1,S,13,0.752686,0.436051,0.328209
4,17,8,2,1,8,1,I,6,S,7,L,15,0.77599,0.58152,0.451254
4,18,2,9,8,1,1,I,7,L,7,L,12,0.487203,0.779566,0.379807
4,19,1,8,1,9,1,C,7,L,8,L,9,0.277042,0.839815,0.232664
4,20,2,9,8,2,1,I,7,L,6,S,12,0.482977,0.781107,0.377257
4,21,2,8,9,2,1,I,6,S,7,L,13,0.546106,0.75564,0.412659
4,22,8,9,2,8,1,C,1,S,6,S,11,0.346266,0.822953,0.28496
4,23,9,8,2,9,1,I,1,S,7,L,17,0.774196,0.594222,0.460044
4,24,1,8,9,1,1,I,7,L,8,L,13,0.536109,0.775414,0.415707
4,25,8,1,1,9,1,I,7,L,8,L,12,0.752489,0.527675,0.397069
4,26,2,1,1,2,1,I,1,S,1,S,20,0.766113,0.587145,0.449819
4,27,9,1,2,9,1,I,8,L,7,L,11,0.790104,0.444923,0.351535
4,28,8,2,8,1,1,C,6,S,7,L,9,0.771346,0.326105,0.251539
4,29,8,2,8,9,1,I,6,S,1,S,11,0.791176,0.387928,0.306919
4,30,1,9,9,2,1,I,8,L,7,L,12,0.503981,0.775377,0.390775
4,31,9,1,2,8,1,I,8,L,6,S,11,0.781681,0.454504,0.355277
4,32,1,2,2,1,1,I,1,S,1,S,14,0.463926,0.785814,0.36456
4,33,1,2,9,8,1,I,1,S,1,S,13,0.456284,0.760191,0.346863
4,34,9,1,1,8,1,I,8,L,7,L,11,0.755678,0.491806,0.371647
4,35,9,1,9,8,1,C,8,L,1,S,9,0.780985,0.325468,0.254186
4,36,9,8,8,9,1,I,1,S,1,S,12,0.762795,0.427816,0.326336
4,37,1,8,9,2,1,I,7,L,7,L,13,0.532196,0.776953,0.413491
4,38,9,8,2,8,1,I,1,S,6,S,17,0.766865,0.601756,0.461465
4,39,2,8,9,8,1,I,6,S,1,S,11,0.371635,0.811557,0.301603
4,40,8,9,8,9,1,C,1,S,1,S,13,0.414617,0.78401,0.325064
4,41,8,9,2,1,1,I,1,S,1,S,15,0.505052,0.753345,0.380479
4,42,2,1,2,8,0,I,1,S,6,S,14,0.504199,0.75157,0.378941
4,43,8,9,1,2,1,C,1,S,1,S,12,0.408409,0.766137,0.312898
4,44,8,1,2,1,1,C,7,L,1,S,10,0.825157,0.325837,0.268867
4,45,9,1,9,1,1,C,8,L,8,L,8,0.776778,0.278692,0.216482
4,46,9,8,9,1,1,C,1,S,8,L,10,0.829056,0.315025,0.261173
4,47,2,1,9,2,1,C,1,S,7,L,11,0.808244,0.361032,0.291802
4,48,1,8,8,1,1,I,7,L,7,L,12,0.501225,0.765229,0.383552
4,49,1,8,8,9,1,C,7,L,1,S,10,0.345117,0.802405,0.276924
4,50,2,8,1,8,1,C,6,S,7,L,9,0.281795,0.827902,0.233298
4,51,8,9,1,8,1,C,1,S,7,L,10,0.354677,0.781325,0.277118
4,52,2,1,8,9,1,I,1,S,1,S,17,0.772794,0.496397,0.383613
4,53,8,9,2,9,1,C,1,S,7,L,11,0.354688,0.813372,0.288493
4,54,8,1,8,9,1,I,7,L,1,S,10,0.786784,0.364309,0.286633
4,55,9,1,2,1,1,C,8,L,1,S,9,0.78591,0.321535,0.252698
4,56,1,9,2,1,1,I,8,L,1,S,10,0.359968,0.794993,0.286172
4,57,8,2,9,1,1,C,6,S,8,L,9,0.796175,0.308106,0.245307
4,58,1,9,1,8,1,C,8,L,7,L,8,0.288346,0.762247,0.219791
4,59,8,1,9,1,1,C,7,L,8,L,9,0.847256,0.271018,0.229622
4,60,8,9,1,9,1,C,1,S,8,L,10,0.360467,0.775142,0.279413
4,61,8,9,9,2,1,I,1,S,7,L,21,0.645856,0.757682,0.489353
4,62,2,8,2,8,1,C,6,S,6,S,9,0.302826,0.797346,0.241457
4,63,8,9,9,1,1,I,1,S,8,L,21,0.649529,0.755807,0.490918
4,64,8,1,8,2,1,C,7,L,6,S,9,0.819474,0.289528,0.237261
4,65,9,2,8,1,1,C,7,L,7,L,9,0.8262,0.284651,0.235178
4,66,2,9,1,2,1,C,7,L,1,S,9,0.340026,0.752905,0.256007
4,67,1,2,9,2,1,I,1,S,7,L,19,0.628513,0.767571,0.482428
4,68,9,8,1,9,1,I,1,S,8,L,18,0.77096,0.619379,0.477517
4,69,2,1,8,2,1,C,1,S,6,S,11,0.777352,0.3833,0.297959
4,70,2,1,2,9,0,I,1,S,7,L,15,0.528986,0.750877,0.397203
4,71,8,1,9,8,1,C,7,L,1,S,10,0.818276,0.331437,0.271207
4,72,8,2,9,2,1,C,6,S,7,L,9,0.793263,0.308631,0.244825
4,73,9,8,8,1,1,C,1,S,7,L,10,0.800659,0.335465,0.268593
4,74,2,9,2,1,1,I,7,L,1,S,10,0.369631,0.778249,0.287665
4,75,8,1,8,1,1,C,7,L,7,L,9,0.822426,0.289017,0.237695
4,76,2,8,8,2,1,I,6,S,6,S,13,0.514321,0.779336,0.400828
4,77,2,8,1,2,1,C,6,S,1,S,10,0.33629,0.803282,0.270135
4,78,8,1,1,8,1,I,7,L,7,L,13,0.779673,0.537244,0.418875
4,79,9,2,1,9,1,I,7,L,8,L,12,0.756437,0.523206,0.395773
4,80,9,8,9,8,1,C,1,S,1,S,11,0.755196,0.399034,0.301349
4,81,9,2,8,9,1,I,7,L,1,S,10,0.790841,0.359765,0.284517
4,82,8,1,2,8,1,I,7,L,6,S,12,0.773721,0.495712,0.383543
4,83,2,9,1,8,1,C,7,L,7,L,9,0.258535,0.858627,0.221985
4,84,2,9,2,8,1,C,7,L,6,S,9,0.279566,0.828071,0.231501
4,85,2,9,8,9,1,C,7,L,1,S,10,0.331258,0.816721,0.270545
4,86,1,2,2,8,1,C,1,S,6,S,10,0.355008,0.779019,0.276558
4,87,2,8,8,9,1,C,6,S,1,S,10,0.356836,0.782759,0.279317
4,88,1,2,1,8,1,C,1,S,7,L,10,0.331063,0.813769,0.269409
4,89,2,8,1,9,1,C,6,S,8,L,9,0.287198,0.822293,0.236161
4,90,8,2,8,2,1,C,6,S,6,S,9,0.768394,0.326616,0.25097
4,91,1,2,8,9,1,C,1,S,1,S,12,0.40758,0.778161,0.317163
4,92,2,9,9,1,1,I,7,L,8,L,12,0.518664,0.756442,0.392339
4,93,1,9,1,2,1,C,8,L,1,S,9,0.33147,0.768299,0.254668
4,94,1,9,2,9,1,C,8,L,7,L,9,0.277965,0.83611,0.232409
4,95,9,2,1,8,1,I,7,L,7,L,12,0.750463,0.529559,0.397414
4,96,8,1,2,9,1,I,7,L,7,L,12,0.78245,0.485748,0.380073
4,97,1,9,1,9,1,C,8,L,8,L,8,0.293154,0.757553,0.22208
4,98,1,2,8,2,1,I,1,S,6,S,18,0.616522,0.762677,0.470207
4,99,9,2,1,2,1,I,7,L,1,S,10,0.770295,0.380287,0.292934
4,100,2,1,1,8,0,I,1,S,7,L,13,0.465462,0.773605,0.360084
4,101,8,9,9,8,1,I,1,S,1,S,15,0.479908,0.772331,0.370648
4,102,1,8,9,8,1,I,7,L,1,S,10,0.376609,0.769532,0.289813
4,103,1,2,8,1,1,I,1,S,7,L,18,0.620903,0.760416,0.472144
4,104,1,2,2,9,1,C,1,S,7,L,10,0.362838,0.770316,0.2795
4,105,1,8,2,1,1,I,7,L,1,S,10,0.38349,0.763932,0.292961
4,106,8,2,9,8,1,C,6,S,1,S,10,0.760441,0.373254,0.283838
4,107,8,2,1,9,1,I,6,S,8,L,14,0.753739,0.578689,0.43618
4,108,1,8,8,2,1,I,7,L,6,S,12,0.496998,0.76677,0.381083
4,109,9,2,2,8,1,I,7,L,6,S,12,0.777669,0.491243,0.382025
4,110,9,1,8,2,1,C,8,L,6,S,8,0.754222,0.293796,0.221587
4,111,9,2,2,9,1,I,7,L,7,L,12,0.786398,0.481279,0.378477
4,112,9,2,2,1,1,C,7,L,1,S,10,0.829214,0.321292,0.26642
4,113,2,8,8,1,1,I,6,S,7,L,13,0.518742,0.777547,0.403347
4,114,1,8,2,8,1,C,7,L,6,S,9,0.29267,0.814868,0.238487
4,115,1,2,1,9,1,C,1,S,8,L,10,0.336853,0.807586,0.272038
4,116,9,1,9,2,1,C,8,L,7,L,8,0.774339,0.278898,0.215962
4,117,2,9,9,2,1,I,7,L,7,L,12,0.514862,0.757794,0.390159
4,118,8,1,9,2,1,C,7,L,7,L,9,0.844343,0.271543,0.229275
4,119,2,1,8,1,1,C,1,S,7,L,11,0.781265,0.382064,0.298493
4,120,9,2,8,2,1,C,7,L,6,S,9,0.823248,0.285162,0.234759
4,121,9,1,1,2,1,I,8,L,1,S,10,0.812116,0.350539,0.284679
4,122,2,8,2,1,1,I,6,S,1,S,11,0.381082,0.803856,0.306335
4,123,2,9,1,9,1,C,7,L,8,L,9,0.263938,0.853017,0.225144
4,124,2,1,1,9,0,I,1,S,8,L,13,0.471297,0.767518,0.361729
4,125,2,8,9,1,1,I,6,S,8,L,13,0.550019,0.7541,0.414769
4,126,1,9,8,9,1,C,8,L,1,S,9,0.346516,0.754055,0.261292
4,127,9,8,8,2,1,C,1,S,6,S,10,0.797179,0.336349,0.268131
4,128,9,1,1,9,1,I,8,L,8,L,11,0.761649,0.485395,0.3697
4,129,1,2,1,2,1,C,1,S,1,S,12,0.37193,0.817291,0.303975
4,130,2,1,9,8,1,C,1,S,1,S,14,0.792762,0.415386,0.329302
4,131,9,8,2,1,1,C,1,S,1,S,11,0.764644,0.391332,0.29923
4,132,2,8,2,9,1,C,6,S,7,L,9,0.309781,0.789991,0.244724
4,133,1,8,1,8,1,C,7,L,7,L,9,0.271639,0.845424,0.22965
4,134,9,1,8,9,1,I,8,L,1,S,9,0.75908,0.348925,0.264862
4,135,8,1,1,2,1,I,7,L,1,S,10,0.766238,0.384832,0.294873
4,136,1,9,8,1,1,I,8,L,7,L,11,0.470736,0.758536,0.357071
4,137,1,9,2,8,1,C,8,L,6,S,9,0.27101,0.843465,0.228587
4,138,8,2,2,8,1,I,6,S,6,S,14,0.775609,0.547365,0.424542
4,139,8,2,1,2,1,I,6,S,1,S,11,0.763762,0.416671,0.318237
4,140,9,2,9,8,1,C,7,L,1,S,10,0.822333,0.326892,0.268814
4,141,9,8,1,8,1,I,1,S,7,L,18,0.766824,0.62306,0.477777
4,142,2,9,2,9,1,C,7,L,7,L,9,0.286521,0.820716,0.235152
4,143,9,1,8,1,1,C,8,L,7,L,8,0.756611,0.293643,0.222173
4,144,1,9,9,8,1,I,8,L,1,S,10,0.353087,0.800593,0.282679
5,1,1,8,8,2,1,I,7,L,6,S,14,0.570073,0.751588,0.42846
5,2,1,8,2,9,1,C,7,L,7,L,9,0.27471,0.838101,0.230235
5,3,1,2,1,9,1,C,1,S,8,L,10,0.351314,0.788903,0.277153
5,4,8,2,8,9,1,I,6,S,1,S,13,0.756555,0.520474,0.393767
5,5,8,9,2,9,1,C,1,S,7,L,9,0.341369,0.754302,0.257495
5,6,1,2,2,8,1,C,1,S,6,S,11,0.357697,0.811626,0.290316
5,7,2,1,8,9,1,I,1,S,1,S,17,0.763295,0.593989,0.453389
5,8,8,9,9,1,0,I,1,S,8,L,14,0.750841,0.543667,0.408207
5,9,1,9,8,9,1,C,8,L,1,S,9,0.309966,0.790598,0.245058
5,10,8,2,9,8,1,C,6,S,1,S,10,0.814934,0.323601,0.263714
5,11,8,9,8,2,1,I,1,S,6,S,20,0.64341,0.753359,0.484719
5,12,2,1,9,2,1,C,1,S,7,L,10,0.822885,0.317628,0.261371
5,13,9,2,9,8,1,C,7,L,1,S,10,0.809797,0.328712,0.26619
5,14,2,9,2,8,1,C,7,L,6,S,9,0.294966,0.809699,0.238834
5,15,1,2,8,1,0,I,1,S,7,L,12,0.767383,0.448392,0.344088
5,16,1,2,1,8,1,C,1,S,7,L,11,0.372734,0.790395,0.294607
5,17,1,9,9,8,1,I,8,L,1,S,11,0.445211,0.760158,0.338431
5,18,8,1,1,2,1,I,7,L,1,S,10,0.752523,0.384888,0.289637
5,19,2,8,8,2,1,I,6,S,6,S,16,0.60469,0.755028,0.456558
5,20,8,1,8,2,1,C,7,L,6,S,9,0.813816,0.290988,0.236811
5,21,2,8,2,1,1,I,6,S,1,S,12,0.442489,0.758349,0.335561
5,22,9,8,8,9,0,I,1,S,1,S,14,0.478031,0.762273,0.36439
5,23,8,9,8,1,1,I,1,S,7,L,21,0.656714,0.754216,0.495305
5,24,1,8,9,2,1,I,7,L,7,L,15,0.592525,0.758275,0.449297
5,25,8,9,8,9,1,C,1,S,1,S,11,0.363419,0.79965,0.290608
5,26,1,9,1,9,1,C,8,L,8,L,8,0.282792,0.766441,0.216743
5,27,2,9,8,1,1,I,7,L,7,L,14,0.58846,0.752407,0.442761
5,28,9,1,1,2,1,I,8,L,1,S,11,0.810497,0.372182,0.301652
5,29,1,8,9,1,1,I,7,L,8,L,16,0.616747,0.761058,0.46938
5,30,9,1,8,1,1,C,8,L,7,L,9,0.849204,0.268024,0.227607
5,31,2,1,1,8,1,I,1,S,7,L,18,0.758773,0.619252,0.469871
5,32,1,2,8,9,1,C,1,S,1,S,11,0.402901,0.752015,0.302988
5,33,2,8,2,9,1,C,6,S,7,L,9,0.302703,0.803559,0.24324
5,34,1,8,1,2,1,C,7,L,1,S,10,0.374877,0.751469,0.281708
5,35,8,1,8,1,1,C,7,L,7,L,9,0.852284,0.264569,0.225488
5,36,8,1,1,8,1,I,7,L,7,L,13,0.776956,0.520092,0.404089
5,37,9,2,2,8,1,I,7,L,6,S,15,0.761133,0.587397,0.447088
5,38,8,2,1,2,1,I,6,S,1,S,11,0.762198,0.408073,0.311032
5,39,9,1,1,9,1,I,8,L,8,L,14,0.752767,0.59062,0.4446
5,40,9,8,8,2,1,C,1,S,6,S,11,0.774697,0.392656,0.304189
5,41,8,2,2,8,1,I,6,S,6,S,15,0.766475,0.582084,0.446153
5,42,9,8,9,8,1,C,1,S,1,S,12,0.766281,0.415144,0.318117
5,43,8,2,1,8,1,I,6,S,7,L,14,0.754372,0.563213,0.424872
5,44,9,1,8,2,1,C,8,L,6,S,9,0.810735,0.294442,0.238715
5,45,1,2,1,2,1,C,1,S,1,S,14,0.403915,0.804242,0.324845
5,46,2,9,1,9,1,C,7,L,8,L,9,0.264779,0.852045,0.225603
5,47,2,1,8,2,1,C,1,S,6,S,10,0.796925,0.338324,0.269619
5,48,9,2,8,1,1,C,7,L,7,L,9,0.806632,0.301469,0.243175
5,49,9,8,2,8,0,I,1,S,6,S,12,0.435096,0.767581,0.333972
5,50,2,9,2,1,1,I,7,L,1,S,11,0.393008,0.790837,0.310805
5,51,9,8,9,1,1,C,1,S,8,L,10,0.775158,0.367823,0.285121
5,52,1,9,8,2,1,I,8,L,6,S,12,0.515889,0.752779,0.38835
5,53,2,9,9,8,1,I,7,L,1,S,12,0.472451,0.769819,0.363702
5,54,9,2,9,2,1,C,7,L,7,L,9,0.791491,0.309026,0.244591
5,55,2,1,1,2,1,I,1,S,1,S,13,0.762639,0.449939,0.343141
5,56,9,2,1,2,1,I,7,L,1,S,11,0.756484,0.413556,0.312849
5,57,9,1,1,8,1,I,8,L,7,L,13,0.773621,0.523714,0.405156
5,58,9,1,2,9,1,I,8,L,7,L,15,0.771941,0.597208,0.461009
5,59,2,8,1,8,1,C,6,S,7,L,10,0.318318,0.823372,0.262094
5,60,9,8,1,2,1,I,1,S,1,S,22,0.754402,0.602471,0.454505
5,61,8,2,2,9,1,I,6,S,7,L,16,0.752614,0.626552,0.471552
5,62,2,1,2,1,1,C,1,S,1,S,12,0.8147,0.370934,0.3022
5,63,1,9,8,1,1,I,8,L,7,L,13,0.564125,0.753259,0.424932
5,64,1,9,1,8,1,C,8,L,7,L,9,0.286551,0.818901,0.234656
5,65,1,2,9,1,0,I,1,S,8,L,11,0.754611,0.429265,0.323928
5,66,9,2,1,9,1,I,7,L,8,L,16,0.75517,0.621869,0.469617
5,67,8,2,8,2,1,C,6,S,6,S,9,0.772437,0.323333,0.249754
5,68,8,2,8,1,1,C,6,S,7,L,9,0.810906,0.296914,0.240769
5,69,1,8,8,1,1,I,7,L,7,L,16,0.603221,0.77348,0.466579
5,70,1,9,2,8,1,C,8,L,6,S,9,0.274404,0.836147,0.229442
5,71,1,9,2,1,1,I,8,L,1,S,10,0.382845,0.76233,0.291854
5,72,8,9,2,8,1,C,1,S,6,S,10,0.35396,0.778322,0.275495
5,73,2,9,9,1,1,I,7,L,8,L,15,0.600041,0.766144,0.459717
5,74,1,2,9,8,1,I,1,S,1,S,22,0.643032,0.750327,0.482484
5,75,2,9,1,2,1,C,7,L,1,S,10,0.354668,0.780749,0.276907
5,76,1,2,9,2,0,I,1,S,7,L,13,0.771886,0.466682,0.360226
5,77,8,9,1,2,1,C,1,S,1,S,12,0.415921,0.755693,0.314309
5,78,9,2,8,9,1,I,7,L,1,S,13,0.750603,0.526151,0.394931
5,79,8,1,9,1,1,C,7,L,8,L,8,0.759209,0.287996,0.218649
5,80,1,2,8,2,0,I,1,S,6,S,14,0.759681,0.501566,0.38103
5,81,2,1,2,9,1,I,1,S,7,L,20,0.760218,0.649825,0.494009
5,82,8,1,2,1,1,C,7,L,1,S,10,0.803462,0.336853,0.270649
5,83,9,8,1,8,0,I,1,S,7,L,13,0.446593,0.777931,0.347418
5,84,2,8,2,8,1,C,6,S,6,S,10,0.304478,0.843084,0.256701
5,85,9,2,2,1,1,C,7,L,1,S,10,0.750515,0.378615,0.284156
5,86,2,1,2,8,1,I,1,S,6,S,19,0.769027,0.624656,0.480377
5,87,9,2,2,9,1,I,7,L,7,L,17,0.772597,0.622174,0.48069
5,88,2,8,9,8,1,I,6,S,1,S,14,0.542096,0.750354,0.406764
5,89,8,1,1,9,1,I,7,L,8,L,14,0.755835,0.587181,0.443812
5,90,9,8,1,9,0,I,1,S,8,L,11,0.405889,0.776163,0.315036
5,91,8,2,1,9,1,I,6,S,8,L,16,0.760049,0.616866,0.468848
5,92,1,8,8,9,1,C,7,L,1,S,10,0.312533,0.831454,0.259857
5,93,2,9,2,9,1,C,7,L,7,L,8,0.293702,0.754659,0.221645
5,94,8,2,2,1,1,C,6,S,1,S,10,0.755652,0.373504,0.282239
5,95,8,2,9,1,1,C,6,S,8,L,9,0.828076,0.28291,0.234271
5,96,9,1,8,9,1,I,8,L,1,S,12,0.772007,0.478989,0.369783
5,97,2,9,9,2,1,I,7,L,7,L,14,0.571431,0.762845,0.435913
5,98,9,1,9,1,1,C,8,L,8,L,8,0.756677,0.291097,0.220267
5,99,1,8,1,9,1,C,7,L,8,L,9,0.282221,0.826864,0.233359
5,100,9,2,8,2,1,C,7,L,6,S,9,0.768164,0.327888,0.251871
5,101,1,9,9,1,1,I,8,L,8,L,14,0.580078,0.76819,0.44561
5,102,9,1,2,8,1,I,8,L,6,S,13,0.757632,0.545458,0.413256
5,103,2,9,8,9,1,C,7,L,1,S,9,0.330528,0.764151,0.252573
5,104,1,2,2,1,1,I,1,S,1,S,19,0.568642,0.765955,0.435554
5,105,1,8,1,8,1,C,7,L,7,L,9,0.324555,0.767272,0.249022
5,106,8,1,2,9,1,I,7,L,7,L,15,0.774692,0.593994,0.460163
5,107,9,1,9,2,1,C,8,L,7,L,9,0.834063,0.275581,0.229851
5,108,2,1,9,8,1,C,1,S,1,S,11,0.821269,0.342877,0.281594
5,109,2,9,1,8,1,C,7,L,7,L,9,0.307112,0.792453,0.243372
5,110,1,8,9,8,1,I,7,L,1,S,13,0.498899,0.771918,0.385109
5,111,2,9,8,2,1,I,7,L,6,S,13,0.544714,0.754661,0.411075
5,112,2,8,1,9,1,C,6,S,8,L,9,0.310214,0.792322,0.24579
5,113,8,9,1,8,1,C,1,S,7,L,10,0.3678,0.758609,0.279017
5,114,8,9,2,1,1,I,1,S,1,S,15,0.499493,0.7649,0.382062
5,115,9,2,1,8,1,I,7,L,7,L,15,0.776609,0.567239,0.440523
5,116,8,1,2,8,1,I,7,L,6,S,13,0.760967,0.541836,0.41232
5,117,2,1,9,1,1,C,1,S,8,L,9,0.768814,0.327483,0.251774
5,118,9,8,2,1,1,C,1,S,1,S,14,0.766258,0.440126,0.33725
5,119,2,8,8,9,1,C,6,S,1,S,10,0.345567,0.789253,0.272739
5,120,8,9,1,9,1,C,1,S,8,L,10,0.320983,0.82429,0.264583
5,121,2,8,9,1,1,I,6,S,8,L,18,0.634631,0.764466,0.485154
5,122,1,9,1,2,1,C,8,L,1,S,10,0.331906,0.810365,0.268965
5,123,2,8,9,2,1,I,6,S,7,L,17,0.618363,0.761291,0.470754
5,124,1,8,2,8,1,C,7,L,6,S,9,0.312409,0.784518,0.24509
5,125,8,1,8,9,1,I,7,L,1,S,12,0.775523,0.475252,0.368569
5,126,8,9,9,2,1,I,1,S,7,L,21,0.643758,0.762563,0.490906
5,127,2,1,1,9,1,I,1,S,8,L,20,0.766126,0.642244,0.49204
5,128,8,2,9,2,1,C,6,S,7,L,9,0.795765,0.304471,0.242287
5,129,9,8,2,9,0,I,1,S,7,L,11,0.39756,0.788083,0.31331
5,130,2,1,8,1,1,C,1,S,7,L,9,0.751644,0.341487,0.256677
5,131,9,1,2,1,1,C,8,L,1,S,10,0.800035,0.340527,0.272433
5,132,9,2,9,1,1,C,7,L,8,L,9,0.823802,0.287465,0.236814
5,133,8,1,9,2,1,C,7,L,7,L,9,0.837143,0.272126,0.227809
5,134,2,8,1,2,1,C,6,S,1,S,11,0.381882,0.777584,0.296946
5,135,9,1,9,8,1,C,8,L,1,S,9,0.763846,0.3281,0.250618
5,136,2,8,8,1,1,I,6,S,7,L,17,0.633628,0.751467,0.476151
5,137,1,2,2,9,1,C,1,S,7,L,10,0.343268,0.800698,0.274854
5,138,1,9,2,9,1,C,8,L,7,L,8,0.276092,0.776587,0.214409
5,139,9,8,8,1,1,C,1,S,7,L,10,0.757093,0.382582,0.289651
5,140,1,9,9,2,1,I,8,L,7,L,13,0.546718,0.76363,0.41749
5,141,1,8,2,1,1,I,7,L,1,S,11,0.415268,0.758827,0.315117
5,142,8,1,9,8,1,C,7,L,1,S,9,0.766927,0.324646,0.24898
5,143,9,8,9,2,1,C,1,S,7,L,11,0.801968,0.370862,0.297419
5,144,8,9,9,8,1,I,1,S,1,S,19,0.604391,0.771152,0.466077
6,1,8,9,1,8,1,C,1,S,7,L,10,0.34312,0.790369,0.271191
6,2,1,9,8,9,1,C,8,L,1,S,10,0.326953,0.817994,0.267446
6,3,8,2,8,1,1,C,6,S,7,L,9,0.795973,0.307474,0.244741
6,4,1,8,8,2,1,I,7,L,6,S,12,0.454806,0.783188,0.356198
6,5,8,1,9,2,1,C,7,L,7,L,9,0.849997,0.266575,0.226588
6,6,8,9,2,9,1,C,1,S,7,L,10,0.370959,0.755732,0.280346
6,7,1,9,8,1,1,I,8,L,7,L,13,0.545244,0.767181,0.4183
6,8,8,1,1,8,1,I,7,L,7,L,13,0.777918,0.530844,0.412954
6,9,2,1,2,8,1,I,1,S,6,S,18,0.758591,0.613043,0.465049
6,10,2,1,1,2,1,I,1,S,1,S,18,0.763684,0.604158,0.461385
6,11,2,1,9,1,1,C,1,S,8,L,9,0.776686,0.323497,0.251255
6,12,2,1,8,9,1,I,1,S,1,S,14,0.778074,0.462107,0.359554
6,13,8,1,1,9,1,I,7,L,8,L,13,0.771585,0.53959,0.41634
6,14,9,2,1,8,1,I,7,L,7,L,14,0.759104,0.570379,0.432977
6,15,1,2,8,2,1,I,1,S,6,S,21,0.621237,0.76593,0.475824
6,16,1,2,2,1,1,I,1,S,1,S,22,0.63958,0.761776,0.487217
6,17,9,2,8,9,1,I,7,L,1,S,11,0.782106,0.399492,0.312445
6,18,1,9,9,2,1,I,8,L,7,L,13,0.539762,0.770625,0.415954
6,19,9,8,9,1,1,C,1,S,8,L,10,0.78953,0.361018,0.285034
6,20,2,8,8,1,1,I,6,S,7,L,15,0.583917,0.773559,0.451695
6,21,2,1,2,1,1,C,1,S,1,S,10,0.750733,0.373498,0.280397
6,22,1,9,8,2,1,I,8,L,6,S,11,0.42516,0.777752,0.330669
6,23,2,9,9,2,1,I,7,L,7,L,13,0.548858,0.759685,0.41696
6,24,9,2,2,1,1,C,7,L,1,S,9,0.759509,0.336029,0.255217
6,25,8,2,2,8,1,I,6,S,6,S,14,0.775979,0.536473,0.416292
6,26,1,2,8,1,0,I,1,S,7,L,13,0.756603,0.487837,0.369099
6,27,8,2,8,9,1,I,6,S,1,S,11,0.758777,0.415025,0.314912
6,28,2,8,2,9,1,C,6,S,7,L,9,0.326915,0.768,0.251071
6,29,2,1,8,2,1,C,1,S,6,S,11,0.790484,0.368083,0.290964
6,30,8,1,8,9,1,I,7,L,1,S,10,0.769545,0.378152,0.291005
6,31,2,9,8,9,1,C,7,L,1,S,10,0.335631,0.807142,0.270902
6,32,1,9,2,9,1,C,8,L,7,L,9,0.292696,0.811283,0.23746
6,33,2,1,8,1,1,C,1,S,7,L,10,0.813033,0.327773,0.26649
6,34,1,8,1,2,1,C,7,L,1,S,9,0.325528,0.764936,0.249008
6,35,9,2,2,8,1,I,7,L,6,S,13,0.770201,0.517292,0.398418
6,36,1,8,2,8,1,C,7,L,6,S,9,0.324081,0.770416,0.249677
6,37,9,1,1,9,1,I,8,L,8,L,12,0.754748,0.525392,0.396538
6,38,1,2,1,2,1,C,1,S,1,S,11,0.386253,0.766991,0.296253
6,39,1,9,1,2,1,C,8,L,1,S,9,0.301155,0.796169,0.23977
6,40,2,8,9,1,1,I,6,S,8,L,16,0.619437,0.765263,0.474032
6,41,1,2,2,8,1,C,1,S,6,S,11,0.383226,0.774731,0.296897
6,42,8,9,8,2,1,I,1,S,6,S,17,0.584994,0.759446,0.444271
6,43,9,1,8,1,1,C,8,L,7,L,8,0.757533,0.293432,0.222285
6,44,1,9,9,1,1,I,8,L,8,L,14,0.591775,0.759682,0.449561
6,45,9,1,9,2,1,C,8,L,7,L,8,0.753523,0.295518,0.22268
6,46,8,2,9,8,1,C,6,S,1,S,10,0.84467,0.3032,0.256104
6,47,9,8,1,9,0,I,1,S,8,L,12,0.419466,0.786866,0.330063
6,48,2,9,8,1,1,I,7,L,7,L,13,0.554341,0.75624,0.419215
6,49,2,8,1,2,1,C,6,S,1,S,9,0.335373,0.752885,0.252497
6,50,8,9,1,9,1,C,1,S,8,L,10,0.337476,0.798644,0.269523
6,51,1,8,8,9,1,C,7,L,1,S,10,0.353849,0.783133,0.277111
6,52,9,2,9,1,1,C,7,L,8,L,8,0.754177,0.297413,0.224302
6,53,1,2,9,2,0,I,1,S,7,L,13,0.751121,0.491282,0.369012
6,54,8,9,8,1,1,I,1,S,7,L,20,0.646652,0.756351,0.489096
6,55,9,2,8,2,1,C,7,L,6,S,10,0.821048,0.323881,0.265922
6,56,9,1,2,1,1,C,8,L,1,S,9,0.814536,0.295629,0.2408
6,57,1,9,2,1,1,I,8,L,1,S,12,0.471946,0.78651,0.37119
6,58,8,1,9,1,1,C,7,L,8,L,8,0.787718,0.27047,0.213054
6,59,1,8,2,9,1,C,7,L,7,L,9,0.31707,0.780051,0.247331
6,60,1,2,9,1,0,I,1,S,8,L,11,0.760437,0.429267,0.326431
6,61,8,9,2,8,1,C,1,S,6,S,11,0.344528,0.823818,0.283828
6,62,1,2,1,9,1,C,1,S,8,L,10,0.367549,0.761519,0.279895
6,63,9,1,8,2,1,C,8,L,6,S,9,0.786783,0.316801,0.249253
6,64,1,9,1,8,1,C,8,L,7,L,9,0.267968,0.841257,0.22543
6,65,1,8,2,1,1,I,7,L,1,S,13,0.50501,0.783512,0.395681
6,66,2,1,1,8,1,I,1,S,7,L,20,0.772539,0.627308,0.48462
6,67,9,1,1,8,1,I,8,L,7,L,12,0.761024,0.516523,0.393087
6,68,9,1,8,9,1,I,8,L,1,S,10,0.785021,0.368479,0.289264
6,69,9,8,1,2,0,I,1,S,1,S,13,0.464425,0.750608,0.348601
6,70,1,8,9,8,1,I,7,L,1,S,13,0.516457,0.773693,0.399579
6,71,9,8,9,2,1,C,1,S,7,L,11,0.794082,0.381298,0.302782
6,72,2,9,2,1,1,I,7,L,1,S,12,0.481141,0.775231,0.372995
6,73,9,8,2,1,1,C,1,S,1,S,12,0.787752,0.405205,0.319201
6,74,8,1,2,1,1,C,7,L,1,S,9,0.800459,0.304221,0.243517
6,75,2,8,9,2,1,I,6,S,7,L,15,0.578756,0.776961,0.449671
6,76,2,1,1,9,1,I,1,S,8,L,20,0.767945,0.633066,0.486159
6,77,2,8,1,9,1,C,6,S,8,L,9,0.297154,0.805399,0.239328
6,78,9,8,8,9,1,I,1,S,1,S,24,0.7571,0.626284,0.47416
6,79,1,8,9,1,1,I,7,L,8,L,15,0.615212,0.752999,0.463254
6,80,9,1,2,9,1,I,8,L,7,L,11,0.752948,0.472657,0.355887
6,81,2,9,9,1,1,I,7,L,8,L,15,0.596283,0.776025,0.462731
6,82,2,8,2,8,1,C,6,S,6,S,9,0.333926,0.758364,0.253237
6,83,9,2,9,8,1,C,7,L,1,S,9,0.767385,0.328706,0.252244
6,84,2,1,9,8,1,C,1,S,1,S,10,0.760261,0.365098,0.27757
6,85,2,9,2,9,1,C,7,L,7,L,9,0.300679,0.801412,0.240968
6,86,9,2,2,9,1,I,7,L,7,L,13,0.75959,0.531809,0.403956
6,87,2,8,8,9,1,C,6,S,1,S,10,0.364903,0.769269,0.280709
6,88,2,8,1,8,1,C,6,S,7,L,9,0.302187,0.797973,0.241137
6,89,9,2,9,2,1,C,7,L,7,L,9,0.809047,0.298382,0.241405
6,90,1,9,2,8,1,C,8,L,6,S,9,0.299707,0.801648,0.24026
6,91,9,1,1,2,1,I,8,L,1,S,11,0.765419,0.451692,0.345734
6,92,2,8,9,8,1,I,6,S,1,S,13,0.528814,0.758481,0.401096
6,93,9,8,8,2,1,C,1,S,6,S,13,0.795234,0.412437,0.327984
6,94,9,2,8,1,1,C,7,L,7,L,9,0.813745,0.295828,0.240729
6,95,9,8,2,9,0,I,1,S,7,L,13,0.449565,0.774207,0.348056
6,96,8,1,2,8,1,I,7,L,6,S,12,0.785902,0.474519,0.372925
6,97,9,2,1,9,1,I,7,L,8,L,14,0.752847,0.578828,0.435769
6,98,8,2,9,2,1,C,6,S,7,L,9,0.791275,0.310028,0.245318
6,99,9,2,1,2,1,I,7,L,1,S,13,0.77445,0.508209,0.393583
6,100,2,9,1,2,1,C,7,L,1,S,9,0.309138,0.786297,0.243074
6,101,2,9,8,2,1,I,7,L,6,S,11,0.434231,0.766462,0.332822
6,102,1,9,9,8,1,I,8,L,1,S,12,0.483277,0.776857,0.375438
6,103,1,8,9,2,1,I,7,L,7,L,14,0.569207,0.764251,0.435018
6,104,2,9,9,8,1,I,7,L,1,S,12,0.492472,0.765578,0.377026
6,105,1,2,8,9,1,C,1,S,1,S,13,0.418267,0.773367,0.323474
6,106,8,9,2,1,1,I,1,S,1,S,19,0.612543,0.772649,0.47328
6,107,8,9,9,1,0,I,1,S,8,L,14,0.750286,0.553539,0.415313
6,108,8,2,1,2,1,I,6,S,1,S,14,0.780631,0.527122,0.411488
6,109,8,1,8,1,1,C,7,L,7,L,9,0.854695,0.264021,0.225657
6,110,2,1,9,2,1,C,1,S,7,L,10,0.807858,0.330701,0.26716
6,111,2,1,2,9,1,I,1,S,7,L,19,0.772491,0.615075,0.47514
6,112,9,8,1,8,0,I,1,S,7,L,12,0.425742,0.777997,0.331226
6,113,1,8,8,1,1,I,7,L,7,L,14,0.574556,0.7608,0.437122
6,114,9,1,2,8,1,I,8,L,6,S,11,0.762392,0.459432,0.350267
6,115,8,2,2,9,1,I,6,S,7,L,14,0.765246,0.550869,0.42155
6,116,8,2,8,2,1,C,6,S,6,S,10,0.800034,0.33771,0.270179
6,117,8,9,1,2,1,C,1,S,1,S,11,0.347555,0.816078,0.283632
6,118,9,1,9,1,1,C,8,L,8,L,8,0.799726,0.263278,0.21055
6,119,2,9,2,8,1,C,7,L,6,S,9,0.30769,0.791776,0.243622
6,120,2,8,8,2,1,I,6,S,6,S,12,0.467089,0.767822,0.358641
6,121,2,9,1,8,1,C,7,L,7,L,9,0.275951,0.831385,0.229422
6,122,8,9,9,2,1,I,1,S,7,L,20,0.642577,0.759134,0.487802
6,123,1,8,1,9,1,C,7,L,8,L,9,0.287309,0.81745,0.234861
6,124,8,2,2,1,1,C,6,S,1,S,10,0.835143,0.3116,0.26023
6,125,8,2,1,8,1,I,6,S,7,L,15,0.762798,0.585298,0.446464
6,126,9,8,8,1,1,C,1,S,7,L,11,0.799522,0.3781,0.302299
6,127,8,2,9,1,1,C,6,S,8,L,9,0.843185,0.27372,0.230797
6,128,1,8,1,8,1,C,7,L,7,L,9,0.292342,0.810025,0.236804
6,129,8,9,9,8,1,I,1,S,1,S,19,0.619884,0.765411,0.474466
6,130,2,9,1,9,1,C,7,L,8,L,9,0.270919,0.838811,0.22725
6,131,9,1,9,8,1,C,8,L,1,S,9,0.822411,0.288306,0.237106
6,132,8,1,8,2,1,C,7,L,6,S,9,0.772706,0.325393,0.251433
6,133,9,8,2,8,0,I,1,S,6,S,13,0.460176,0.75969,0.349591
6,134,2,8,2,1,1,I,6,S,1,S,13,0.517367,0.7683,0.397493
6,135,8,1,1,2,1,I,7,L,1,S,12,0.789606,0.465966,0.36793
6,136,8,1,2,9,1,I,7,L,7,L,12,0.775709,0.488683,0.379076
6,137,1,9,1,9,1,C,8,L,8,L,9,0.262936,0.848682,0.223149
6,138,9,8,9,8,1,C,1,S,1,S,12,0.799083,0.395553,0.31608
6,139,8,2,1,9,1,I,6,S,8,L,15,0.756715,0.593345,0.448994
6,140,1,2,2,9,1,C,1,S,7,L,11,0.373783,0.787957,0.294525
6,141,1,2,1,8,1,C,1,S,7,L,10,0.373193,0.753245,0.281106
6,142,1,2,9,8,1,I,1,S,1,S,22,0.64464,0.756356,0.487577
6,143,8,9,8,9,1,C,1,S,1,S,12,0.400939,0.778233,0.312024
6,144,8,1,9,8,1,C,7,L,1,S,9,0.808334,0.296899,0.239993
7,1,9,1,9,1,1,C,8,L,8,L,8,0.824812,0.242349,0.199893
7,2,9,8,9,8,1,C,1,S,1,S,12,0.807349,0.385083,0.310896
7,3,1,9,8,9,1,C,8,L,1,S,9,0.315903,0.781695,0.24694
7,4,1,8,9,8,1,I,7,L,1,S,10,0.349292,0.797875,0.278691
7,5,1,2,9,1,1,I,1,S,8,L,19,0.630585,0.771062,0.48622
7,6,2,9,1,8,1,C,7,L,7,L,9,0.265776,0.849476,0.225771
7,7,9,1,1,2,1,I,8,L,1,S,9,0.762218,0.350757,0.267353
7,8,2,8,8,9,1,C,6,S,1,S,10,0.340678,0.797128,0.271565
7,9,2,1,8,2,1,C,1,S,6,S,10,0.823116,0.319076,0.262636
7,10,2,8,2,8,1,C,6,S,6,S,9,0.29399,0.813856,0.239266
7,11,2,8,2,9,1,C,6,S,7,L,9,0.299975,0.805303,0.24157
7,12,1,2,2,9,1,C,1,S,7,L,10,0.303306,0.840651,0.254974
7,13,2,1,1,8,1,I,1,S,7,L,18,0.76584,0.630878,0.483152
7,14,8,9,8,9,1,C,1,S,1,S,17,0.507009,0.763038,0.386867
7,15,2,1,8,1,1,C,1,S,7,L,9,0.756165,0.335009,0.253322
7,16,2,9,2,9,1,C,7,L,7,L,9,0.281913,0.825815,0.232808
7,17,8,1,8,2,1,C,7,L,6,S,8,0.758096,0.29145,0.220947
7,18,9,2,2,8,1,I,7,L,6,S,13,0.774809,0.542164,0.420073
7,19,1,8,1,9,1,C,7,L,8,L,8,0.286597,0.762922,0.218651
7,20,2,9,8,9,1,C,7,L,1,S,10,0.320608,0.820679,0.263116
7,21,8,9,2,8,1,C,1,S,6,S,11,0.412912,0.757929,0.312958
7,22,8,1,8,9,1,I,7,L,1,S,10,0.788134,0.375622,0.29604
7,23,2,9,8,1,1,I,7,L,7,L,14,0.560873,0.772292,0.433158
7,24,1,8,8,2,1,I,7,L,6,S,12,0.500299,0.770248,0.385355
7,25,2,8,8,2,1,I,6,S,6,S,14,0.555703,0.769452,0.427586
7,26,1,2,9,2,1,I,1,S,7,L,18,0.630062,0.759214,0.478352
7,27,1,2,9,8,1,I,1,S,1,S,12,0.405867,0.780566,0.316806
7,28,1,9,8,1,1,I,8,L,7,L,12,0.514535,0.763756,0.392979
7,29,9,2,8,2,1,C,7,L,6,S,9,0.835555,0.275928,0.230553
7,30,1,2,2,1,1,I,1,S,1,S,14,0.499205,0.770171,0.384473
7,31,8,9,2,1,0,I,1,S,1,S,13,0.751386,0.438196,0.329255
7,32,8,9,9,2,0,I,1,S,7,L,11,0.799851,0.372114,0.297636
7,33,1,9,2,1,1,I,8,L,1,S,10,0.386785,0.76656,0.296494
7,34,2,8,2,1,1,I,6,S,1,S,12,0.44029,0.785826,0.345992
7,35,2,9,9,8,1,I,7,L,1,S,10,0.374913,0.761114,0.285352
7,36,9,2,1,8,1,I,7,L,7,L,13,0.762952,0.558405,0.426036
7,37,8,2,1,9,1,I,6,S,8,L,14,0.761491,0.57878,0.440736
7,38,8,9,1,8,1,C,1,S,7,L,11,0.401248,0.77467,0.310835
7,39,1,8,2,9,1,C,7,L,7,L,9,0.258948,0.858898,0.22241
7,40,8,1,9,1,1,C,7,L,8,L,8,0.803858,0.257342,0.206867
7,41,1,8,9,1,1,I,7,L,8,L,13,0.564615,0.756488,0.427124
7,42,9,8,1,2,1,I,1,S,1,S,13,0.78281,0.451738,0.353625
7,43,2,9,2,8,1,C,7,L,6,S,9,0.275929,0.834368,0.230226
7,44,9,8,8,1,1,C,1,S,7,L,9,0.753943,0.337073,0.254134
7,45,9,8,8,2,1,C,1,S,6,S,10,0.820271,0.321556,0.263763
7,46,1,8,2,1,1,I,7,L,1,S,10,0.400508,0.75103,0.300794
7,47,1,8,9,2,1,I,7,L,7,L,13,0.546611,0.771138,0.421513
7,48,9,2,1,9,1,I,7,L,8,L,13,0.768951,0.550396,0.423228
7,49,9,1,8,9,1,I,8,L,1,S,10,0.812368,0.357984,0.290815
7,50,9,1,9,2,1,C,8,L,7,L,8,0.809289,0.254427,0.205905
7,51,1,2,1,2,1,C,1,S,1,S,11,0.37751,0.778912,0.294047
7,52,9,1,2,8,1,I,8,L,6,S,11,0.764946,0.488997,0.374056
7,53,9,1,2,1,1,C,8,L,1,S,9,0.823827,0.288725,0.23786
7,54,2,1,1,9,1,I,1,S,8,L,18,0.770612,0.624957,0.481599
7,55,2,9,1,2,1,C,7,L,1,S,10,0.339136,0.800343,0.271425
7,56,2,1,9,8,1,C,1,S,1,S,12,0.811113,0.381992,0.309838
7,57,2,9,9,2,1,I,7,L,7,L,14,0.575041,0.762426,0.438426
7,58,1,2,2,8,1,C,1,S,6,S,9,0.332129,0.757877,0.251713
7,59,8,9,1,9,1,C,1,S,8,L,11,0.407212,0.766343,0.312064
7,60,9,8,2,8,1,I,1,S,6,S,18,0.772241,0.621529,0.47997
7,61,1,8,2,8,1,C,7,L,6,S,8,0.290793,0.756416,0.219961
7,62,8,1,2,9,1,I,7,L,7,L,12,0.784723,0.503831,0.395368
7,63,2,1,2,9,1,I,1,S,7,L,17,0.757674,0.621075,0.470572
7,64,1,9,9,1,1,I,8,L,8,L,13,0.551052,0.771191,0.424966
7,65,9,8,1,9,1,I,1,S,8,L,18,0.767427,0.627817,0.481803
7,66,1,9,1,9,1,C,8,L,8,L,8,0.274868,0.77554,0.213171
7,67,8,2,2,1,1,C,6,S,1,S,10,0.82297,0.319031,0.262553
7,68,9,1,8,1,1,C,8,L,7,L,8,0.798266,0.261073,0.208406
7,69,8,2,2,9,1,I,6,S,7,L,14,0.774242,0.561705,0.434896
7,70,8,9,8,1,0,I,1,S,7,L,11,0.785122,0.381609,0.29961
7,71,2,8,1,9,1,C,6,S,8,L,9,0.289107,0.821362,0.237462
7,72,8,2,8,2,1,C,6,S,6,S,9,0.803046,0.299668,0.240647
7,73,8,2,8,9,1,I,6,S,1,S,11,0.769604,0.421163,0.324129
7,74,2,9,1,9,1,C,7,L,8,L,9,0.271046,0.841875,0.228186
7,75,8,1,1,2,1,I,7,L,1,S,10,0.806662,0.355285,0.286595
7,76,9,8,9,2,1,C,1,S,7,L,9,0.766811,0.329179,0.252418
7,77,9,2,9,1,1,C,7,L,8,L,8,0.77561,0.276139,0.214176
7,78,1,8,1,2,1,C,7,L,1,S,9,0.34286,0.752683,0.258065
7,79,1,2,8,2,1,I,1,S,6,S,17,0.606575,0.762242,0.462357
7,80,9,1,9,8,1,C,8,L,1,S,9,0.787521,0.323026,0.254389
7,81,9,1,2,9,1,I,8,L,7,L,11,0.771916,0.479258,0.369947
7,82,9,2,9,8,1,C,7,L,1,S,10,0.807799,0.339595,0.274325
7,83,2,8,9,2,1,I,6,S,7,L,15,0.593016,0.766038,0.454273
7,84,1,2,8,1,1,I,1,S,7,L,18,0.618567,0.767657,0.474848
7,85,8,1,1,9,1,I,7,L,8,L,12,0.771735,0.52202,0.402861
7,86,2,1,2,8,1,I,1,S,6,S,17,0.751575,0.628673,0.472495
7,87,1,9,2,9,1,C,8,L,7,L,8,0.284215,0.761726,0.216494
7,88,9,8,8,9,1,I,1,S,1,S,14,0.782924,0.493038,0.386012
7,89,9,2,9,2,1,C,7,L,7,L,8,0.760086,0.288217,0.21907
7,90,2,9,9,1,1,I,7,L,8,L,15,0.58841,0.775382,0.456243
7,91,2,1,2,1,1,C,1,S,1,S,11,0.818667,0.346908,0.284002
7,92,9,2,2,9,1,I,7,L,7,L,13,0.781942,0.532619,0.416477
7,93,8,1,8,1,1,C,7,L,7,L,8,0.777311,0.276067,0.21459
7,94,2,8,9,8,1,I,6,S,1,S,11,0.373597,0.802794,0.299921
7,95,8,9,1,2,0,C,1,S,1,S,27,0.769736,0.632973,0.487223
7,96,9,1,1,8,1,I,8,L,7,L,11,0.753282,0.505739,0.380964
7,97,1,9,9,8,1,I,8,L,1,S,10,0.335568,0.813406,0.272953
7,98,9,8,9,1,1,C,1,S,8,L,9,0.784403,0.315676,0.247617
7,99,2,8,9,1,1,I,6,S,8,L,15,0.608941,0.752536,0.45825
7,100,2,1,9,1,1,C,1,S,8,L,9,0.786626,0.313611,0.246695
7,101,8,1,2,8,1,I,7,L,6,S,12,0.777584,0.513599,0.399367
7,102,8,9,2,9,1,C,1,S,7,L,12,0.410549,0.790392,0.324495
7,103,8,9,9,1,0,I,1,S,8,L,10,0.759431,0.37624,0.285729
7,104,9,8,2,9,1,I,1,S,7,L,17,0.75421,0.624112,0.470712
7,105,8,2,9,2,1,C,6,S,7,L,9,0.839194,0.273734,0.229716
7,106,8,2,1,8,1,I,6,S,7,L,14,0.755641,0.58643,0.443131
7,107,1,9,1,8,1,C,8,L,7,L,8,0.270241,0.78222,0.211388
7,108,9,2,1,2,1,I,7,L,1,S,10,0.772022,0.378824,0.29246
7,109,9,2,2,1,1,C,7,L,1,S,9,0.768414,0.326917,0.251208
7,110,9,1,8,2,1,C,8,L,6,S,8,0.779051,0.276456,0.215374
7,111,1,9,2,8,1,C,8,L,6,S,8,0.279065,0.769034,0.21461
7,112,2,9,2,1,1,I,7,L,1,S,11,0.422314,0.76604,0.32351
7,113,2,8,1,2,1,C,6,S,1,S,10,0.359207,0.776792,0.279029
7,114,1,9,8,2,1,I,8,L,6,S,12,0.486359,0.785697,0.382131
7,115,1,2,1,8,1,C,1,S,7,L,9,0.321977,0.772985,0.248883
7,116,1,9,9,2,1,I,8,L,7,L,12,0.529398,0.753907,0.399116
7,117,8,1,1,8,1,I,7,L,7,L,12,0.765687,0.530277,0.406026
7,118,1,8,1,8,1,C,7,L,7,L,8,0.28197,0.769602,0.217004
7,119,2,8,8,1,1,I,6,S,7,L,15,0.579455,0.775668,0.449465
7,120,1,9,1,2,1,C,8,L,1,S,9,0.329888,0.767186,0.253086
7,121,9,8,1,8,1,I,1,S,7,L,18,0.762655,0.633738,0.483324
7,122,2,9,8,2,1,I,7,L,6,S,13,0.532726,0.764499,0.407268
7,123,2,1,8,9,1,I,1,S,1,S,13,0.753141,0.490473,0.369395
7,124,9,1,1,9,1,I,8,L,8,L,11,0.759245,0.497412,0.377657
7,125,8,9,9,8,0,I,1,S,1,S,17,0.760164,0.46245,0.351537
7,126,8,2,9,1,1,C,6,S,8,L,9,0.856786,0.260231,0.222962
7,127,2,1,1,2,1,I,1,S,1,S,13,0.786775,0.448491,0.352862
7,128,1,2,1,9,1,C,1,S,8,L,9,0.327246,0.765384,0.250469
7,129,1,8,8,9,1,C,7,L,1,S,9,0.328875,0.767191,0.25231
7,130,8,2,9,8,1,C,6,S,1,S,10,0.771753,0.365877,0.282366
7,131,1,2,8,9,1,C,1,S,1,S,11,0.353903,0.806185,0.285311
7,132,1,8,8,1,1,I,7,L,7,L,13,0.531976,0.781095,0.415524
7,133,8,2,8,1,1,C,6,S,7,L,9,0.826325,0.281629,0.232717
7,134,8,1,9,2,1,C,7,L,7,L,8,0.788334,0.26942,0.212393
7,135,8,1,2,1,1,C,7,L,1,S,9,0.800663,0.305344,0.244478
7,136,2,1,9,2,1,C,1,S,7,L,9,0.769034,0.327114,0.251562
7,137,8,2,1,2,1,I,6,S,1,S,11,0.793211,0.393891,0.312439
7,138,8,2,2,8,1,I,6,S,6,S,14,0.767251,0.570861,0.437993
7,139,8,9,8,2,0,I,1,S,6,S,11,0.757359,0.40294,0.30517
7,140,9,2,8,9,1,I,7,L,1,S,10,0.753494,0.39916,0.300765
7,141,9,8,2,1,1,C,1,S,1,S,11,0.815285,0.34974,0.285138
7,142,9,2,8,1,1,C,7,L,7,L,9,0.858834,0.257889,0.221483
7,143,8,1,9,8,1,C,7,L,1,S,9,0.764357,0.339645,0.25961
7,144,2,8,1,8,1,C,6,S,7,L,9,0.283837,0.828964,0.235291
8,1,1,9,1,9,1,C,8,L,8,L,9,0.28169,0.825932,0.232656
8,2,8,1,9,8,1,C,7,L,1,S,10,0.767182,0.393272,0.301711
8,3,8,9,1,8,0,C,1,S,7,L,20,0.751246,0.648788,0.4874
8,4,8,1,9,2,1,C,7,L,7,L,9,0.835502,0.277706,0.232024
8,5,9,2,8,9,1,I,7,L,1,S,10,0.753591,0.400338,0.301691
8,6,9,1,8,9,1,I,8,L,1,S,10,0.782245,0.380104,0.297334
8,7,1,2,1,8,1,C,1,S,7,L,10,0.373146,0.75621,0.282176
8,8,2,8,9,2,1,I,6,S,7,L,13,0.530034,0.756346,0.400889
8,9,9,1,9,1,1,C,8,L,8,L,8,0.779976,0.274851,0.214377
8,10,9,1,8,1,1,C,8,L,7,L,8,0.781369,0.274706,0.214647
8,11,8,2,8,9,1,I,6,S,1,S,11,0.795865,0.402681,0.32048
8,12,1,2,8,1,0,I,1,S,7,L,13,0.767064,0.476431,0.365453
8,13,9,2,9,8,1,C,7,L,1,S,11,0.800552,0.403231,0.322807
8,14,9,8,8,1,1,C,1,S,7,L,9,0.765643,0.329487,0.25227
8,15,1,9,8,2,1,I,8,L,6,S,12,0.499174,0.759059,0.378903
8,16,1,8,1,9,1,C,7,L,8,L,9,0.295301,0.806404,0.238132
8,17,9,2,1,2,1,I,7,L,1,S,10,0.791697,0.358104,0.283509
8,18,9,2,9,1,1,C,7,L,8,L,8,0.756688,0.291154,0.220313
8,19,2,8,1,9,1,C,6,S,8,L,9,0.305014,0.795933,0.242771
8,20,8,9,8,2,0,I,1,S,6,S,11,0.827194,0.343639,0.284256
8,21,8,1,2,1,1,C,7,L,1,S,9,0.831249,0.281186,0.233735
8,22,8,9,9,8,0,I,1,S,1,S,17,0.763409,0.572929,0.437379
8,23,9,2,2,1,1,C,7,L,1,S,9,0.813435,0.293891,0.239061
8,24,9,2,8,1,1,C,7,L,7,L,8,0.758082,0.291009,0.220608
8,25,2,1,2,8,1,I,1,S,6,S,23,0.764686,0.64863,0.495998
8,26,9,1,9,8,1,C,8,L,1,S,10,0.77662,0.38685,0.300435
8,27,9,8,9,1,1,C,1,S,8,L,9,0.764019,0.329797,0.251971
8,28,1,9,1,2,1,C,8,L,1,S,10,0.352106,0.788553,0.277655
8,29,1,2,2,9,1,C,1,S,7,L,11,0.359936,0.806113,0.290149
8,30,1,8,9,8,1,I,7,L,1,S,10,0.323826,0.815346,0.26403
8,31,1,9,9,2,1,I,8,L,7,L,12,0.496663,0.760008,0.377468
8,32,9,1,1,8,1,I,8,L,7,L,12,0.78287,0.503006,0.393789
8,33,8,1,8,9,1,I,7,L,1,S,10,0.772807,0.386526,0.29871
8,34,2,1,9,8,1,C,1,S,1,S,20,0.756451,0.616627,0.466448
8,35,1,2,1,2,1,C,1,S,1,S,14,0.415189,0.793753,0.329557
8,36,2,1,1,2,1,I,1,S,1,S,16,0.780102,0.478095,0.372963
8,37,8,1,1,8,1,I,7,L,7,L,12,0.773294,0.509832,0.39425
8,38,2,8,8,2,1,I,6,S,6,S,13,0.532675,0.755244,0.402299
8,39,2,9,1,8,1,C,7,L,7,L,9,0.288199,0.820733,0.236535
8,40,2,1,2,1,1,C,1,S,1,S,11,0.777821,0.383539,0.298325
8,41,8,1,8,2,1,C,7,L,6,S,9,0.8372,0.277394,0.232234
8,42,8,2,2,8,1,I,6,S,6,S,12,0.754476,0.516816,0.389925
8,43,9,8,2,8,1,I,1,S,6,S,17,0.770063,0.605703,0.466429
8,44,8,9,2,1,0,I,1,S,1,S,11,0.819081,0.348915,0.285789
8,45,9,8,2,1,1,C,1,S,1,S,10,0.795631,0.339273,0.269936
8,46,1,8,1,2,1,C,7,L,1,S,10,0.367557,0.766366,0.281683
8,47,2,8,9,8,1,I,6,S,1,S,10,0.334619,0.80322,0.268773
8,48,2,8,8,9,1,C,6,S,1,S,10,0.340244,0.796474,0.270996
8,49,9,8,1,2,1,I,1,S,1,S,12,0.777698,0.416726,0.324086
8,50,8,9,2,9,0,C,1,S,7,L,20,0.762683,0.635145,0.484414
8,51,2,8,9,1,1,I,6,S,8,L,15,0.589084,0.767441,0.452087
8,52,8,2,9,1,1,C,6,S,8,L,9,0.857573,0.260221,0.223158
8,53,2,9,2,1,1,I,7,L,1,S,12,0.500452,0.753767,0.377224
8,54,1,9,9,1,1,I,8,L,8,L,14,0.563155,0.775743,0.436864
8,55,9,1,2,1,1,C,8,L,1,S,9,0.840088,0.275272,0.231252
8,56,8,9,8,1,0,I,1,S,7,L,10,0.804945,0.336116,0.270555
8,57,2,8,1,2,1,C,6,S,1,S,10,0.37835,0.75424,0.285366
8,58,8,9,9,2,0,I,1,S,7,L,11,0.824888,0.344397,0.284089
8,59,2,9,8,1,1,I,7,L,7,L,14,0.574711,0.764768,0.439521
8,60,2,1,8,2,1,C,1,S,6,S,11,0.785933,0.378264,0.29729
8,61,8,9,8,9,0,C,1,S,1,S,17,0.773806,0.559807,0.433182
8,62,2,1,9,1,1,C,1,S,8,L,10,0.772335,0.363533,0.280769
8,63,9,2,8,2,1,C,7,L,6,S,9,0.819386,0.2901,0.237704
8,64,8,1,1,9,1,I,7,L,8,L,12,0.77629,0.504812,0.391881
8,65,9,8,1,9,1,I,1,S,8,L,17,0.762409,0.613575,0.467795
8,66,8,2,2,1,1,C,6,S,1,S,9,0.803234,0.300827,0.241635
8,67,9,1,2,9,1,I,8,L,7,L,11,0.760968,0.475195,0.361608
8,68,8,9,1,9,0,C,1,S,8,L,20,0.753806,0.645013,0.486215
8,69,2,9,8,2,1,I,7,L,6,S,13,0.513007,0.782005,0.401174
8,70,9,8,2,9,1,I,1,S,7,L,17,0.7735,0.60069,0.464634
8,71,1,9,2,1,1,I,8,L,1,S,12,0.49048,0.764819,0.375128
8,72,1,2,9,8,1,I,1,S,1,S,12,0.399624,0.775893,0.310065
8,73,1,8,8,1,1,I,7,L,7,L,14,0.582808,0.75137,0.437904
8,74,1,9,8,1,1,I,8,L,7,L,14,0.565222,0.774874,0.437976
8,75,8,1,9,1,1,C,7,L,8,L,8,0.772173,0.280034,0.216235
8,76,8,2,8,1,1,C,6,S,7,L,9,0.859197,0.259911,0.223315
8,77,1,8,9,1,1,I,7,L,8,L,14,0.580741,0.752239,0.436856
8,78,2,9,1,2,1,C,7,L,1,S,10,0.361547,0.778107,0.281323
8,79,9,1,9,2,1,C,8,L,7,L,9,0.844342,0.271792,0.229485
8,80,8,1,8,1,1,C,7,L,7,L,8,0.773567,0.27989,0.216513
8,81,9,2,9,2,1,C,7,L,7,L,9,0.817688,0.290412,0.237466
8,82,9,2,2,9,1,I,7,L,7,L,12,0.769659,0.502744,0.386941
8,83,8,9,2,8,0,C,1,S,6,S,20,0.759702,0.639416,0.485765
8,84,1,2,9,2,1,I,1,S,7,L,23,0.637265,0.769911,0.490637
8,85,9,1,8,2,1,C,8,L,6,S,9,0.84604,0.27148,0.229683
8,86,1,2,1,9,1,C,1,S,8,L,10,0.375684,0.751615,0.28237
8,87,2,9,2,9,1,C,7,L,7,L,9,0.300999,0.802954,0.241689
8,88,8,2,9,2,1,C,6,S,7,L,9,0.807487,0.297347,0.240104
8,89,1,8,2,1,1,I,7,L,1,S,13,0.511973,0.774541,0.396544
8,90,2,8,2,1,1,I,6,S,1,S,13,0.523738,0.761298,0.398721
8,91,2,1,1,8,0,I,1,S,7,L,14,0.510707,0.760759,0.388525
8,92,8,2,2,9,1,I,6,S,7,L,12,0.757944,0.511116,0.387397
8,93,8,1,2,8,1,I,7,L,6,S,12,0.785852,0.493771,0.388031
8,94,8,2,8,2,1,C,6,S,6,S,9,0.809185,0.297036,0.240357
8,95,1,2,2,1,1,I,1,S,1,S,22,0.649179,0.750279,0.487066
8,96,1,8,9,2,1,I,7,L,7,L,13,0.518269,0.769589,0.398854
8,97,1,2,9,1,0,I,1,S,8,L,13,0.765012,0.477234,0.36509
8,98,2,1,2,9,1,I,1,S,7,L,23,0.767203,0.644974,0.494826
8,99,1,9,8,9,1,C,8,L,1,S,10,0.314001,0.830787,0.260868
8,100,1,9,9,8,1,I,8,L,1,S,10,0.308376,0.837533,0.258275
8,101,8,2,1,9,1,I,6,S,8,L,13,0.777982,0.53148,0.413482
8,102,2,1,8,1,1,C,1,S,7,L,10,0.77414,0.363067,0.281065
8,103,8,1,2,9,1,I,7,L,7,L,11,0.751316,0.481912,0.362068
8,104,2,9,1,9,1,C,7,L,8,L,9,0.290371,0.816629,0.237126
8,105,1,8,2,8,1,C,7,L,6,S,9,0.303512,0.797143,0.241943
8,106,1,9,2,9,1,C,8,L,7,L,9,0.292318,0.812257,0.237437
8,107,1,9,1,8,1,C,8,L,7,L,9,0.279518,0.830036,0.23201
8,108,1,2,8,9,1,C,1,S,1,S,12,0.407839,0.765324,0.312129
8,109,1,9,2,8,1,C,8,L,6,S,9,0.289901,0.81667,0.236754
8,110,9,2,1,9,1,I,7,L,8,L,12,0.756628,0.519484,0.393057
8,111,2,1,1,9,0,I,1,S,8,L,14,0.513828,0.755842,0.388372
8,112,8,1,1,2,1,I,7,L,1,S,10,0.810913,0.344292,0.279191
8,113,1,8,2,9,1,C,7,L,7,L,9,0.305929,0.79273,0.242519
8,114,2,8,1,8,1,C,6,S,7,L,9,0.302842,0.800037,0.242285
8,115,9,8,8,9,1,I,1,S,1,S,13,0.751181,0.492053,0.369621
8,116,9,1,1,9,1,I,8,L,8,L,12,0.785866,0.497986,0.39135
8,117,8,2,1,2,1,I,6,S,1,S,10,0.780516,0.36578,0.285497
8,118,8,9,1,2,0,C,1,S,1,S,14,0.784065,0.445944,0.349649
8,119,1,8,8,9,1,C,7,L,1,S,10,0.329452,0.8086,0.266395
8,120,9,8,8,2,1,C,1,S,6,S,10,0.802804,0.334665,0.268671
8,121,8,2,1,8,1,I,6,S,7,L,13,0.774888,0.536495,0.415724
8,122,2,1,8,9,1,I,1,S,1,S,20,0.765517,0.605867,0.463802
8,123,2,8,8,1,1,I,6,S,7,L,15,0.591147,0.766527,0.45313
8,124,9,8,1,8,1,I,1,S,7,L,17,0.759482,0.617944,0.469317
8,125,2,1,9,2,1,C,1,S,7,L,11,0.783628,0.379021,0.297012
8,126,2,8,2,8,1,C,6,S,6,S,9,0.313226,0.786671,0.246406
8,127,1,2,2,8,1,C,1,S,6,S,11,0.35671,0.811598,0.289505
8,128,8,2,9,8,1,C,6,S,1,S,11,0.788896,0.411379,0.324535
8,129,9,8,9,8,1,C,1,S,1,S,14,0.774843,0.504609,0.390992
8,130,1,2,8,2,1,I,1,S,6,S,23,0.639566,0.768647,0.491601
8,131,1,8,8,2,1,I,7,L,6,S,13,0.52091,0.768486,0.400312
8,132,1,8,1,8,1,C,7,L,7,L,9,0.293129,0.810508,0.237583
8,133,2,9,2,8,1,C,7,L,6,S,9,0.298583,0.807367,0.241066
8,134,2,9,9,1,1,I,7,L,8,L,14,0.572645,0.765636,0.438438
8,135,2,9,8,9,1,C,7,L,1,S,10,0.323442,0.820341,0.265333
8,136,8,9,9,1,0,I,1,S,8,L,10,0.80314,0.336582,0.270322
8,137,9,1,1,2,1,I,8,L,1,S,10,0.82035,0.33787,0.277172
8,138,9,8,9,2,1,C,1,S,7,L,10,0.800778,0.335205,0.268425
8,139,9,2,1,8,1,I,7,L,7,L,12,0.753633,0.524504,0.395284
8,140,9,2,2,8,1,I,7,L,6,S,12,0.766191,0.508444,0.389565
8,141,2,9,9,2,1,I,7,L,7,L,13,0.510366,0.783108,0.399672
8,142,2,9,9,8,1,I,7,L,1,S,10,0.317817,0.827087,0.262862
8,143,9,1,2,8,1,I,8,L,6,S,11,0.757742,0.48068,0.364231
8,144,2,8,2,9,1,C,6,S,7,L,9,0.315642,0.782258,0.246914
9,1,8,2,9,1,1,C,6,S,8,L,9,0.79792,0.301113,0.240264
9,2,8,9,8,2,1,I,1,S,6,S,18,0.620088,0.759161,0.470746
9,3,8,1,9,8,1,C,7,L,1,S,10,0.799724,0.339112,0.271196
9,4,2,8,9,8,1,I,6,S,1,S,11,0.416429,0.752817,0.313495
9,5,9,1,2,9,1,I,8,L,7,L,13,0.769505,0.532177,0.409513
9,6,9,8,8,9,0,I,1,S,1,S,25,0.50682,0.763226,0.386819
9,7,1,2,8,9,1,C,1,S,1,S,16,0.463545,0.75661,0.350723
9,8,2,1,8,2,1,C,1,S,6,S,10,0.750143,0.371629,0.278775
9,9,1,9,2,9,1,C,8,L,7,L,9,0.276143,0.836594,0.231019
9,10,2,1,8,1,1,C,1,S,7,L,10,0.773415,0.353285,0.273236
9,11,8,1,1,2,1,I,7,L,1,S,11,0.778246,0.412541,0.321058
9,12,8,2,1,2,1,I,6,S,1,S,12,0.774889,0.445055,0.344868
9,13,9,8,8,2,1,C,1,S,6,S,12,0.778648,0.413597,0.322047
9,14,2,9,1,2,1,C,7,L,1,S,9,0.341629,0.751501,0.256735
9,15,1,8,1,8,1,C,7,L,7,L,9,0.298747,0.804262,0.240271
9,16,1,9,8,9,1,C,8,L,1,S,10,0.345241,0.80326,0.277318
9,17,2,9,2,9,1,C,7,L,7,L,9,0.282422,0.825497,0.233139
9,18,8,1,8,2,1,C,7,L,6,S,9,0.798558,0.301512,0.240775
9,19,2,8,1,2,1,C,6,S,1,S,10,0.352402,0.776556,0.27366
9,20,8,2,8,1,1,C,6,S,7,L,9,0.780538,0.314324,0.245342
9,21,8,1,8,9,1,I,7,L,1,S,10,0.768351,0.369184,0.283663
9,22,8,2,8,9,1,I,6,S,1,S,11,0.788007,0.381854,0.300904
9,23,1,2,8,2,0,I,1,S,6,S,13,0.769568,0.451876,0.347749
9,24,8,1,2,1,1,C,7,L,1,S,10,0.79076,0.345075,0.272872
9,25,1,2,2,8,1,C,1,S,6,S,11,0.383919,0.782214,0.300307
9,26,8,1,2,8,1,I,7,L,6,S,13,0.759708,0.541905,0.411689
9,27,1,9,1,2,1,C,8,L,1,S,9,0.33535,0.762598,0.255737
9,28,2,8,2,1,1,I,6,S,1,S,11,0.404315,0.761327,0.307816
9,29,2,1,1,8,1,I,1,S,7,L,21,0.752806,0.650939,0.490031
9,30,9,1,9,8,1,C,8,L,1,S,10,0.803187,0.338488,0.271869
9,31,1,8,8,9,1,C,7,L,1,S,11,0.361531,0.811769,0.293479
9,32,9,2,2,9,1,I,7,L,7,L,14,0.750925,0.57122,0.428944
9,33,9,2,8,2,1,C,7,L,6,S,9,0.763204,0.330486,0.252228
9,34,1,2,1,2,1,C,1,S,1,S,13,0.42846,0.765164,0.327842
9,35,2,8,8,1,1,I,6,S,7,L,15,0.581103,0.762453,0.443064
9,36,9,8,9,1,1,C,1,S,8,L,11,0.775021,0.394681,0.305886
9,37,8,2,1,9,1,I,6,S,8,L,15,0.761678,0.587713,0.447648
9,38,9,1,2,8,1,I,8,L,6,S,13,0.763903,0.540458,0.412858
9,39,2,9,1,9,1,C,7,L,8,L,9,0.273084,0.839696,0.229308
9,40,2,9,1,8,1,C,7,L,7,L,9,0.269395,0.845798,0.227853
9,41,9,1,1,8,1,I,8,L,7,L,13,0.7524,0.556707,0.418867
9,42,2,9,8,1,1,I,7,L,7,L,13,0.531063,0.775068,0.41161
9,43,1,9,9,1,1,I,8,L,8,L,13,0.542383,0.772536,0.41901
9,44,2,8,2,8,1,C,6,S,6,S,9,0.315768,0.77724,0.245427
9,45,9,8,8,1,1,C,1,S,7,L,11,0.75492,0.41,0.309517
9,46,1,9,1,8,1,C,8,L,7,L,9,0.263115,0.856895,0.225462
9,47,2,1,9,2,1,C,1,S,7,L,10,0.773577,0.353787,0.273681
9,48,9,2,9,8,1,C,7,L,1,S,10,0.758974,0.371673,0.28209
9,49,9,8,9,8,1,C,1,S,1,S,16,0.761313,0.467928,0.35624
9,50,1,8,9,8,1,I,7,L,1,S,11,0.405469,0.770304,0.312334
9,51,8,2,2,1,1,C,6,S,1,S,11,0.819831,0.3489,0.286039
9,52,8,9,1,2,1,C,1,S,1,S,11,0.383625,0.77311,0.296584
9,53,2,1,2,8,1,I,1,S,6,S,21,0.760727,0.64073,0.487421
9,54,2,8,2,9,1,C,6,S,7,L,9,0.31983,0.770649,0.246477
9,55,2,9,9,2,1,I,7,L,7,L,13,0.531396,0.775382,0.412035
9,56,2,9,2,1,1,I,7,L,1,S,10,0.374831,0.766874,0.287448
9,57,9,1,2,1,1,C,8,L,1,S,10,0.794223,0.344452,0.273572
9,58,8,9,8,1,1,I,1,S,7,L,19,0.627018,0.766732,0.480755
9,59,1,8,2,8,1,C,7,L,6,S,9,0.307712,0.790551,0.243262
9,60,9,1,8,9,1,I,8,L,1,S,10,0.771814,0.36856,0.28446
9,61,1,8,1,9,1,C,7,L,8,L,9,0.302436,0.798159,0.241392
9,62,1,2,2,1,1,I,1,S,1,S,22,0.595009,0.758674,0.451417
9,63,1,2,1,8,1,C,1,S,7,L,11,0.372996,0.798396,0.297799
9,64,1,9,1,9,1,C,8,L,8,L,9,0.266804,0.850793,0.226995
9,65,9,1,8,2,1,C,8,L,6,S,9,0.801585,0.301228,0.24146
9,66,1,2,9,8,1,I,1,S,1,S,23,0.621478,0.753767,0.46845
9,67,9,2,8,1,1,C,7,L,7,L,9,0.783488,0.314155,0.246137
9,68,8,9,8,9,1,C,1,S,1,S,12,0.419114,0.762419,0.31954
9,69,9,1,9,2,1,C,8,L,7,L,9,0.821997,0.285435,0.234627
9,70,2,9,2,8,1,C,7,L,6,S,9,0.27836,0.832087,0.231619
9,71,9,1,9,1,1,C,8,L,8,L,9,0.83925,0.271687,0.228014
9,72,9,2,1,2,1,I,7,L,1,S,12,0.779228,0.443769,0.345797
9,73,9,2,1,9,1,I,7,L,8,L,15,0.766482,0.585712,0.448938
9,74,8,2,8,2,1,C,6,S,6,S,9,0.760254,0.330654,0.251381
9,75,8,1,9,1,1,C,7,L,8,L,9,0.836223,0.271971,0.227429
9,76,8,2,9,8,1,C,6,S,1,S,10,0.755474,0.372229,0.281209
9,77,2,8,9,2,1,I,6,S,7,L,15,0.58156,0.762627,0.443514
9,78,1,8,8,2,1,I,7,L,6,S,14,0.545638,0.773829,0.42223
9,79,1,2,1,9,1,C,1,S,8,L,11,0.377547,0.791247,0.298733
9,80,9,2,9,1,1,C,7,L,8,L,9,0.800869,0.300945,0.241018
9,81,9,2,9,2,1,C,7,L,7,L,9,0.783616,0.314693,0.246599
9,82,9,2,8,9,1,I,7,L,1,S,11,0.791982,0.380916,0.301678
9,83,8,2,2,9,1,I,6,S,7,L,15,0.773577,0.571614,0.442188
9,84,8,1,1,8,1,I,7,L,7,L,14,0.777267,0.559106,0.434574
9,85,8,2,2,8,1,I,6,S,6,S,15,0.768064,0.579391,0.44501
9,86,2,1,2,9,1,I,1,S,7,L,21,0.764791,0.635281,0.485857
9,87,1,9,8,2,1,I,8,L,6,S,12,0.493208,0.775634,0.382549
9,88,2,8,1,9,1,C,6,S,8,L,9,0.310492,0.784848,0.243689
9,89,9,1,1,9,1,I,8,L,8,L,13,0.757239,0.549518,0.416116
9,90,1,8,2,1,1,I,7,L,1,S,11,0.393355,0.778815,0.30635
9,91,8,9,9,8,1,I,1,S,1,S,14,0.464038,0.784476,0.364027
9,92,2,1,8,9,1,I,1,S,1,S,14,0.798514,0.419463,0.334947
9,93,2,1,9,1,1,C,1,S,8,L,10,0.792625,0.338764,0.268513
9,94,9,8,2,9,0,I,1,S,7,L,12,0.403547,0.792141,0.319666
9,95,1,8,9,1,1,I,7,L,8,L,15,0.586256,0.766025,0.449086
9,96,2,9,8,9,1,C,7,L,1,S,10,0.352422,0.790983,0.27876
9,97,1,2,9,2,0,I,1,S,7,L,12,0.763573,0.435789,0.332757
9,98,8,1,8,1,1,C,7,L,7,L,9,0.818842,0.285182,0.233519
9,99,8,9,9,2,1,I,1,S,7,L,19,0.627682,0.766676,0.481228
9,100,1,2,2,9,1,C,1,S,7,L,11,0.389089,0.774162,0.301218
9,101,2,8,8,2,1,I,6,S,6,S,14,0.558289,0.755099,0.421563
9,102,9,1,8,1,1,C,8,L,7,L,9,0.821869,0.284898,0.234149
9,103,2,9,9,8,1,I,7,L,1,S,10,0.383794,0.76091,0.292033
9,104,8,9,9,1,1,I,1,S,8,L,19,0.639934,0.755377,0.483391
9,105,1,9,2,1,1,I,8,L,1,S,10,0.36765,0.779151,0.286455
9,106,9,8,1,9,0,I,1,S,8,L,11,0.407729,0.760802,0.310201
9,107,9,8,1,2,0,I,1,S,1,S,15,0.447357,0.783447,0.350481
9,108,1,2,8,1,0,I,1,S,7,L,12,0.763302,0.435406,0.332346
9,109,9,2,2,1,1,C,7,L,1,S,10,0.75001,0.377637,0.283232
9,110,9,8,2,1,1,C,1,S,1,S,17,0.760016,0.471702,0.358501
9,111,1,8,2,9,1,C,7,L,7,L,9,0.311774,0.783961,0.244419
9,112,8,9,2,8,1,C,1,S,6,S,10,0.335717,0.802329,0.269356
9,113,8,1,1,9,1,I,7,L,8,L,13,0.753044,0.550964,0.4149
9,114,8,1,2,9,1,I,7,L,7,L,13,0.76531,0.533624,0.408388
9,115,8,2,1,8,1,I,6,S,7,L,15,0.756964,0.59441,0.449947
9,116,1,8,1,2,1,C,7,L,1,S,10,0.342735,0.792281,0.271542
9,117,8,2,9,2,1,C,6,S,7,L,9,0.780666,0.314861,0.245802
9,118,1,8,9,2,1,I,7,L,7,L,14,0.570546,0.753906,0.430138
9,119,2,1,9,8,1,C,1,S,1,S,12,0.763581,0.406821,0.310641
9,120,2,9,9,1,1,I,7,L,8,L,13,0.550785,0.759479,0.418309
9,121,2,8,9,1,1,I,6,S,8,L,16,0.593805,0.773183,0.45912
9,122,1,8,8,1,1,I,7,L,7,L,14,0.57015,0.753663,0.429701
9,123,1,2,9,1,0,I,1,S,8,L,12,0.783506,0.419756,0.328881
9,124,9,1,1,2,1,I,8,L,1,S,11,0.782048,0.411601,0.321892
9,125,2,8,1,8,1,C,6,S,7,L,9,0.306803,0.79095,0.242666
9,126,9,2,1,8,1,I,7,L,7,L,15,0.761768,0.592409,0.451278
9,127,2,1,2,1,1,C,1,S,1,S,13,0.810696,0.384309,0.311558
9,128,1,9,8,1,1,I,8,L,7,L,12,0.518917,0.755249,0.391912
9,129,1,9,9,8,1,I,8,L,1,S,10,0.376614,0.773187,0.291193
9,130,1,9,2,8,1,C,8,L,6,S,9,0.27208,0.843184,0.229414
9,131,2,8,8,9,1,C,6,S,1,S,11,0.372491,0.794282,0.295862
9,132,8,9,2,1,1,I,1,S,1,S,13,0.450874,0.761764,0.34346
9,133,9,8,1,8,0,I,1,S,7,L,11,0.403178,0.767951,0.309621
9,134,9,2,2,8,1,I,7,L,6,S,15,0.772869,0.57739,0.446247
9,135,9,8,9,2,1,C,1,S,7,L,11,0.755131,0.410448,0.309942
9,136,1,9,9,2,1,I,8,L,7,L,12,0.519187,0.755632,0.392314
9,137,2,1,1,9,1,I,1,S,8,L,21,0.756288,0.646178,0.488696
9,138,8,9,2,9,1,C,1,S,7,L,10,0.340419,0.794837,0.270578
9,139,9,8,2,8,0,I,1,S,6,S,11,0.4141,0.75177,0.311308
9,140,2,9,8,2,1,I,7,L,6,S,12,0.50143,0.762471,0.382326
9,141,8,1,9,2,1,C,7,L,7,L,9,0.81897,0.285719,0.233995
9,142,2,1,1,2,1,I,1,S,1,S,17,0.760745,0.564252,0.429252
9,143,8,9,1,8,1,C,1,S,7,L,10,0.325589,0.817629,0.266211
9,144,8,9,1,9,1,C,1,S,8,L,10,0.329786,0.810853,0.267408
10,1,8,9,1,2,1,C,1,S,1,S,11,0.361781,0.802359,0.290278
10,2,8,2,8,2,1,C,6,S,6,S,9,0.811664,0.293682,0.238371
10,3,1,8,8,2,1,I,7,L,6,S,13,0.539334,0.76333,0.41169
10,4,2,9,9,8,1,I,7,L,1,S,11,0.42236,0.792681,0.334797
10,5,9,2,8,9,1,I,7,L,1,S,10,0.827115,0.321177,0.265651
10,6,1,8,1,2,1,C,7,L,1,S,10,0.336521,0.803841,0.270509
10,7,8,2,2,1,1,C,6,S,1,S,9,0.777292,0.318207,0.24734
10,8,9,1,8,2,1,C,8,L,6,S,9,0.838798,0.274049,0.229872
10,9,8,2,8,9,1,I,6,S,1,S,10,0.821515,0.323665,0.265896
10,10,9,1,8,1,1,C,8,L,7,L,8,0.781441,0.273811,0.213967
10,11,8,1,8,9,1,I,7,L,1,S,9,0.75755,0.336959,0.255264
10,12,8,2,9,2,1,C,6,S,7,L,9,0.829253,0.279912,0.232118
10,13,9,2,2,8,1,I,7,L,6,S,13,0.774862,0.526152,0.407696
10,14,1,9,9,2,1,I,8,L,7,L,11,0.485017,0.765465,0.371263
10,15,9,1,9,2,1,C,8,L,7,L,9,0.856387,0.260279,0.2229
10,16,8,9,2,8,1,C,1,S,6,S,10,0.310236,0.83379,0.258672
10,17,2,1,1,9,1,I,1,S,8,L,18,0.760929,0.620789,0.472376
10,18,9,8,2,8,1,I,1,S,6,S,22,0.760056,0.646491,0.491369
10,19,2,1,9,2,1,C,1,S,7,L,10,0.824194,0.317234,0.261462
10,20,9,1,9,8,1,C,8,L,1,S,9,0.785611,0.313129,0.245997
10,21,2,9,1,2,1,C,7,L,1,S,9,0.334777,0.765051,0.256122
10,22,1,8,9,8,1,I,7,L,1,S,12,0.458343,0.785834,0.360182
10,23,2,8,2,9,1,C,6,S,7,L,10,0.309068,0.836889,0.258655
10,24,9,1,9,1,1,C,8,L,8,L,8,0.791346,0.265995,0.210494
10,25,2,9,2,9,1,C,7,L,7,L,9,0.271163,0.846217,0.229463
10,26,9,8,8,2,1,C,1,S,6,S,10,0.752052,0.377499,0.283899
10,27,1,2,8,9,1,C,1,S,1,S,18,0.593464,0.751498,0.445987
10,28,2,1,8,9,1,I,1,S,1,S,11,0.782228,0.376145,0.294231
10,29,8,9,2,1,1,I,1,S,1,S,15,0.560453,0.768698,0.430819
10,30,2,1,1,2,1,I,1,S,1,S,14,0.784405,0.466588,0.365994
10,31,9,1,1,8,1,I,8,L,7,L,12,0.764084,0.505769,0.38645
10,32,2,8,1,2,1,C,6,S,1,S,11,0.358379,0.807047,0.289229
10,33,2,9,2,8,1,C,7,L,6,S,9,0.269425,0.847045,0.228215
10,34,9,1,8,9,1,I,8,L,1,S,9,0.762189,0.33517,0.255463
10,35,2,8,8,2,1,I,6,S,6,S,16,0.596155,0.766397,0.456891
10,36,8,9,1,8,1,C,1,S,7,L,10,0.307773,0.837381,0.257723
10,37,9,2,9,2,1,C,7,L,7,L,9,0.834176,0.277928,0.231841
10,38,8,2,1,9,1,I,6,S,8,L,13,0.76709,0.532904,0.408786
10,39,9,8,9,8,1,C,1,S,1,S,11,0.75311,0.39941,0.3008
10,40,1,2,2,9,1,C,1,S,7,L,11,0.353138,0.817248,0.288601
10,41,1,2,2,8,1,C,1,S,6,S,11,0.351342,0.818224,0.287476
10,42,8,2,1,8,1,I,6,S,7,L,13,0.76554,0.533622,0.408509
10,43,9,8,1,9,1,I,1,S,8,L,22,0.758461,0.649488,0.492611
10,44,2,1,9,1,1,C,1,S,8,L,9,0.787058,0.314148,0.247253
10,45,2,9,8,2,1,I,7,L,6,S,12,0.500761,0.778656,0.389921
10,46,1,8,8,1,1,I,7,L,7,L,15,0.595007,0.77439,0.460767
10,47,9,1,1,2,1,I,8,L,1,S,10,0.766768,0.380972,0.292117
10,48,2,9,2,1,1,I,7,L,1,S,11,0.449959,0.772293,0.3475
10,49,8,2,8,1,1,C,6,S,7,L,8,0.758739,0.290526,0.220434
10,50,9,1,2,8,1,I,8,L,6,S,12,0.766934,0.501723,0.384788
10,51,2,8,1,8,1,C,6,S,7,L,10,0.304804,0.841428,0.25647
10,52,8,2,9,8,1,C,6,S,1,S,9,0.758477,0.332762,0.252392
10,53,9,1,2,9,1,I,8,L,7,L,12,0.768668,0.500799,0.384948
10,54,9,8,9,1,1,C,1,S,8,L,10,0.824467,0.324836,0.267816
10,55,1,8,2,8,1,C,7,L,6,S,9,0.297933,0.804976,0.239829
10,56,8,1,9,2,1,C,7,L,7,L,9,0.851748,0.262069,0.223217
10,57,8,2,2,8,1,I,6,S,6,S,13,0.768456,0.529571,0.406952
10,58,1,2,8,2,1,I,1,S,6,S,22,0.644698,0.764691,0.492995
10,59,1,9,8,9,1,C,8,L,1,S,10,0.36078,0.811172,0.292655
10,60,2,9,1,8,1,C,7,L,7,L,9,0.26729,0.850154,0.227237
10,61,1,9,2,9,1,C,8,L,7,L,8,0.282126,0.773275,0.218161
10,62,9,2,1,2,1,I,7,L,1,S,11,0.800516,0.387804,0.310443
10,63,8,1,8,1,1,C,7,L,7,L,8,0.777498,0.275125,0.213909
10,64,8,2,2,9,1,I,6,S,7,L,13,0.770085,0.52876,0.40719
10,65,1,9,2,8,1,C,8,L,6,S,8,0.280521,0.773902,0.217096
10,66,8,9,9,8,1,I,1,S,1,S,14,0.528802,0.76456,0.4043
10,67,1,9,1,9,1,C,8,L,8,L,8,0.280352,0.77581,0.2175
10,68,8,2,1,2,1,I,6,S,1,S,11,0.794454,0.390704,0.310396
10,69,9,2,9,8,1,C,7,L,1,S,9,0.763399,0.330777,0.252515
10,70,9,8,8,9,1,I,1,S,1,S,12,0.777478,0.402405,0.312861
10,71,9,1,1,9,1,I,8,L,8,L,12,0.765741,0.504936,0.38665
10,72,9,8,8,1,1,C,1,S,7,L,10,0.813395,0.333638,0.271379
10,73,2,1,2,9,1,I,1,S,7,L,18,0.763471,0.617585,0.471508
10,74,8,9,9,1,1,I,1,S,8,L,18,0.637733,0.763785,0.487091
10,75,1,2,2,1,1,I,1,S,1,S,21,0.631345,0.76507,0.483023
10,76,1,9,8,1,1,I,8,L,7,L,12,0.533714,0.771912,0.41198
10,77,1,8,2,1,1,I,7,L,1,S,12,0.488765,0.76343,0.373138
10,78,1,8,2,9,1,C,7,L,7,L,9,0.299671,0.804149,0.24098
10,79,9,8,2,9,1,I,1,S,7,L,22,0.76038,0.647122,0.492059
10,80,2,8,2,8,1,C,6,S,6,S,10,0.307267,0.837837,0.257439
10,81,1,8,1,8,1,C,7,L,7,L,9,0.295798,0.808085,0.23903
10,82,9,8,1,2,1,I,1,S,1,S,17,0.757422,0.546854,0.414199
10,83,2,8,2,1,1,I,6,S,1,S,15,0.55648,0.773903,0.430661
10,84,8,1,9,1,1,C,7,L,8,L,8,0.787402,0.267309,0.21048
10,85,2,1,9,8,1,C,1,S,1,S,11,0.821684,0.343019,0.281853
10,86,2,8,8,1,1,I,6,S,7,L,17,0.638241,0.750788,0.479184
10,87,8,1,2,1,1,C,7,L,1,S,9,0.799787,0.300364,0.240227
10,88,8,9,2,9,1,C,1,S,7,L,10,0.312037,0.832843,0.259878
10,89,1,2,1,2,1,C,1,S,1,S,13,0.387168,0.81323,0.314857
10,90,8,1,8,2,1,C,7,L,6,S,9,0.834159,0.275839,0.230093
10,91,2,1,2,8,1,I,1,S,6,S,18,0.762604,0.617538,0.470937
10,92,9,2,8,2,1,C,7,L,6,S,9,0.816587,0.291698,0.238196
10,93,8,1,9,8,1,C,7,L,1,S,9,0.780972,0.314918,0.245942
10,94,1,8,8,9,1,C,7,L,1,S,11,0.416608,0.777413,0.323876
10,95,9,2,2,1,1,C,7,L,1,S,9,0.782215,0.316223,0.247354
10,96,2,8,9,2,1,I,6,S,7,L,16,0.612996,0.751941,0.460936
10,97,8,9,8,2,1,I,1,S,6,S,16,0.600032,0.761423,0.456879
10,98,8,9,9,2,1,I,1,S,7,L,17,0.608909,0.771984,0.470068
10,99,2,9,9,2,1,I,7,L,7,L,12,0.521426,0.76233,0.397499
10,100,1,2,9,2,1,I,1,S,7,L,22,0.654488,0.755555,0.494502
10,101,1,2,8,1,0,I,1,S,7,L,12,0.764781,0.462768,0.353916
10,102,1,2,1,9,1,C,1,S,8,L,11,0.350365,0.821232,0.287732
10,103,9,8,9,2,1,C,1,S,7,L,10,0.771596,0.362355,0.279592
10,104,9,2,1,9,1,I,7,L,8,L,13,0.773497,0.529485,0.409555
10,105,1,8,1,9,1,C,7,L,8,L,9,0.297489,0.807308,0.240165
10,106,2,1,8,2,1,C,1,S,6,S,10,0.804649,0.332378,0.267448
10,107,1,8,9,2,1,I,7,L,7,L,14,0.559729,0.776819,0.434808
10,108,9,1,2,1,1,C,8,L,1,S,9,0.804426,0.298574,0.240181
10,109,2,9,8,1,1,I,7,L,7,L,13,0.565921,0.764594,0.4327
10,110,1,9,9,8,1,I,8,L,1,S,10,0.392163,0.783491,0.307256
10,111,8,1,1,8,1,I,7,L,7,L,12,0.758422,0.508556,0.3857
10,112,1,9,9,1,1,I,8,L,8,L,12,0.544347,0.763126,0.415405
10,113,2,9,8,9,1,C,7,L,1,S,10,0.389809,0.770985,0.300537
10,114,1,9,8,2,1,I,8,L,6,S,11,0.464494,0.781447,0.362977
10,115,2,9,1,9,1,C,7,L,8,L,9,0.268981,0.849376,0.228466
10,116,9,8,2,1,1,C,1,S,1,S,11,0.780709,0.379021,0.295905
10,117,1,9,1,2,1,C,8,L,1,S,9,0.307646,0.803093,0.247068
10,118,9,2,8,1,1,C,7,L,7,L,8,0.762816,0.289102,0.220531
10,119,8,9,8,9,1,C,1,S,1,S,13,0.475363,0.774207,0.368029
10,120,9,2,2,9,1,I,7,L,7,L,13,0.776491,0.525341,0.407923
10,121,1,2,1,8,1,C,1,S,7,L,11,0.34864,0.822126,0.286626
10,122,8,2,9,1,1,C,6,S,8,L,8,0.768643,0.28271,0.217303
10,123,8,9,1,9,1,C,1,S,8,L,10,0.309514,0.836501,0.258909
10,124,8,1,2,8,1,I,7,L,6,S,12,0.761273,0.50451,0.38407
10,125,8,1,1,2,1,I,7,L,1,S,10,0.761607,0.383178,0.291831
10,126,2,8,9,1,1,I,6,S,8,L,18,0.634198,0.768147,0.487157
10,127,8,9,8,1,1,I,1,S,7,L,18,0.63081,0.770137,0.48581
10,128,9,2,1,8,1,I,7,L,7,L,13,0.771947,0.530204,0.409289
10,129,2,9,9,1,1,I,7,L,8,L,13,0.576025,0.756064,0.435511
10,130,1,9,1,8,1,C,8,L,7,L,8,0.278782,0.776404,0.216447
10,131,1,8,9,1,1,I,7,L,8,L,15,0.603829,0.766643,0.462922
10,132,2,8,9,8,1,I,6,S,1,S,14,0.52481,0.769897,0.40405
10,133,9,2,9,1,1,C,7,L,8,L,8,0.77272,0.281286,0.217355
10,134,2,1,2,1,1,C,1,S,1,S,10,0.764277,0.360919,0.275842
10,135,2,1,8,1,1,C,1,S,7,L,9,0.776306,0.322605,0.25044
10,136,1,2,9,8,1,I,1,S,1,S,20,0.622068,0.760256,0.472931
10,137,1,2,9,1,0,I,1,S,8,L,11,0.751028,0.441918,0.331892
10,138,1,9,2,1,1,I,8,L,1,S,10,0.415733,0.765788,0.318363
10,139,2,8,1,9,1,C,6,S,8,L,10,0.306545,0.840548,0.257666
10,140,2,8,8,9,1,C,6,S,1,S,13,0.471451,0.779531,0.36751
10,141,8,1,2,9,1,I,7,L,7,L,12,0.763007,0.503586,0.38424
10,142,8,1,1,9,1,I,7,L,8,L,12,0.76008,0.507723,0.38591
10,143,9,8,1,8,1,I,1,S,7,L,22,0.75818,0.648815,0.491918
10,144,2,1,1,8,1,I,1,S,7,L,18,0.760127,0.620674,0.471791
11,1,2,8,9,8,1,I,6,S,1,S,10,0.349522,0.796516,0.2784
11,2,1,9,8,1,1,I,8,L,7,L,11,0.481631,0.759635,0.365864
11,3,8,2,1,2,1,I,6,S,1,S,12,0.790829,0.446325,0.352967
11,4,1,9,8,9,1,C,8,L,1,S,9,0.346126,0.758062,0.262385
11,5,9,8,9,1,1,C,1,S,8,L,11,0.788663,0.376087,0.296606
11,6,8,9,9,1,1,I,1,S,8,L,17,0.614459,0.759307,0.466563
11,7,9,1,1,8,1,I,8,L,7,L,12,0.764938,0.514355,0.39345
11,8,8,9,1,2,1,C,1,S,1,S,11,0.339131,0.828517,0.280976
11,9,9,8,8,9,1,I,1,S,1,S,15,0.784895,0.432194,0.339227
11,10,2,8,1,9,1,C,6,S,8,L,9,0.25728,0.859564,0.221149
11,11,8,1,2,9,1,I,7,L,7,L,12,0.781844,0.495048,0.38705
11,12,1,8,8,2,1,I,7,L,6,S,13,0.520191,0.775592,0.403456
11,13,8,1,2,1,1,C,7,L,1,S,10,0.827084,0.326753,0.270252
11,14,9,2,8,2,1,C,7,L,6,S,9,0.799348,0.300193,0.239958
11,15,8,2,8,2,1,C,6,S,6,S,9,0.79813,0.30246,0.241402
11,16,2,8,8,1,1,I,6,S,7,L,12,0.518332,0.756272,0.392
11,17,9,1,2,1,1,C,8,L,1,S,10,0.827711,0.32505,0.269048
11,18,8,1,9,8,1,C,7,L,1,S,10,0.81817,0.334538,0.273709
11,19,8,2,2,1,1,C,6,S,1,S,10,0.779177,0.35879,0.279561
11,20,1,8,1,8,1,C,7,L,7,L,9,0.278118,0.826685,0.229916
11,21,2,8,8,9,1,C,6,S,1,S,10,0.354686,0.792681,0.281153
11,22,8,9,9,2,1,I,1,S,7,L,16,0.598747,0.750973,0.449643
11,23,2,9,9,1,1,I,7,L,8,L,11,0.456535,0.788454,0.359957
11,24,1,9,1,2,1,C,8,L,1,S,9,0.289922,0.816614,0.236754
11,25,8,1,1,8,1,I,7,L,7,L,12,0.764526,0.515842,0.394374
11,26,1,8,1,2,1,C,7,L,1,S,9,0.332475,0.754165,0.250741
11,27,2,8,9,1,1,I,6,S,8,L,12,0.506124,0.765214,0.387293
11,28,2,8,2,9,1,C,6,S,7,L,9,0.276607,0.834525,0.230835
11,29,8,1,8,2,1,C,7,L,6,S,9,0.841489,0.273808,0.230407
11,30,2,8,8,2,1,I,6,S,6,S,12,0.495586,0.772164,0.382673
11,31,1,9,8,2,1,I,8,L,6,S,11,0.459591,0.774741,0.356064
11,32,9,1,8,9,1,I,8,L,1,S,10,0.82396,0.329001,0.271083
11,33,9,2,9,8,1,C,7,L,1,S,10,0.771597,0.364252,0.281056
11,34,8,2,1,9,1,I,6,S,8,L,14,0.771109,0.564014,0.434916
11,35,9,8,8,2,1,C,1,S,6,S,11,0.778546,0.382601,0.297873
11,36,9,1,9,1,1,C,8,L,8,L,9,0.850145,0.267078,0.227055
11,37,8,2,8,1,1,C,6,S,7,L,9,0.815948,0.290437,0.236981
11,38,2,9,1,9,1,C,7,L,8,L,8,0.260922,0.79934,0.208565
11,39,9,8,9,2,1,C,1,S,7,L,11,0.764299,0.392894,0.300289
11,40,8,9,2,8,1,C,1,S,6,S,10,0.334523,0.803182,0.268683
11,41,1,2,8,1,0,I,1,S,7,L,13,0.757092,0.473861,0.358757
11,42,1,8,2,8,1,C,7,L,6,S,9,0.298574,0.800268,0.238939
11,43,8,9,2,9,1,C,1,S,7,L,10,0.327743,0.813688,0.26668
11,44,8,1,1,9,1,I,7,L,8,L,12,0.758576,0.524921,0.398192
11,45,2,1,2,8,0,I,1,S,6,S,12,0.414951,0.777599,0.322665
11,46,1,9,1,9,1,C,8,L,8,L,8,0.271136,0.782298,0.212109
11,47,2,1,2,9,0,I,1,S,7,L,12,0.40694,0.78955,0.321299
11,48,1,2,8,9,1,C,1,S,1,S,16,0.471268,0.765803,0.360898
11,49,8,2,1,8,1,I,6,S,7,L,14,0.77712,0.555296,0.431531
11,50,2,9,1,8,1,C,7,L,7,L,8,0.264811,0.79282,0.209948
11,51,1,2,2,8,1,C,1,S,6,S,11,0.375163,0.782363,0.293514
11,52,9,1,2,9,1,I,8,L,7,L,12,0.782257,0.493561,0.386092
11,53,1,8,2,1,1,I,7,L,1,S,10,0.376657,0.760747,0.28654
11,54,9,8,8,1,1,C,1,S,7,L,11,0.800586,0.367496,0.294212
11,55,8,9,1,8,1,C,1,S,7,L,10,0.311636,0.833171,0.259646
11,56,1,2,1,9,1,C,1,S,8,L,10,0.371456,0.754957,0.280433
11,57,8,1,9,2,1,C,7,L,7,L,9,0.83057,0.281814,0.234066
11,58,2,1,1,9,0,I,1,S,8,L,11,0.399754,0.770835,0.308144
11,59,2,1,8,1,1,C,1,S,7,L,11,0.756405,0.411454,0.311226
11,60,9,1,8,1,1,C,8,L,7,L,8,0.750342,0.296967,0.222827
11,61,8,1,9,1,1,C,7,L,8,L,9,0.849502,0.268819,0.228362
11,62,9,1,2,8,1,I,8,L,6,S,11,0.751702,0.47588,0.35772
11,63,1,8,8,9,1,C,7,L,1,S,10,0.372906,0.764697,0.28516
11,64,1,2,2,9,1,C,1,S,7,L,11,0.36764,0.793833,0.291845
11,65,1,2,1,8,1,C,1,S,7,L,11,0.350661,0.814425,0.285587
11,66,2,9,2,8,1,C,7,L,6,S,8,0.282125,0.771233,0.217584
11,67,1,2,8,2,0,I,1,S,6,S,14,0.750501,0.501128,0.376097
11,68,9,8,1,2,1,I,1,S,1,S,23,0.755742,0.638147,0.482275
11,69,1,9,2,1,1,I,8,L,1,S,9,0.348711,0.755221,0.263354
11,70,8,2,9,2,1,C,6,S,7,L,9,0.787211,0.310465,0.244401
11,71,8,2,9,8,1,C,6,S,1,S,10,0.770262,0.366575,0.282359
11,72,1,2,9,1,0,I,1,S,8,L,14,0.760917,0.493905,0.37582
11,73,1,8,1,9,1,C,7,L,8,L,9,0.27345,0.834374,0.22816
11,74,2,8,1,2,1,C,6,S,1,S,9,0.316305,0.779355,0.246514
11,75,9,2,9,1,1,C,7,L,8,L,9,0.80736,0.295203,0.238335
11,76,9,2,1,2,1,I,7,L,1,S,12,0.792067,0.444124,0.351776
11,77,2,1,9,8,1,C,1,S,1,S,23,0.787695,0.459017,0.361565
11,78,1,2,1,2,1,C,1,S,1,S,12,0.394082,0.778281,0.306707
11,79,2,9,8,9,1,C,7,L,1,S,9,0.334505,0.776976,0.259903
11,80,8,1,2,8,1,I,7,L,6,S,11,0.75116,0.477493,0.358673
11,81,2,1,9,1,1,C,1,S,8,L,12,0.793792,0.403486,0.320284
11,82,1,9,1,8,1,C,8,L,7,L,8,0.275025,0.775778,0.213359
11,83,1,2,9,8,1,I,1,S,1,S,15,0.464534,0.750105,0.34845
11,84,8,2,2,9,1,I,6,S,7,L,13,0.764488,0.534552,0.408659
11,85,2,1,9,2,1,C,1,S,7,L,12,0.768295,0.421357,0.323727
11,86,9,8,2,1,1,C,1,S,1,S,15,0.80331,0.415845,0.334053
11,87,9,1,8,2,1,C,8,L,6,S,9,0.842132,0.272067,0.229116
11,88,9,2,9,2,1,C,7,L,7,L,9,0.788428,0.308198,0.242992
11,89,9,2,2,1,1,C,7,L,1,S,10,0.780512,0.356467,0.278227
11,90,8,2,8,9,1,I,6,S,1,S,10,0.775426,0.36274,0.281278
11,91,9,1,9,8,1,C,8,L,1,S,10,0.818796,0.332836,0.272524
11,92,8,9,8,9,1,C,1,S,1,S,12,0.41909,0.772335,0.323677
11,93,8,2,9,1,1,C,6,S,8,L,9,0.806143,0.29747,0.239803
11,94,1,2,9,2,1,I,1,S,7,L,24,0.643669,0.762992,0.491115
11,95,1,8,2,9,1,C,7,L,7,L,9,0.292777,0.809336,0.236954
11,96,2,8,9,2,1,I,6,S,7,L,12,0.480627,0.783085,0.376372
11,97,8,9,2,1,1,I,1,S,1,S,12,0.426524,0.765025,0.326301
11,98,9,8,1,8,0,I,1,S,7,L,12,0.450834,0.751338,0.338728
11,99,1,9,2,8,1,C,8,L,6,S,8,0.292339,0.754191,0.22048
11,100,2,9,2,9,1,C,7,L,7,L,8,0.277485,0.778524,0.216029
11,101,2,9,2,1,1,I,7,L,1,S,9,0.33709,0.774135,0.260953
11,102,1,8,9,8,1,I,7,L,1,S,10,0.367742,0.768532,0.282621
11,103,1,9,9,1,1,I,8,L,8,L,11,0.469708,0.768227,0.360842
11,104,8,1,8,1,1,C,7,L,7,L,9,0.859308,0.261785,0.224954
11,105,2,9,9,8,1,I,7,L,1,S,9,0.330726,0.779514,0.257806
11,106,1,8,9,1,1,I,7,L,8,L,13,0.530799,0.768416,0.407875
11,107,9,2,1,9,1,I,7,L,8,L,14,0.771979,0.56213,0.433952
11,108,1,8,9,2,1,I,7,L,7,L,12,0.501043,0.753112,0.377341
11,109,8,9,1,9,1,C,1,S,8,L,9,0.340784,0.750875,0.255886
11,110,8,1,1,2,1,I,7,L,1,S,11,0.798385,0.41151,0.328543
11,111,2,9,1,2,1,C,7,L,1,S,9,0.278301,0.835527,0.232528
11,112,2,8,1,8,1,C,6,S,7,L,9,0.261948,0.851874,0.223147
11,113,1,8,8,1,1,I,7,L,7,L,13,0.542896,0.759372,0.412259
11,114,9,8,1,9,0,I,1,S,8,L,12,0.444884,0.760417,0.338297
11,115,2,8,2,8,1,C,6,S,6,S,9,0.282404,0.825458,0.233113
11,116,2,1,1,8,0,I,1,S,7,L,11,0.405456,0.761888,0.308912
11,117,8,9,9,8,1,I,1,S,1,S,12,0.409567,0.780242,0.319562
11,118,2,9,8,2,1,I,7,L,6,S,11,0.446418,0.794969,0.354888
11,119,9,2,2,9,1,I,7,L,7,L,13,0.765563,0.532493,0.407657
11,120,9,8,9,8,1,C,1,S,1,S,15,0.761724,0.452244,0.344485
11,121,2,1,8,9,1,I,1,S,1,S,20,0.769258,0.474725,0.365186
11,122,8,9,8,2,1,I,1,S,6,S,17,0.605405,0.765959,0.463715
11,123,1,2,2,1,1,I,1,S,1,S,17,0.484951,0.776664,0.376644
11,124,9,2,8,1,1,C,7,L,7,L,9,0.817166,0.28817,0.235483
11,125,2,9,9,2,1,I,7,L,7,L,10,0.426466,0.759071,0.323717
11,126,2,9,8,1,1,I,7,L,7,L,11,0.468458,0.779863,0.365333
11,127,9,2,2,8,1,I,7,L,6,S,13,0.773821,0.520467,0.402749
11,128,9,2,1,8,1,I,7,L,7,L,14,0.777989,0.553412,0.430549
11,129,2,8,2,1,1,I,6,S,1,S,10,0.358437,0.788731,0.28271
11,130,9,2,8,9,1,I,7,L,1,S,10,0.776761,0.360417,0.279958
11,131,2,1,8,2,1,C,1,S,6,S,12,0.783253,0.410436,0.321475
11,132,1,9,9,2,1,I,8,L,7,L,11,0.445344,0.785034,0.34961
11,133,8,1,8,9,1,I,7,L,1,S,10,0.823334,0.330704,0.272279
11,134,2,1,2,1,1,C,1,S,1,S,19,0.776081,0.467851,0.36309
11,135,1,9,9,8,1,I,8,L,1,S,9,0.342347,0.760601,0.260389
11,136,9,1,1,9,1,I,8,L,8,L,12,0.758988,0.523434,0.39728
11,137,1,9,2,9,1,C,8,L,7,L,8,0.287699,0.761482,0.219078
11,138,9,1,1,2,1,I,8,L,1,S,11,0.798927,0.409897,0.327478
11,139,8,9,8,1,1,I,1,S,7,L,17,0.624226,0.751412,0.469051
11,140,9,8,2,8,0,I,1,S,6,S,14,0.488469,0.762382,0.3724
11,141,9,1,9,2,1,C,8,L,7,L,9,0.831213,0.280073,0.2328
11,142,9,8,2,9,0,I,1,S,7,L,13,0.471982,0.756364,0.35699
11,143,2,1,1,2,0,I,1,S,1,S,14,0.433445,0.787082,0.341157
11,144,8,2,2,8,1,I,6,S,6,S,13,0.772746,0.522526,0.40378
12,1,2,8,8,9,1,C,6,S,1,S,10,0.324223,0.822181,0.26657
12,2,8,1,9,8,1,C,7,L,1,S,10,0.785452,0.354884,0.278744
12,3,9,8,1,8,0,I,1,S,7,L,11,0.416896,0.752302,0.313632
12,4,8,2,8,9,1,I,6,S,1,S,11,0.775508,0.41279,0.320122
12,5,2,8,2,8,1,C,6,S,6,S,9,0.305656,0.80094,0.244812
12,6,8,9,9,1,1,I,1,S,8,L,20,0.638096,0.763639,0.487275
12,7,9,8,9,2,1,C,1,S,7,L,11,0.778656,0.390937,0.304405
12,8,9,1,9,2,1,C,8,L,7,L,8,0.761241,0.289553,0.220419
12,9,1,2,8,2,0,I,1,S,6,S,12,0.774463,0.42505,0.329186
12,10,9,1,2,9,1,I,8,L,7,L,11,0.750062,0.483568,0.362706
12,11,8,9,2,1,1,I,1,S,1,S,16,0.547476,0.767344,0.420102
12,12,1,8,8,1,1,I,7,L,7,L,12,0.492185,0.786511,0.387108
12,13,1,9,2,8,1,C,8,L,6,S,9,0.283187,0.830757,0.23526
12,14,9,2,9,1,1,C,7,L,8,L,8,0.760689,0.287033,0.218343
12,15,1,2,8,1,0,I,1,S,7,L,12,0.774013,0.424064,0.328231
12,16,1,8,2,1,1,I,7,L,1,S,10,0.387244,0.773472,0.299522
12,17,1,8,9,1,1,I,7,L,8,L,12,0.513693,0.769309,0.395189
12,18,1,9,9,1,1,I,8,L,8,L,12,0.522196,0.757339,0.395479
12,19,9,2,8,9,1,I,7,L,1,S,10,0.778066,0.378384,0.294408
12,20,9,8,8,1,1,C,1,S,7,L,11,0.756683,0.406962,0.307941
12,21,1,8,8,2,1,I,7,L,6,S,12,0.492635,0.787497,0.387949
12,22,1,9,1,8,1,C,8,L,7,L,8,0.295041,0.752476,0.222011
12,23,2,9,8,9,1,C,7,L,1,S,10,0.334688,0.80708,0.27012
12,24,9,1,2,1,1,C,8,L,1,S,9,0.782525,0.321366,0.251477
12,25,8,1,2,8,1,I,7,L,6,S,13,0.773983,0.524659,0.406077
12,26,8,9,8,2,1,I,1,S,6,S,19,0.639676,0.751886,0.480963
12,27,9,2,1,9,1,I,7,L,8,L,12,0.760231,0.52325,0.397791
12,28,9,1,8,1,1,C,8,L,7,L,9,0.854438,0.26464,0.226119
12,29,9,1,2,8,1,I,8,L,6,S,11,0.762097,0.469152,0.357539
12,30,9,8,2,8,0,I,1,S,6,S,12,0.436768,0.756698,0.330502
12,31,2,1,8,1,1,C,1,S,7,L,10,0.779527,0.357015,0.278303
12,32,8,2,9,1,1,C,6,S,8,L,9,0.820764,0.286735,0.235342
12,33,8,9,1,8,1,C,1,S,7,L,10,0.339555,0.799201,0.271373
12,34,8,1,2,1,1,C,7,L,1,S,10,0.816304,0.329081,0.26863
12,35,9,8,9,8,1,C,1,S,1,S,16,0.795421,0.432864,0.344309
12,36,2,8,8,1,1,I,6,S,7,L,13,0.530804,0.773904,0.410791
12,37,9,8,2,9,0,I,1,S,7,L,12,0.424298,0.771598,0.327388
12,38,9,1,9,1,1,C,8,L,8,L,8,0.760841,0.288484,0.21949
12,39,1,2,2,9,1,C,1,S,7,L,11,0.409424,0.755015,0.309121
12,40,8,1,1,2,1,I,7,L,1,S,11,0.804112,0.380732,0.306151
12,41,9,8,1,2,1,I,1,S,1,S,28,0.769354,0.630515,0.485089
12,42,2,9,2,9,1,C,7,L,7,L,9,0.304953,0.798913,0.243631
12,43,8,9,8,1,1,I,1,S,7,L,19,0.638296,0.75192,0.479948
12,44,9,1,8,2,1,C,8,L,6,S,9,0.854617,0.265933,0.227271
12,45,8,9,2,9,1,C,1,S,7,L,10,0.356947,0.775882,0.276949
12,46,9,2,1,8,1,I,7,L,7,L,12,0.76846,0.513871,0.394889
12,47,8,2,2,8,1,I,6,S,6,S,13,0.774192,0.522972,0.404881
12,48,8,1,8,1,1,C,7,L,7,L,9,0.802265,0.303208,0.243253
12,49,1,9,9,8,1,I,8,L,1,S,10,0.3643,0.787628,0.286933
12,50,8,2,2,9,1,I,6,S,7,L,13,0.76165,0.537765,0.409589
12,51,2,9,8,1,1,I,7,L,7,L,13,0.542744,0.75757,0.411167
12,52,1,2,2,8,1,C,1,S,6,S,12,0.400516,0.794486,0.318204
12,53,2,1,8,9,1,I,1,S,1,S,15,0.754916,0.529705,0.399883
12,54,2,9,2,1,1,I,7,L,1,S,11,0.425887,0.766029,0.326242
12,55,8,2,2,1,1,C,6,S,1,S,10,0.816867,0.326998,0.267114
12,56,2,9,9,1,1,I,7,L,8,L,14,0.563916,0.770639,0.434575
12,57,1,9,8,9,1,C,8,L,1,S,9,0.331906,0.766838,0.254518
12,58,9,1,1,8,1,I,8,L,7,L,12,0.769037,0.514855,0.395942
12,59,8,2,1,8,1,I,6,S,7,L,14,0.772333,0.563021,0.43484
12,60,2,1,2,9,1,I,1,S,7,L,19,0.75529,0.637647,0.481609
12,61,1,8,1,2,1,C,7,L,1,S,9,0.340689,0.759955,0.258908
12,62,9,8,9,1,1,C,1,S,8,L,11,0.777959,0.390158,0.303527
12,63,8,1,1,8,1,I,7,L,7,L,14,0.772328,0.564508,0.435985
12,64,8,1,2,9,1,I,7,L,7,L,13,0.761441,0.539451,0.410761
12,65,2,8,1,2,1,C,6,S,1,S,10,0.346179,0.797275,0.276
12,66,9,2,8,2,1,C,7,L,6,S,9,0.854417,0.264536,0.226024
12,67,8,9,9,2,1,I,1,S,7,L,20,0.639776,0.763292,0.488336
12,68,2,8,9,2,1,I,6,S,7,L,13,0.552819,0.757233,0.418613
12,69,2,1,9,1,1,C,1,S,8,L,10,0.799667,0.341136,0.272796
12,70,9,1,1,2,1,I,8,L,1,S,10,0.800319,0.354767,0.283927
12,71,8,9,1,2,1,C,1,S,1,S,12,0.406182,0.772667,0.313843
12,72,1,9,8,2,1,I,8,L,6,S,12,0.501138,0.775527,0.388646
12,73,2,8,8,2,1,I,6,S,6,S,13,0.531394,0.774736,0.411691
12,74,8,9,9,8,1,I,1,S,1,S,14,0.469463,0.770035,0.361503
12,75,9,2,9,8,1,C,7,L,1,S,9,0.760188,0.338836,0.257579
12,76,8,1,8,2,1,C,7,L,6,S,9,0.802443,0.304501,0.244345
12,77,1,9,2,9,1,C,8,L,7,L,9,0.273247,0.842085,0.230097
12,78,2,1,8,2,1,C,1,S,6,S,10,0.779757,0.358247,0.279345
12,79,1,2,1,2,1,C,1,S,1,S,16,0.43701,0.790244,0.345344
12,80,8,1,9,1,1,C,7,L,8,L,9,0.820242,0.288822,0.236904
12,81,2,8,1,9,1,C,6,S,8,L,9,0.272773,0.84134,0.229495
12,82,2,1,9,8,1,C,1,S,1,S,12,0.778312,0.40436,0.314718
12,83,1,8,1,8,1,C,7,L,7,L,8,0.288782,0.761876,0.220016
12,84,9,8,2,1,1,C,1,S,1,S,14,0.784799,0.429712,0.337237
12,85,1,9,9,2,1,I,8,L,7,L,12,0.523026,0.757971,0.396438
12,86,9,2,2,1,1,C,7,L,1,S,9,0.782325,0.319969,0.25032
12,87,1,8,9,2,1,I,7,L,7,L,12,0.514523,0.769941,0.396152
12,88,2,9,9,8,1,I,7,L,1,S,11,0.38431,0.799933,0.307422
12,89,2,9,1,8,1,C,7,L,7,L,9,0.2894,0.819583,0.237187
12,90,2,9,1,2,1,C,7,L,1,S,10,0.356644,0.782173,0.278958
12,91,2,1,2,1,1,C,1,S,1,S,11,0.757082,0.399547,0.302489
12,92,8,2,8,2,1,C,6,S,6,S,9,0.802966,0.302414,0.242828
12,93,1,9,1,9,1,C,8,L,8,L,8,0.288476,0.759618,0.219132
12,94,2,9,1,9,1,C,7,L,8,L,9,0.28201,0.827986,0.233501
12,95,1,8,2,8,1,C,7,L,6,S,9,0.275966,0.841552,0.23224
12,96,2,8,9,1,1,I,6,S,8,L,13,0.551857,0.756752,0.417619
12,97,9,1,9,8,1,C,8,L,1,S,9,0.760387,0.340234,0.258709
12,98,1,8,9,8,1,I,7,L,1,S,10,0.356391,0.799275,0.284855
12,99,1,2,9,8,1,I,1,S,1,S,27,0.635832,0.762371,0.48474
12,100,9,8,1,9,0,I,1,S,8,L,11,0.408697,0.761771,0.311334
12,101,9,1,1,9,1,I,8,L,8,L,12,0.760809,0.524233,0.398841
12,102,9,8,8,2,1,C,1,S,6,S,11,0.757008,0.408087,0.308925
12,103,8,2,9,2,1,C,6,S,7,L,9,0.821235,0.287747,0.236308
12,104,8,2,8,1,1,C,6,S,7,L,9,0.802787,0.301121,0.241736
12,105,8,2,1,9,1,I,6,S,8,L,14,0.764571,0.571491,0.436946
12,106,9,2,9,2,1,C,7,L,7,L,8,0.761089,0.288102,0.219271
12,107,8,2,9,8,1,C,6,S,1,S,10,0.786015,0.352801,0.277307
12,108,2,8,9,8,1,I,6,S,1,S,10,0.388929,0.754856,0.293586
12,109,2,8,1,8,1,C,6,S,7,L,9,0.280163,0.832937,0.233358
12,110,8,1,8,9,1,I,7,L,1,S,11,0.774999,0.414792,0.321463
12,111,9,2,8,1,1,C,7,L,7,L,9,0.854239,0.263243,0.224872
12,112,2,1,9,2,1,C,1,S,7,L,10,0.800241,0.342046,0.273719
12,113,1,9,1,2,1,C,8,L,1,S,10,0.321549,0.830047,0.266901
12,114,1,2,9,1,0,I,1,S,8,L,11,0.751882,0.41768,0.314046
12,115,1,2,1,9,1,C,1,S,8,L,11,0.382621,0.789293,0.302
12,116,9,1,8,9,1,I,8,L,1,S,10,0.778363,0.379674,0.295524
12,117,9,2,2,8,1,I,7,L,6,S,11,0.76167,0.468005,0.356465
12,118,1,2,2,1,0,I,1,S,1,S,16,0.766941,0.48698,0.373485
12,119,2,1,1,8,1,I,1,S,7,L,20,0.765218,0.640444,0.49008
12,120,8,9,2,8,1,C,1,S,6,S,10,0.368139,0.762657,0.280764
12,121,1,2,9,2,0,I,1,S,7,L,11,0.75258,0.418458,0.314923
12,122,8,1,9,2,1,C,7,L,7,L,9,0.820712,0.289834,0.23787
12,123,8,9,1,9,1,C,1,S,8,L,10,0.331624,0.808374,0.268076
12,124,9,2,1,2,1,I,7,L,1,S,10,0.800022,0.353477,0.28279
12,125,2,9,9,2,1,I,7,L,7,L,14,0.565006,0.770973,0.435604
12,126,2,9,2,8,1,C,7,L,6,S,9,0.314893,0.787585,0.248005
12,127,2,1,2,8,1,I,1,S,6,S,19,0.764312,0.628356,0.48026
12,128,2,8,2,1,1,I,6,S,1,S,11,0.414574,0.782153,0.32426
12,129,9,8,8,9,0,I,1,S,1,S,16,0.492464,0.752632,0.370644
12,130,2,1,1,9,1,I,1,S,8,L,20,0.760303,0.645016,0.490408
12,131,1,8,2,9,1,C,7,L,7,L,9,0.266027,0.85288,0.226889
12,132,1,9,2,1,1,I,8,L,1,S,10,0.395152,0.761825,0.301037
12,133,9,2,2,9,1,I,7,L,7,L,12,0.787675,0.488617,0.384872
12,134,8,2,1,2,1,I,6,S,1,S,11,0.804621,0.37873,0.304734
12,135,1,8,1,9,1,C,7,L,8,L,8,0.282217,0.769018,0.21703
12,136,1,2,8,9,1,C,1,S,1,S,14,0.440052,0.770442,0.339035
12,137,8,9,8,9,1,C,1,S,1,S,12,0.368972,0.817662,0.301694
12,138,2,8,2,9,1,C,6,S,7,L,9,0.295716,0.812267,0.2402
12,139,1,8,8,9,1,C,7,L,1,S,9,0.324685,0.777633,0.252486
12,140,8,1,1,9,1,I,7,L,8,L,14,0.764566,0.572978,0.438079
12,141,2,1,1,2,1,I,1,S,1,S,14,0.778146,0.461818,0.359362
12,142,1,9,8,1,1,I,8,L,7,L,12,0.500687,0.774541,0.387803
12,143,1,2,1,8,1,C,1,S,7,L,11,0.39082,0.779824,0.304771
12,144,2,9,8,2,1,I,7,L,6,S,13,0.543335,0.758402,0.412066
13,1,9,2,1,2,1,I,7,L,1,S,10,0.759576,0.383115,0.291005
13,2,1,8,8,2,1,I,7,L,6,S,13,0.547058,0.766083,0.419092
13,3,8,1,9,1,1,C,7,L,8,L,9,0.814294,0.292703,0.238346
13,4,1,9,1,8,1,C,8,L,7,L,8,0.283091,0.767077,0.217153
13,5,9,8,9,1,1,C,1,S,8,L,11,0.779841,0.393495,0.306864
13,6,1,9,2,9,1,C,8,L,7,L,9,0.279662,0.828386,0.231668
13,7,9,2,8,1,1,C,7,L,7,L,9,0.819838,0.289233,0.237124
13,8,1,2,9,8,1,I,1,S,1,S,20,0.588752,0.77086,0.453845
13,9,8,1,8,2,1,C,7,L,6,S,9,0.809476,0.299632,0.242545
13,10,9,1,2,9,1,I,8,L,7,L,12,0.767717,0.499844,0.383739
13,11,9,1,8,2,1,C,8,L,6,S,9,0.852777,0.268771,0.229202
13,12,2,8,2,9,1,C,6,S,7,L,9,0.316156,0.784167,0.247919
13,13,9,8,9,8,1,C,1,S,1,S,15,0.75848,0.467145,0.35432
13,14,1,8,1,2,1,C,7,L,1,S,10,0.337378,0.806041,0.27194
13,15,1,8,2,1,1,I,7,L,1,S,11,0.425216,0.774869,0.329486
13,16,1,8,8,1,1,I,7,L,7,L,13,0.525073,0.780894,0.410026
13,17,8,1,2,1,1,C,7,L,1,S,10,0.814951,0.326276,0.265899
13,18,9,1,9,1,1,C,8,L,8,L,9,0.857595,0.261842,0.224554
13,19,9,2,2,9,1,I,7,L,7,L,12,0.750256,0.511695,0.383902
13,20,1,2,1,9,1,C,1,S,8,L,10,0.355868,0.780464,0.277742
13,21,2,9,1,2,1,C,7,L,1,S,10,0.352354,0.790905,0.278679
13,22,9,1,2,1,1,C,8,L,1,S,9,0.770046,0.328023,0.252593
13,23,9,8,1,2,0,I,1,S,1,S,18,0.482481,0.759959,0.366666
13,24,2,1,8,2,1,C,1,S,6,S,10,0.788799,0.355492,0.280412
13,25,1,9,1,2,1,C,8,L,1,S,10,0.326377,0.821174,0.268012
13,26,8,9,9,2,1,I,1,S,7,L,19,0.6365,0.767019,0.488207
13,27,8,2,1,8,1,I,6,S,7,L,16,0.765933,0.610105,0.467299
13,28,8,1,8,9,1,I,7,L,1,S,11,0.759923,0.422657,0.321187
13,29,8,9,8,1,1,I,1,S,7,L,18,0.616973,0.769135,0.474535
13,30,2,8,2,8,1,C,6,S,6,S,9,0.323891,0.77689,0.251628
13,31,2,1,9,1,1,C,1,S,8,L,10,0.793878,0.348432,0.276613
13,32,2,9,8,2,1,I,7,L,6,S,13,0.561952,0.751336,0.422215
13,33,8,2,1,9,1,I,6,S,8,L,16,0.762774,0.612012,0.466826
13,34,8,1,2,9,1,I,7,L,7,L,14,0.778814,0.544066,0.423726
13,35,9,8,9,2,1,C,1,S,7,L,11,0.797454,0.382564,0.305077
13,36,2,9,1,9,1,C,7,L,8,L,9,0.263708,0.855831,0.225689
13,37,9,8,8,9,0,I,1,S,1,S,15,0.470653,0.754052,0.354897
13,38,2,9,9,2,1,I,7,L,7,L,14,0.582295,0.764025,0.444888
13,39,1,8,1,8,1,C,7,L,7,L,8,0.291788,0.755253,0.220374
13,40,2,9,2,8,1,C,7,L,6,S,9,0.311482,0.793545,0.247175
13,41,8,9,8,9,1,C,1,S,1,S,11,0.383024,0.774401,0.296614
13,42,8,2,8,9,1,I,6,S,1,S,12,0.785074,0.429832,0.33745
13,43,2,1,9,2,1,C,1,S,7,L,10,0.8109,0.338201,0.274247
13,44,1,2,8,1,0,I,1,S,7,L,14,0.760845,0.501152,0.381299
13,45,9,2,1,9,1,I,7,L,8,L,14,0.765647,0.578591,0.442997
13,46,8,1,1,8,1,I,7,L,7,L,15,0.762736,0.599434,0.45721
13,47,2,1,8,1,1,C,1,S,7,L,10,0.76826,0.368265,0.282923
13,48,9,2,2,1,1,C,7,L,1,S,9,0.755524,0.337278,0.254822
13,49,8,2,2,9,1,I,6,S,7,L,14,0.754649,0.561446,0.423694
13,50,8,9,1,9,1,C,1,S,8,L,9,0.330696,0.764521,0.252824
13,51,1,9,8,2,1,I,8,L,6,S,13,0.535282,0.781429,0.418285
13,52,8,2,2,1,1,C,6,S,1,S,10,0.794434,0.340047,0.270145
13,53,2,9,9,8,1,I,7,L,1,S,11,0.397453,0.795461,0.316158
13,54,2,8,2,1,1,I,6,S,1,S,12,0.455654,0.782053,0.356346
13,55,2,9,9,1,1,I,7,L,8,L,14,0.56546,0.775358,0.438434
13,56,9,1,8,1,1,C,8,L,7,L,9,0.83436,0.279978,0.233603
13,57,2,1,2,1,1,C,1,S,1,S,11,0.75687,0.399731,0.302545
13,58,9,2,9,2,1,C,7,L,7,L,9,0.858837,0.261912,0.224939
13,59,8,1,9,2,1,C,7,L,7,L,9,0.830057,0.283518,0.235336
13,60,2,1,9,8,1,C,1,S,1,S,12,0.777763,0.405625,0.31548
13,61,9,1,1,2,1,I,8,L,1,S,10,0.775788,0.372616,0.289071
13,62,8,2,9,2,1,C,6,S,7,L,9,0.812757,0.295126,0.239866
13,63,8,9,8,2,1,I,1,S,6,S,18,0.634394,0.756378,0.479842
13,64,8,1,2,8,1,I,7,L,6,S,13,0.757493,0.533284,0.403958
13,65,2,8,8,1,1,I,6,S,7,L,14,0.556066,0.776147,0.431589
13,66,1,8,1,9,1,C,7,L,8,L,8,0.287513,0.758497,0.218078
13,67,1,8,9,8,1,I,7,L,1,S,10,0.392547,0.754022,0.295989
13,68,9,8,2,8,0,I,1,S,6,S,12,0.426726,0.766626,0.32714
13,69,2,1,2,8,1,I,1,S,6,S,20,0.759454,0.638896,0.485212
13,70,2,9,1,8,1,C,7,L,7,L,9,0.268235,0.852185,0.228586
13,71,8,1,1,9,1,I,7,L,8,L,15,0.759239,0.601757,0.456878
13,72,1,2,8,9,1,C,1,S,1,S,13,0.403068,0.791467,0.319015
13,73,2,1,1,2,1,I,1,S,1,S,14,0.751282,0.478514,0.359499
13,74,8,2,1,2,1,I,6,S,1,S,11,0.764948,0.406059,0.310614
13,75,9,1,9,2,1,C,8,L,7,L,8,0.761832,0.290887,0.221607
13,76,2,8,9,8,1,I,6,S,1,S,11,0.412492,0.775216,0.31977
13,77,1,9,9,2,1,I,8,L,7,L,13,0.556788,0.763733,0.425237
13,78,8,9,2,9,1,C,1,S,7,L,10,0.340572,0.794123,0.270456
13,79,1,2,2,1,1,I,1,S,1,S,22,0.621736,0.769631,0.478507
13,80,1,8,8,9,1,C,7,L,1,S,10,0.316601,0.829317,0.262563
13,81,2,8,8,9,1,C,6,S,1,S,10,0.345558,0.795258,0.274808
13,82,9,2,1,8,1,I,7,L,7,L,14,0.769472,0.575852,0.443102
13,83,9,8,1,9,0,I,1,S,8,L,11,0.385043,0.793198,0.305416
13,84,1,8,2,9,1,C,7,L,7,L,9,0.289699,0.814548,0.235973
13,85,2,1,8,9,1,I,1,S,1,S,16,0.755314,0.544339,0.411147
13,86,9,2,2,8,1,I,7,L,6,S,12,0.759681,0.501839,0.381237
13,87,2,9,2,9,1,C,7,L,7,L,9,0.303747,0.800821,0.243247
13,88,1,2,2,8,1,C,1,S,6,S,11,0.38409,0.77689,0.298395
13,89,8,9,1,2,1,C,1,S,1,S,12,0.380411,0.808083,0.307404
13,90,8,9,1,8,1,C,1,S,7,L,9,0.335222,0.760876,0.255062
13,91,8,9,2,1,1,I,1,S,1,S,15,0.543064,0.763704,0.41474
13,92,1,9,1,9,1,C,8,L,8,L,8,0.278817,0.770321,0.214778
