ANN,trial,N1,N2,P1,P2,Succ.,Cong,Ndist,Ndist,Pdist,Pdist,rt,a1,a2,x_acc
1,1,2,1,8,2,1,C,1,S,6,S,10,0.839082,0.305727,0.25653
1,2,9,8,9,2,1,C,1,S,7,L,11,0.801075,0.366824,0.293853
1,3,8,1,1,8,1,I,7,L,7,L,13,0.77838,0.535436,0.416773
1,4,8,1,8,9,1,I,7,L,1,S,10,0.791115,0.355083,0.280912
1,5,1,8,2,1,1,I,7,L,1,S,10,0.366364,0.784769,0.287511
1,6,2,8,1,8,1,C,6,S,7,L,9,0.300808,0.804386,0.241966
1,7,9,8,1,9,0,I,1,S,8,L,14,0.49688,0.76402,0.379626
1,8,9,2,9,8,1,C,7,L,1,S,10,0.822939,0.332343,0.273498
1,9,8,1,8,2,1,C,7,L,6,S,9,0.808412,0.294988,0.238472
1,10,1,2,2,9,1,C,1,S,7,L,11,0.415723,0.751178,0.312282
1,11,1,8,1,9,1,C,7,L,8,L,9,0.280596,0.833998,0.234017
1,12,9,2,1,9,1,I,7,L,8,L,12,0.787795,0.492196,0.38775
1,13,9,1,2,8,1,I,8,L,6,S,11,0.769528,0.478522,0.368236
1,14,9,1,2,1,1,C,8,L,1,S,9,0.788138,0.323542,0.254996
1,15,9,2,9,2,1,C,7,L,7,L,9,0.856121,0.263531,0.225614
1,16,9,2,2,9,1,I,7,L,7,L,11,0.752335,0.481072,0.361927
1,17,9,1,1,9,1,I,8,L,8,L,11,0.784612,0.459663,0.360657
1,18,9,8,9,1,1,C,1,S,8,L,10,0.755134,0.379039,0.286225
1,19,2,1,2,1,1,C,1,S,1,S,11,0.813028,0.360362,0.292984
1,20,8,2,8,9,1,I,6,S,1,S,11,0.805957,0.370999,0.299009
1,21,1,9,8,1,1,I,8,L,7,L,13,0.544473,0.754849,0.410995
1,22,9,2,8,2,1,C,7,L,6,S,9,0.829521,0.282407,0.234263
1,23,2,9,1,9,1,C,7,L,8,L,10,0.319563,0.82608,0.263984
1,24,1,9,2,1,1,I,8,L,1,S,11,0.381783,0.80271,0.306461
1,25,9,8,1,2,1,I,1,S,1,S,18,0.758466,0.543789,0.412445
1,26,1,9,8,2,1,I,8,L,6,S,13,0.515079,0.774669,0.399016
1,27,1,9,9,1,1,I,8,L,8,L,14,0.573077,0.764068,0.437869
1,28,1,2,1,2,1,C,1,S,1,S,16,0.434822,0.797275,0.346672
1,29,2,9,8,2,1,I,7,L,6,S,16,0.577429,0.773828,0.446831
1,30,9,8,1,8,0,I,1,S,7,L,13,0.468088,0.771308,0.36104
1,31,2,9,2,9,1,C,7,L,7,L,10,0.322059,0.821329,0.264516
1,32,1,2,9,8,1,I,1,S,1,S,22,0.543721,0.764985,0.415938
1,33,1,2,2,1,1,I,1,S,1,S,26,0.631688,0.761752,0.481189
1,34,9,8,2,8,0,I,1,S,6,S,13,0.470788,0.766642,0.360926
1,35,1,2,8,1,0,I,1,S,7,L,12,0.773965,0.427545,0.330905
1,36,2,9,2,1,1,I,7,L,1,S,12,0.425575,0.773485,0.329176
1,37,1,8,2,8,1,C,7,L,6,S,9,0.267845,0.849591,0.227558
1,38,1,9,9,2,1,I,8,L,7,L,14,0.551193,0.778987,0.429372
1,39,8,2,1,9,1,I,6,S,8,L,14,0.771938,0.555589,0.42888
1,40,9,2,1,8,1,I,7,L,7,L,12,0.769707,0.516032,0.397193
1,41,8,9,9,1,0,I,1,S,8,L,11,0.750375,0.422376,0.31694
1,42,2,9,1,2,1,C,7,L,1,S,11,0.385923,0.775017,0.299097
1,43,8,2,2,9,1,I,6,S,7,L,14,0.775343,0.550056,0.426482
1,44,1,8,2,9,1,C,7,L,7,L,9,0.282628,0.82991,0.234556
1,45,2,8,1,2,1,C,6,S,1,S,10,0.365979,0.767523,0.280897
1,46,8,9,8,2,0,I,1,S,6,S,13,0.768485,0.446863,0.343408
1,47,9,1,1,8,1,I,8,L,7,L,11,0.767132,0.483031,0.370549
1,48,8,1,1,9,1,I,7,L,8,L,12,0.763524,0.507986,0.387859
1,49,9,8,8,1,1,C,1,S,7,L,11,0.794718,0.373058,0.296476
1,50,1,8,9,2,1,I,7,L,7,L,12,0.511773,0.761279,0.389602
1,51,1,8,8,1,1,I,7,L,7,L,12,0.505397,0.76755,0.387917
1,52,2,1,1,9,1,I,1,S,8,L,15,0.774613,0.573011,0.443862
1,53,8,2,1,2,1,I,6,S,1,S,11,0.782463,0.396136,0.309962
1,54,1,8,8,2,1,I,7,L,6,S,12,0.476411,0.786623,0.374756
1,55,1,2,9,1,0,I,1,S,8,L,11,0.75914,0.417624,0.317035
1,56,1,9,1,2,1,C,8,L,1,S,10,0.359159,0.778965,0.279772
1,57,8,1,2,1,1,C,7,L,1,S,10,0.81353,0.335251,0.272736
1,58,1,2,8,2,0,I,1,S,6,S,13,0.782622,0.436201,0.34138
1,59,8,2,2,8,1,I,6,S,6,S,14,0.756771,0.573663,0.434132
1,60,8,9,8,1,0,I,1,S,7,L,12,0.762822,0.434843,0.331708
1,61,2,1,8,1,1,C,1,S,7,L,9,0.766227,0.328932,0.252036
1,62,2,1,9,2,1,C,1,S,7,L,9,0.771543,0.32338,0.249501
1,63,8,1,9,2,1,C,7,L,7,L,9,0.835012,0.276111,0.230556
1,64,9,1,8,1,1,C,8,L,7,L,8,0.771942,0.283398,0.218767
1,65,8,2,9,2,1,C,6,S,7,L,9,0.789792,0.310085,0.244903
1,66,9,1,9,1,1,C,8,L,8,L,8,0.791817,0.26939,0.213308
1,67,9,2,1,2,1,I,7,L,1,S,10,0.797179,0.358911,0.286116
1,68,9,1,8,2,1,C,8,L,6,S,8,0.755005,0.293893,0.221891
1,69,2,1,1,8,1,I,1,S,7,L,15,0.75728,0.594492,0.450197
1,70,2,9,9,8,1,I,7,L,1,S,12,0.399818,0.795349,0.317995
1,71,9,2,8,1,1,C,7,L,7,L,9,0.850805,0.269083,0.228937
1,72,9,8,8,2,1,C,1,S,6,S,11,0.767163,0.390799,0.299806
1,73,9,2,2,8,1,I,7,L,6,S,12,0.772292,0.511384,0.394938
1,74,2,1,2,9,1,I,1,S,7,L,14,0.750209,0.56903,0.426891
1,75,9,1,2,9,1,I,8,L,7,L,11,0.787484,0.454445,0.357868
1,76,1,9,8,9,1,C,8,L,1,S,10,0.376168,0.760995,0.286262
1,77,2,1,2,8,1,I,1,S,6,S,15,0.760028,0.590015,0.448427
1,78,2,9,9,2,1,I,7,L,7,L,17,0.601664,0.77447,0.465971
1,79,8,1,9,8,1,C,7,L,1,S,10,0.799865,0.346485,0.277141
1,80,8,1,1,2,1,I,7,L,1,S,10,0.774105,0.373054,0.288783
1,81,8,9,1,2,1,C,1,S,1,S,15,0.445542,0.768869,0.342564
1,82,2,8,8,2,1,I,6,S,6,S,13,0.523602,0.761545,0.398746
1,83,8,1,2,9,1,I,7,L,7,L,12,0.766671,0.502502,0.385253
1,84,1,9,2,9,1,C,8,L,7,L,9,0.311617,0.790851,0.246443
1,85,9,2,9,1,1,C,7,L,8,L,8,0.762732,0.290956,0.221922
1,86,2,8,2,8,1,C,6,S,6,S,9,0.302582,0.800631,0.242257
1,87,8,9,8,9,1,C,1,S,1,S,17,0.46564,0.761415,0.354545
1,88,9,8,9,8,1,C,1,S,1,S,15,0.792031,0.429523,0.340196
1,89,8,9,2,8,1,C,1,S,6,S,11,0.389002,0.780007,0.303424
1,90,2,8,2,9,1,C,6,S,7,L,9,0.317366,0.78095,0.247847
1,91,8,9,2,1,1,I,1,S,1,S,24,0.6128,0.763843,0.468084
1,92,9,1,1,2,1,I,8,L,1,S,9,0.760117,0.349927,0.265986
1,93,1,2,9,2,0,I,1,S,7,L,12,0.780341,0.421274,0.328737
1,94,8,2,8,1,1,C,6,S,7,L,9,0.784477,0.315637,0.24761
1,95,8,2,8,2,1,C,6,S,6,S,9,0.763193,0.328961,0.251061
1,96,2,1,1,2,1,I,1,S,1,S,11,0.758445,0.413405,0.313545
1,97,8,9,9,2,0,I,1,S,7,L,12,0.769198,0.428571,0.329656
1,98,9,2,8,9,1,I,7,L,1,S,10,0.814189,0.340941,0.27759
1,99,9,1,9,2,1,C,8,L,7,L,8,0.776242,0.278505,0.216187
1,100,2,1,9,1,1,C,1,S,8,L,9,0.790155,0.312257,0.246731
1,101,1,2,1,9,1,C,1,S,8,L,11,0.41285,0.756396,0.312278
1,102,2,9,2,8,1,C,7,L,6,S,9,0.341221,0.750828,0.256198
1,103,8,9,1,9,1,C,1,S,8,L,11,0.404086,0.761148,0.307569
1,104,1,8,1,8,1,C,7,L,7,L,9,0.266071,0.853346,0.22705
1,105,2,9,1,8,1,C,7,L,7,L,9,0.339447,0.754582,0.256141
1,106,2,9,8,9,1,C,7,L,1,S,12,0.382923,0.811965,0.31092
1,107,1,2,8,9,1,C,1,S,1,S,18,0.468054,0.767427,0.359197
1,108,2,8,1,9,1,C,6,S,8,L,9,0.315334,0.785038,0.247549
1,109,8,2,9,8,1,C,6,S,1,S,11,0.818188,0.358966,0.293702
1,110,1,9,1,9,1,C,8,L,8,L,9,0.309585,0.79494,0.246101
1,111,1,9,9,8,1,I,8,L,1,S,10,0.384919,0.752397,0.289611
1,112,2,8,9,1,1,I,6,S,8,L,14,0.581697,0.751146,0.436939
1,113,8,1,9,1,1,C,7,L,8,L,9,0.853624,0.264988,0.2262
1,114,8,9,9,8,1,I,1,S,1,S,20,0.510865,0.768414,0.392556
1,115,2,1,8,9,1,I,1,S,1,S,11,0.781938,0.388268,0.303602
1,116,8,9,1,8,1,C,1,S,7,L,11,0.386606,0.784516,0.303299
1,117,1,2,2,8,1,C,1,S,6,S,11,0.397766,0.775255,0.30837
1,118,1,9,1,8,1,C,8,L,7,L,9,0.295059,0.814288,0.240263
1,119,9,8,8,9,1,I,1,S,1,S,16,0.791994,0.446415,0.353558
1,120,9,1,9,8,1,C,8,L,1,S,9,0.778339,0.33126,0.257833
1,121,2,9,9,1,1,I,7,L,8,L,17,0.620663,0.760835,0.472222
1,122,9,8,2,1,1,C,1,S,1,S,14,0.7878,0.422312,0.332698
1,123,1,8,9,1,1,I,7,L,8,L,13,0.537729,0.779505,0.419163
1,124,8,2,2,1,1,C,6,S,1,S,10,0.762368,0.373345,0.284626
1,125,1,2,1,8,1,C,1,S,7,L,11,0.395371,0.779764,0.308296
1,126,8,1,8,1,1,C,7,L,7,L,9,0.829696,0.281663,0.233695
1,127,8,1,2,8,1,I,7,L,6,S,13,0.78108,0.530771,0.414574
1,128,1,8,1,2,1,C,7,L,1,S,10,0.326939,0.822572,0.268931
1,129,9,1,8,9,1,I,8,L,1,S,9,0.772176,0.3373,0.260455
1,130,2,8,9,8,1,I,6,S,1,S,11,0.370572,0.806104,0.29872
1,131,2,8,8,9,1,C,6,S,1,S,11,0.358341,0.818137,0.293172
1,132,2,9,8,1,1,I,7,L,7,L,16,0.604271,0.754455,0.455896
1,133,9,8,2,9,0,I,1,S,7,L,14,0.500286,0.758487,0.37946
1,134,8,9,2,9,1,C,1,S,7,L,11,0.406958,0.755929,0.307631
1,135,8,2,1,8,1,I,6,S,7,L,14,0.754022,0.578262,0.436022
1,136,1,8,9,8,1,I,7,L,1,S,10,0.352699,0.796004,0.28075
1,137,8,2,9,1,1,C,6,S,8,L,9,0.808405,0.298962,0.241682
1,138,1,9,2,8,1,C,8,L,6,S,9,0.296833,0.810533,0.240593
1,139,1,8,8,9,1,C,7,L,1,S,10,0.343949,0.804602,0.276742
1,140,2,1,9,8,1,C,1,S,1,S,11,0.79417,0.376235,0.298794
1,141,2,8,2,1,1,I,6,S,1,S,11,0.38943,0.79023,0.30774
1,142,9,2,2,1,1,C,7,L,1,S,9,0.755417,0.347685,0.262647
1,143,2,8,8,1,1,I,6,S,7,L,14,0.554063,0.771963,0.427717
1,144,2,8,9,2,1,I,6,S,7,L,14,0.559813,0.766065,0.428853
2,1,1,2,2,8,1,C,1,S,6,S,10,0.347267,0.786548,0.273142
2,2,1,8,9,1,1,I,7,L,8,L,14,0.566283,0.772544,0.437479
2,3,1,8,8,9,1,C,7,L,1,S,10,0.351468,0.786381,0.276388
2,4,2,9,9,2,1,I,7,L,7,L,11,0.478103,0.76601,0.366231
2,5,8,9,8,1,1,I,1,S,7,L,16,0.610837,0.750858,0.458652
2,6,9,8,1,8,0,I,1,S,7,L,11,0.414366,0.756578,0.3135
2,7,9,8,1,2,1,I,1,S,1,S,25,0.767745,0.592883,0.455182
2,8,9,2,2,8,1,I,7,L,6,S,15,0.765659,0.57774,0.442352
2,9,9,1,2,9,1,I,8,L,7,L,12,0.781261,0.480808,0.375637
2,10,8,1,9,1,1,C,7,L,8,L,8,0.75703,0.294113,0.222652
2,11,1,8,2,9,1,C,7,L,7,L,9,0.315377,0.783264,0.247024
2,12,8,2,8,1,1,C,6,S,7,L,9,0.788058,0.313946,0.247407
2,13,2,9,8,9,1,C,7,L,1,S,9,0.323249,0.782999,0.253103
2,14,2,8,1,2,1,C,6,S,1,S,10,0.361383,0.77822,0.281236
2,15,2,1,1,8,0,I,1,S,7,L,12,0.450476,0.758803,0.341823
2,16,2,9,2,1,1,I,7,L,1,S,10,0.396725,0.779287,0.309163
2,17,2,1,2,1,1,C,1,S,1,S,12,0.785453,0.401845,0.315631
2,18,1,9,9,1,1,I,8,L,8,L,11,0.495384,0.753033,0.373041
2,19,8,1,8,9,1,I,7,L,1,S,10,0.78915,0.361508,0.285284
2,20,9,8,8,2,1,C,1,S,6,S,12,0.800092,0.394301,0.315477
2,21,1,9,8,1,1,I,8,L,7,L,11,0.475034,0.767749,0.364707
2,22,1,8,1,2,1,C,7,L,1,S,10,0.359493,0.77804,0.2797
2,23,1,8,8,1,1,I,7,L,7,L,13,0.545885,0.758062,0.413814
2,24,1,9,8,2,1,I,8,L,6,S,11,0.453719,0.781743,0.354692
2,25,9,8,2,1,1,C,1,S,1,S,13,0.787732,0.420767,0.331451
2,26,9,2,8,1,1,C,7,L,7,L,9,0.769232,0.326871,0.25144
2,27,9,1,8,2,1,C,8,L,6,S,9,0.819085,0.288775,0.236532
2,28,2,8,8,2,1,I,6,S,6,S,13,0.525131,0.773962,0.406431
2,29,2,8,9,2,1,I,6,S,7,L,13,0.549286,0.755913,0.415213
2,30,9,2,1,8,1,I,7,L,7,L,16,0.768249,0.60039,0.461248
2,31,9,1,1,8,1,I,8,L,7,L,13,0.76867,0.543781,0.417988
2,32,1,8,2,1,1,I,7,L,1,S,12,0.45756,0.789205,0.361108
2,33,9,2,8,2,1,C,7,L,6,S,9,0.75202,0.337842,0.254064
2,34,8,1,2,1,1,C,7,L,1,S,9,0.792544,0.314641,0.249367
2,35,1,2,8,2,1,I,1,S,6,S,18,0.622106,0.755815,0.470197
2,36,2,8,1,8,1,C,6,S,7,L,9,0.281444,0.829783,0.233537
2,37,2,9,8,2,1,I,7,L,6,S,11,0.454423,0.783084,0.355851
2,38,2,8,9,1,1,I,6,S,8,L,14,0.567359,0.773473,0.438837
2,39,1,9,9,2,1,I,8,L,7,L,11,0.477399,0.764669,0.365052
2,40,1,2,8,9,1,C,1,S,1,S,12,0.393655,0.787047,0.309825
2,41,2,1,2,9,0,I,1,S,7,L,15,0.523909,0.753025,0.394517
2,42,1,9,1,9,1,C,8,L,8,L,8,0.277715,0.773093,0.2147
2,43,1,2,2,9,1,C,1,S,7,L,10,0.364719,0.762796,0.278206
2,44,2,8,2,8,1,C,6,S,6,S,9,0.302379,0.803407,0.242933
2,45,2,8,1,9,1,C,6,S,8,L,9,0.293073,0.813553,0.23843
2,46,8,2,9,1,1,C,6,S,8,L,9,0.80555,0.301486,0.242862
2,47,9,8,9,1,1,C,1,S,8,L,11,0.78844,0.38595,0.304299
2,48,1,2,9,2,1,I,1,S,7,L,19,0.628719,0.764996,0.480968
2,49,2,1,1,9,0,I,1,S,8,L,13,0.469139,0.764705,0.358753
2,50,9,8,9,8,1,C,1,S,1,S,26,0.754163,0.626188,0.472248
2,51,8,2,9,8,1,C,6,S,1,S,11,0.782378,0.392328,0.306949
2,52,8,2,8,9,1,I,6,S,1,S,11,0.778369,0.396624,0.30872
2,53,9,1,9,2,1,C,8,L,7,L,9,0.8384,0.274861,0.230443
2,54,9,8,2,8,0,I,1,S,6,S,12,0.428087,0.768971,0.329187
2,55,8,1,9,2,1,C,7,L,7,L,9,0.852797,0.265676,0.226568
2,56,8,1,1,9,1,I,7,L,8,L,12,0.766366,0.509768,0.390669
2,57,1,9,2,9,1,C,8,L,7,L,9,0.263271,0.855069,0.225115
2,58,1,2,8,1,1,I,1,S,7,L,19,0.628279,0.766494,0.481571
2,59,1,8,8,2,1,I,7,L,6,S,13,0.523821,0.773252,0.405046
2,60,8,2,1,8,1,I,6,S,7,L,15,0.768093,0.586572,0.450541
2,61,9,1,1,2,1,I,8,L,1,S,10,0.781358,0.36344,0.283977
2,62,8,2,2,8,1,I,6,S,6,S,14,0.764724,0.559578,0.427923
2,63,1,9,8,9,1,C,8,L,1,S,9,0.322176,0.781996,0.25194
2,64,9,8,8,9,1,I,1,S,1,S,27,0.764109,0.628049,0.479898
2,65,1,9,1,2,1,C,8,L,1,S,9,0.3279,0.776154,0.2545
2,66,2,1,1,2,1,I,1,S,1,S,17,0.778977,0.480438,0.37425
2,67,8,1,2,9,1,I,7,L,7,L,11,0.758338,0.464784,0.352463
2,68,9,8,9,2,1,C,1,S,7,L,11,0.770455,0.397585,0.306322
2,69,8,2,1,9,1,I,6,S,8,L,14,0.754054,0.571291,0.430784
2,70,9,2,2,9,1,I,7,L,7,L,14,0.758658,0.551746,0.418587
2,71,9,2,9,2,1,C,7,L,7,L,9,0.771334,0.323928,0.249857
2,72,8,9,8,9,1,C,1,S,1,S,11,0.385583,0.774126,0.29849
2,73,2,9,8,1,1,I,7,L,7,L,11,0.475738,0.76909,0.365885
2,74,9,2,8,9,1,I,7,L,1,S,11,0.753079,0.413985,0.311764
2,75,8,2,2,1,1,C,6,S,1,S,10,0.819461,0.326468,0.267528
2,76,2,9,9,8,1,I,7,L,1,S,9,0.325348,0.78085,0.254048
2,77,1,8,1,8,1,C,7,L,7,L,9,0.279467,0.829671,0.231865
2,78,8,9,9,8,1,I,1,S,1,S,11,0.389592,0.76983,0.29992
2,79,8,9,2,1,1,I,1,S,1,S,14,0.533244,0.761546,0.40609
2,80,8,9,1,8,1,C,1,S,7,L,9,0.330107,0.762915,0.251843
2,81,1,9,1,8,1,C,8,L,7,L,8,0.267844,0.786642,0.210698
2,82,9,2,9,8,1,C,7,L,1,S,11,0.757088,0.409689,0.310171
2,83,2,9,2,8,1,C,7,L,6,S,8,0.286949,0.765765,0.219736
2,84,1,9,9,8,1,I,8,L,1,S,9,0.324275,0.779847,0.252885
2,85,9,2,9,1,1,C,7,L,8,L,9,0.786724,0.314412,0.247356
2,86,8,2,8,2,1,C,6,S,6,S,9,0.770846,0.324916,0.25046
2,87,1,8,9,8,1,I,7,L,1,S,10,0.354401,0.783313,0.277607
2,88,8,1,8,1,1,C,7,L,7,L,9,0.850695,0.268619,0.228513
2,89,2,1,9,8,1,C,1,S,1,S,18,0.777002,0.51201,0.397833
2,90,2,8,2,1,1,I,6,S,1,S,12,0.459094,0.789706,0.36255
2,91,2,1,8,1,1,C,1,S,7,L,11,0.802873,0.369568,0.296716
2,92,8,1,9,8,1,C,7,L,1,S,10,0.792083,0.35844,0.283914
2,93,2,1,9,1,1,C,1,S,8,L,10,0.756212,0.380128,0.287457
2,94,1,2,2,1,1,I,1,S,1,S,16,0.580309,0.752819,0.436868
2,95,9,1,9,1,1,C,8,L,8,L,9,0.853789,0.265346,0.226549
2,96,9,1,2,1,1,C,8,L,1,S,9,0.778146,0.323826,0.251984
2,97,8,1,2,8,1,I,7,L,6,S,12,0.777421,0.497189,0.386525
2,98,2,1,8,9,1,I,1,S,1,S,18,0.760902,0.53298,0.405545
2,99,2,9,1,2,1,C,7,L,1,S,9,0.328972,0.777156,0.255663
2,100,2,1,9,2,1,C,1,S,7,L,11,0.805237,0.366488,0.29511
2,101,9,2,2,1,1,C,7,L,1,S,10,0.796921,0.341869,0.272443
2,102,8,2,9,2,1,C,6,S,7,L,9,0.79016,0.311002,0.245741
2,103,8,9,9,2,1,I,1,S,7,L,17,0.604716,0.773608,0.467813
2,104,2,9,1,8,1,C,7,L,7,L,8,0.269058,0.78749,0.21188
2,105,1,9,2,8,1,C,8,L,6,S,8,0.285736,0.764917,0.218564
2,106,1,8,9,2,1,I,7,L,7,L,13,0.547976,0.755203,0.413833
2,107,8,1,1,8,1,I,7,L,7,L,12,0.752085,0.529147,0.397963
2,108,9,1,2,8,1,I,8,L,6,S,12,0.76074,0.508564,0.386885
2,109,2,9,1,9,1,C,7,L,8,L,8,0.278928,0.773942,0.215874
2,110,1,2,1,9,1,C,1,S,8,L,10,0.337012,0.798132,0.26898
2,111,8,9,2,9,1,C,1,S,7,L,10,0.333727,0.804196,0.268382
2,112,2,8,9,8,1,I,6,S,1,S,10,0.356291,0.783493,0.279151
2,113,9,8,8,1,1,C,1,S,7,L,11,0.768091,0.400665,0.307747
2,114,8,2,1,2,1,I,6,S,1,S,11,0.789394,0.384934,0.303865
2,115,1,2,9,1,1,I,1,S,8,L,19,0.642059,0.755084,0.484808
2,116,8,1,1,2,1,I,7,L,1,S,10,0.797175,0.353167,0.281536
2,117,9,1,8,9,1,I,8,L,1,S,10,0.773333,0.371781,0.28751
2,118,9,1,8,1,1,C,8,L,7,L,9,0.836297,0.277805,0.232327
2,119,9,2,1,2,1,I,7,L,1,S,11,0.764104,0.402295,0.307395
2,120,2,1,8,2,1,C,1,S,6,S,11,0.781558,0.383562,0.299776
2,121,2,8,2,9,1,C,6,S,7,L,9,0.317354,0.783375,0.248608
2,122,2,8,8,9,1,C,6,S,1,S,10,0.353358,0.786561,0.277938
2,123,9,8,2,9,0,I,1,S,7,L,13,0.436849,0.780042,0.340761
2,124,1,2,9,8,1,I,1,S,1,S,12,0.399018,0.78114,0.311689
2,125,2,1,2,8,0,I,1,S,6,S,13,0.480119,0.752394,0.361239
2,126,8,1,8,2,1,C,7,L,6,S,9,0.833483,0.27959,0.233033
2,127,1,8,2,8,1,C,7,L,6,S,9,0.300402,0.803295,0.241311
2,128,9,2,1,9,1,I,7,L,8,L,15,0.755471,0.588651,0.444708
2,129,1,9,2,1,1,I,8,L,1,S,10,0.395829,0.778116,0.308001
2,130,8,2,2,9,1,I,6,S,7,L,13,0.755243,0.530387,0.400571
2,131,1,2,1,8,1,C,1,S,7,L,10,0.324047,0.816242,0.264501
2,132,2,9,2,9,1,C,7,L,7,L,8,0.299035,0.750101,0.224307
2,133,9,1,9,8,1,C,8,L,1,S,10,0.776266,0.368713,0.286219
2,134,8,9,1,9,1,C,1,S,8,L,10,0.30602,0.839532,0.256914
2,135,8,9,9,1,1,I,1,S,8,L,17,0.619768,0.762566,0.472614
2,136,2,8,8,1,1,I,6,S,7,L,13,0.547195,0.758772,0.415196
2,137,2,9,9,1,1,I,7,L,8,L,11,0.496088,0.754375,0.374236
2,138,8,9,8,2,1,I,1,S,6,S,16,0.591128,0.765334,0.452411
2,139,9,1,1,9,1,I,8,L,8,L,13,0.78302,0.524719,0.410866
2,140,8,9,2,8,1,C,1,S,6,S,10,0.316275,0.827948,0.261859
2,141,9,8,1,9,0,I,1,S,8,L,12,0.417033,0.781551,0.325933
2,142,1,8,1,9,1,C,7,L,8,L,9,0.291096,0.813441,0.236789
2,143,1,2,1,2,1,C,1,S,1,S,12,0.408511,0.770925,0.314931
2,144,8,9,1,2,1,C,1,S,1,S,11,0.396609,0.762436,0.302389
3,1,9,1,1,2,1,I,8,L,1,S,11,0.754353,0.436493,0.329269
3,2,8,9,2,9,1,C,1,S,7,L,11,0.386667,0.7828,0.302683
3,3,2,1,2,8,1,I,1,S,6,S,21,0.766316,0.634955,0.486576
3,4,1,9,2,1,1,I,8,L,1,S,11,0.429975,0.75109,0.32295
3,5,2,9,9,2,1,I,7,L,7,L,14,0.536774,0.763766,0.40997
3,6,9,8,2,1,0,C,1,S,1,S,19,0.583007,0.770636,0.449286
3,7,2,1,8,1,1,C,1,S,7,L,10,0.804363,0.330786,0.266072
3,8,9,2,8,9,1,I,7,L,1,S,11,0.798182,0.370739,0.295917
3,9,9,1,8,1,1,C,8,L,7,L,9,0.844213,0.265238,0.223917
3,10,2,9,1,2,1,C,7,L,1,S,10,0.353256,0.774543,0.273612
3,11,1,9,2,8,1,C,8,L,6,S,9,0.307647,0.792556,0.243828
3,12,1,2,1,2,1,C,1,S,1,S,12,0.370487,0.810943,0.300444
3,13,1,9,1,8,1,C,8,L,7,L,9,0.31809,0.776784,0.247087
3,14,1,8,8,9,1,C,7,L,1,S,10,0.354163,0.791611,0.280359
3,15,1,8,2,1,1,I,7,L,1,S,11,0.391482,0.804107,0.314794
3,16,1,2,9,8,1,I,1,S,1,S,16,0.494131,0.777693,0.384282
3,17,1,9,8,1,1,I,8,L,7,L,15,0.591816,0.765999,0.45333
3,18,8,9,1,2,1,C,1,S,1,S,13,0.416797,0.78294,0.326327
3,19,2,8,9,2,1,I,6,S,7,L,12,0.479056,0.768048,0.367938
3,20,2,9,2,8,1,C,7,L,6,S,9,0.333613,0.757874,0.252837
3,21,8,2,9,1,1,C,6,S,8,L,9,0.777957,0.318263,0.247595
3,22,1,2,9,1,0,I,1,S,8,L,13,0.750302,0.499318,0.374639
3,23,2,1,1,2,1,I,1,S,1,S,18,0.760107,0.58998,0.448448
3,24,2,9,9,8,1,I,7,L,1,S,12,0.412296,0.791252,0.32623
3,25,9,8,2,9,0,I,1,S,7,L,10,0.368194,0.762767,0.280846
3,26,2,9,1,9,1,C,7,L,8,L,9,0.336082,0.752407,0.252871
3,27,1,8,2,9,1,C,7,L,7,L,9,0.268658,0.845934,0.227267
3,28,2,9,8,9,1,C,7,L,1,S,11,0.401813,0.76143,0.305953
3,29,2,9,8,1,1,I,7,L,7,L,17,0.613541,0.770994,0.473037
3,30,1,8,8,2,1,I,7,L,6,S,11,0.45379,0.75823,0.344077
3,31,9,1,1,9,1,I,8,L,8,L,13,0.763628,0.531636,0.405972
3,32,8,1,9,2,1,C,7,L,7,L,10,0.836877,0.305374,0.255561
3,33,1,8,9,1,1,I,7,L,8,L,13,0.555154,0.761467,0.422732
3,34,9,8,8,2,0,C,1,S,6,S,21,0.632006,0.761189,0.481076
3,35,1,9,9,1,1,I,8,L,8,L,15,0.591414,0.766748,0.453465
3,36,9,8,1,8,0,I,1,S,7,L,11,0.359177,0.806028,0.289506
3,37,2,9,1,8,1,C,7,L,7,L,10,0.308176,0.83526,0.257407
3,38,2,1,1,9,1,I,1,S,8,L,21,0.769837,0.629421,0.484551
3,39,1,8,1,8,1,C,7,L,7,L,9,0.286251,0.820833,0.234965
3,40,9,2,1,2,1,I,7,L,1,S,12,0.751562,0.472286,0.354952
3,41,8,9,2,1,1,I,1,S,1,S,26,0.649684,0.750876,0.487833
3,42,8,9,9,2,0,I,1,S,7,L,14,0.771507,0.463289,0.357431
3,43,2,9,2,1,1,I,7,L,1,S,13,0.456845,0.788464,0.360205
3,44,2,1,2,9,1,I,1,S,7,L,21,0.760894,0.640985,0.487722
3,45,1,2,8,1,0,I,1,S,7,L,13,0.75089,0.498418,0.374258
3,46,2,8,8,2,1,I,6,S,6,S,12,0.481977,0.765294,0.368854
3,47,9,2,1,9,1,I,7,L,8,L,15,0.776326,0.567319,0.440425
3,48,2,1,8,2,1,C,1,S,6,S,11,0.79366,0.362498,0.2877
3,49,8,1,2,1,1,C,7,L,1,S,10,0.788935,0.340732,0.268815
3,50,8,2,1,2,1,I,6,S,1,S,14,0.774965,0.509284,0.394677
3,51,8,1,1,9,1,I,7,L,8,L,14,0.762449,0.557091,0.424753
3,52,8,2,8,9,1,I,6,S,1,S,11,0.756503,0.402208,0.304272
3,53,9,2,9,1,1,C,7,L,8,L,9,0.807971,0.294562,0.237997
3,54,8,2,2,1,1,C,6,S,1,S,11,0.818628,0.345402,0.282755
3,55,8,2,1,8,1,I,6,S,7,L,16,0.768533,0.586143,0.45047
3,56,8,9,8,2,0,I,1,S,6,S,14,0.774488,0.460476,0.356633
3,57,1,9,8,9,1,C,8,L,1,S,11,0.36785,0.807897,0.297185
3,58,8,9,2,8,1,C,1,S,6,S,11,0.395099,0.771747,0.304916
3,59,2,8,1,8,1,C,6,S,7,L,9,0.306373,0.79278,0.242886
3,60,1,9,2,9,1,C,8,L,7,L,9,0.300497,0.801885,0.240964
3,61,8,1,8,1,1,C,7,L,7,L,9,0.819288,0.284135,0.232788
3,62,9,1,8,9,1,I,8,L,1,S,10,0.772464,0.362053,0.279673
3,63,1,2,8,2,1,I,1,S,6,S,21,0.623334,0.770155,0.480064
3,64,9,1,2,8,1,I,8,L,6,S,13,0.759573,0.538824,0.409276
3,65,8,1,8,2,1,C,7,L,6,S,10,0.839159,0.30303,0.25429
3,66,9,1,9,2,1,C,8,L,7,L,9,0.768726,0.322271,0.247738
3,67,1,8,9,2,1,I,7,L,7,L,11,0.451117,0.760823,0.34322
3,68,8,9,9,8,1,I,1,S,1,S,24,0.624776,0.75274,0.470294
3,69,1,9,9,2,1,I,8,L,7,L,13,0.497304,0.782655,0.389218
3,70,8,2,8,2,1,C,6,S,6,S,10,0.790091,0.341685,0.269962
3,71,2,8,1,9,1,C,6,S,8,L,9,0.298399,0.803085,0.23964
3,72,9,8,9,2,0,C,1,S,7,L,21,0.630604,0.762876,0.481072
3,73,2,9,9,1,1,I,7,L,8,L,17,0.613329,0.771583,0.473234
3,74,1,8,1,2,1,C,7,L,1,S,9,0.323461,0.771928,0.249689
3,75,1,9,9,8,1,I,8,L,1,S,11,0.393447,0.785266,0.308961
3,76,8,9,9,1,0,I,1,S,8,L,11,0.764392,0.411283,0.314382
3,77,9,8,8,9,0,I,1,S,1,S,14,0.453542,0.757604,0.343605
3,78,9,2,1,8,1,I,7,L,7,L,14,0.758958,0.556087,0.422046
3,79,8,9,8,1,0,I,1,S,7,L,11,0.765115,0.410278,0.313909
3,80,2,8,2,1,1,I,6,S,1,S,11,0.415479,0.770987,0.320328
3,81,1,2,2,8,1,C,1,S,6,S,10,0.371154,0.756249,0.280685
3,82,8,2,1,9,1,I,6,S,8,L,16,0.759052,0.597567,0.453585
3,83,2,8,9,1,1,I,6,S,8,L,14,0.579605,0.758707,0.43975
3,84,1,2,1,9,1,C,1,S,8,L,11,0.343241,0.824417,0.282974
3,85,9,1,9,8,1,C,8,L,1,S,10,0.790901,0.345862,0.273543
3,86,2,1,2,1,1,C,1,S,1,S,12,0.800701,0.374473,0.299841
3,87,2,9,8,2,1,I,7,L,6,S,14,0.539755,0.760953,0.410728
3,88,9,2,8,2,1,C,7,L,6,S,10,0.826691,0.313658,0.259298
3,89,8,2,9,2,1,C,6,S,7,L,10,0.787809,0.344029,0.271029
3,90,8,1,2,9,1,I,7,L,7,L,15,0.776871,0.572817,0.445005
3,91,8,1,9,8,1,C,7,L,1,S,10,0.762362,0.36719,0.279931
3,92,1,9,8,2,1,I,8,L,6,S,13,0.500321,0.779831,0.390166
3,93,2,1,1,8,1,I,1,S,7,L,20,0.754535,0.634602,0.478829
3,94,9,2,9,2,1,C,7,L,7,L,10,0.824409,0.316002,0.260515
3,95,2,1,8,9,1,I,1,S,1,S,13,0.769412,0.423591,0.325916
3,96,1,8,1,9,1,C,7,L,8,L,9,0.278278,0.831139,0.231287
3,97,1,8,9,8,1,I,7,L,1,S,10,0.3726,0.77542,0.288921
3,98,9,1,2,9,1,I,8,L,7,L,13,0.750904,0.549809,0.412854
3,99,1,9,1,9,1,C,8,L,8,L,9,0.310117,0.787089,0.244089
3,100,9,2,9,8,1,C,7,L,1,S,11,0.823779,0.348108,0.286764
3,101,8,9,1,8,1,C,1,S,7,L,11,0.408375,0.752054,0.30712
3,102,1,2,1,8,1,C,1,S,7,L,11,0.353021,0.811519,0.286483
3,103,9,8,1,2,0,I,1,S,1,S,12,0.377862,0.803717,0.303695
3,104,9,1,8,2,1,C,8,L,6,S,9,0.770521,0.320249,0.246759
3,105,9,2,2,8,1,I,7,L,6,S,15,0.772124,0.574301,0.443432
3,106,2,1,9,2,1,C,1,S,7,L,11,0.790987,0.365091,0.288783
3,107,1,8,2,8,1,C,7,L,6,S,9,0.275808,0.836606,0.230743
3,108,2,8,8,9,1,C,6,S,1,S,10,0.376624,0.76027,0.286336
3,109,2,8,8,1,1,I,6,S,7,L,14,0.580102,0.757881,0.439648
3,110,8,2,8,1,1,C,6,S,7,L,9,0.778674,0.31725,0.247034
3,111,9,1,1,8,1,I,8,L,7,L,13,0.773952,0.518385,0.401205
3,112,9,2,2,1,1,C,7,L,1,S,10,0.776467,0.351359,0.272819
3,113,9,1,9,1,1,C,8,L,8,L,9,0.843496,0.266251,0.224582
3,114,1,2,8,9,1,C,1,S,1,S,14,0.444098,0.768004,0.341069
3,115,8,1,8,9,1,I,7,L,1,S,11,0.811866,0.359273,0.291682
3,116,1,8,8,1,1,I,7,L,7,L,13,0.555742,0.760568,0.42268
3,117,8,1,1,8,1,I,7,L,7,L,14,0.772659,0.544252,0.420521
3,118,8,1,1,2,1,I,7,L,1,S,12,0.765784,0.460368,0.352543
3,119,2,1,9,1,1,C,1,S,8,L,10,0.803619,0.331812,0.26665
3,120,8,9,1,9,1,C,1,S,8,L,11,0.398595,0.764953,0.304906
3,121,8,9,8,9,1,C,1,S,1,S,19,0.484241,0.770072,0.372901
3,122,1,9,1,2,1,C,8,L,1,S,10,0.322779,0.816041,0.263401
3,123,9,2,8,1,1,C,7,L,7,L,9,0.808688,0.293549,0.237389
3,124,9,1,2,1,1,C,8,L,1,S,10,0.817475,0.319404,0.261105
3,125,9,8,9,1,1,C,1,S,8,L,13,0.758814,0.490375,0.372103
3,126,8,2,9,8,1,C,6,S,1,S,11,0.7821,0.379577,0.296867
3,127,8,1,9,1,1,C,7,L,8,L,9,0.818571,0.285148,0.233414
3,128,8,2,2,9,1,I,6,S,7,L,17,0.771963,0.606169,0.46794
3,129,1,2,2,1,1,I,1,S,1,S,18,0.578021,0.758105,0.4382
3,130,8,1,2,8,1,I,7,L,6,S,14,0.758278,0.564226,0.42784
3,131,9,8,9,8,0,C,1,S,1,S,16,0.50456,0.765813,0.386399
3,132,2,8,9,8,1,I,6,S,1,S,11,0.378951,0.805162,0.305117
3,133,9,8,1,9,0,I,1,S,8,L,11,0.349397,0.818926,0.28613
3,134,1,2,2,9,1,C,1,S,7,L,10,0.363221,0.766701,0.278482
3,135,9,8,2,8,0,I,1,S,6,S,10,0.376127,0.752315,0.282966
3,136,2,9,2,9,1,C,7,L,7,L,9,0.326463,0.767202,0.250463
3,137,9,8,8,1,1,C,1,S,7,L,13,0.759402,0.489476,0.371709
3,138,1,2,9,2,1,I,1,S,7,L,21,0.621932,0.771842,0.480033
3,139,2,8,2,9,1,C,6,S,7,L,9,0.28878,0.817881,0.236187
3,140,2,1,9,8,1,C,1,S,1,S,12,0.752546,0.417147,0.313922
3,141,8,2,2,8,1,I,6,S,6,S,16,0.754886,0.604337,0.456205
3,142,2,8,2,8,1,C,6,S,6,S,9,0.29593,0.808552,0.239275
3,143,9,2,2,9,1,I,7,L,7,L,15,0.763937,0.584244,0.446326
3,144,2,8,1,2,1,C,6,S,1,S,10,0.309432,0.834438,0.258202
4,1,9,8,9,8,1,C,1,S,1,S,16,0.757893,0.461819,0.350009
4,2,8,9,9,2,1,I,1,S,7,L,21,0.640765,0.763487,0.489215
4,3,9,2,8,9,1,I,7,L,1,S,12,0.790822,0.404971,0.32026
4,4,1,8,2,8,1,C,7,L,6,S,8,0.281451,0.770055,0.216733
4,5,9,8,2,1,1,C,1,S,1,S,14,0.767891,0.440126,0.337969
4,6,9,2,8,2,1,C,7,L,6,S,10,0.818729,0.322268,0.26385
4,7,2,9,2,8,1,C,7,L,6,S,9,0.297844,0.804724,0.239682
4,8,2,8,9,8,1,I,6,S,1,S,12,0.406906,0.79453,0.323299
4,9,1,2,2,1,1,I,1,S,1,S,11,0.431538,0.751135,0.324143
4,10,2,8,9,2,1,I,6,S,7,L,15,0.585006,0.754428,0.441345
4,11,2,9,2,1,1,I,7,L,1,S,12,0.438777,0.777898,0.341324
4,12,2,8,1,2,1,C,6,S,1,S,10,0.362777,0.764324,0.277279
4,13,9,1,1,2,1,I,8,L,1,S,11,0.776987,0.420692,0.326872
4,14,1,8,1,9,1,C,7,L,8,L,8,0.288479,0.759844,0.219199
4,15,1,8,2,1,1,I,7,L,1,S,10,0.384678,0.770711,0.296475
4,16,8,1,2,9,1,I,7,L,7,L,14,0.761656,0.584155,0.444925
4,17,1,9,1,8,1,C,8,L,7,L,8,0.285592,0.76133,0.217429
4,18,8,2,8,9,1,I,6,S,1,S,12,0.761117,0.430618,0.327751
4,19,1,2,8,2,1,I,1,S,6,S,13,0.541441,0.750352,0.406271
4,20,2,1,1,9,1,I,1,S,8,L,18,0.767335,0.623187,0.478193
4,21,8,9,1,8,1,C,1,S,7,L,10,0.363275,0.767601,0.278851
4,22,2,1,9,8,1,C,1,S,1,S,11,0.751857,0.405168,0.304628
4,23,1,2,9,1,1,I,1,S,8,L,16,0.608323,0.775033,0.47147
4,24,1,9,8,2,1,I,8,L,6,S,11,0.463157,0.768491,0.355932
4,25,8,1,8,9,1,I,7,L,1,S,10,0.761406,0.382016,0.290869
4,26,8,2,9,1,1,C,6,S,8,L,9,0.781905,0.322542,0.252197
4,27,8,2,2,8,1,I,6,S,6,S,18,0.754094,0.63866,0.48161
4,28,8,2,8,2,1,C,6,S,6,S,10,0.796604,0.342937,0.273185
4,29,1,2,8,1,1,I,1,S,7,L,15,0.612836,0.750534,0.459954
4,30,9,1,8,1,1,C,8,L,7,L,8,0.76498,0.285737,0.218583
4,31,1,8,9,8,1,I,7,L,1,S,10,0.353642,0.799566,0.28276
4,32,8,9,2,9,1,C,1,S,7,L,10,0.339016,0.804468,0.272728
4,33,8,1,1,8,1,I,7,L,7,L,13,0.758063,0.547194,0.414807
4,34,8,1,9,1,1,C,7,L,8,L,8,0.758153,0.294719,0.223442
4,35,9,1,1,9,1,I,8,L,8,L,13,0.760139,0.549355,0.417586
4,36,2,9,8,9,1,C,7,L,1,S,11,0.363916,0.806941,0.293659
4,37,2,9,8,1,1,I,7,L,7,L,16,0.619533,0.757601,0.469359
4,38,9,8,8,2,1,C,1,S,6,S,12,0.791878,0.40008,0.316815
4,39,1,9,9,8,1,I,8,L,1,S,10,0.342832,0.81328,0.278818
4,40,2,8,2,8,1,C,6,S,6,S,9,0.315367,0.783298,0.247026
4,41,2,9,9,8,1,I,7,L,1,S,11,0.401159,0.770042,0.308909
4,42,9,1,2,9,1,I,8,L,7,L,14,0.772504,0.572985,0.442633
4,43,8,1,2,1,1,C,7,L,1,S,10,0.819019,0.326663,0.267543
4,44,9,2,2,9,1,I,7,L,7,L,18,0.772713,0.623849,0.482056
4,45,8,2,9,8,1,C,6,S,1,S,12,0.812562,0.379977,0.308754
4,46,9,1,1,8,1,I,8,L,7,L,13,0.769717,0.535509,0.41219
4,47,1,9,9,2,1,I,8,L,7,L,11,0.466958,0.766465,0.357907
4,48,9,8,9,2,1,C,1,S,7,L,12,0.795904,0.397835,0.316638
4,49,9,1,8,2,1,C,8,L,6,S,9,0.808295,0.297489,0.240459
4,50,2,9,9,2,1,I,7,L,7,L,14,0.560951,0.757905,0.425147
4,51,2,9,1,8,1,C,7,L,7,L,9,0.313416,0.781138,0.244821
4,52,9,1,9,8,1,C,8,L,1,S,10,0.799758,0.343886,0.275026
4,53,8,9,8,9,1,C,1,S,1,S,13,0.424977,0.772079,0.328116
4,54,9,8,9,1,1,C,1,S,8,L,10,0.762835,0.377679,0.288106
4,55,8,2,1,2,1,I,6,S,1,S,14,0.75009,0.527053,0.395338
4,56,8,9,9,8,1,I,1,S,1,S,15,0.472195,0.777281,0.367028
4,57,2,8,2,1,1,I,6,S,1,S,13,0.459683,0.786133,0.361372
4,58,2,1,2,1,1,C,1,S,1,S,11,0.794436,0.367236,0.291746
4,59,8,1,2,8,1,I,7,L,6,S,14,0.769093,0.573566,0.441125
4,60,1,2,9,8,1,I,1,S,1,S,11,0.388959,0.789066,0.306914
4,61,9,1,2,8,1,I,8,L,6,S,13,0.750425,0.562532,0.422139
4,62,2,9,1,9,1,C,7,L,8,L,9,0.305998,0.792837,0.242606
4,63,8,1,1,9,1,I,7,L,8,L,14,0.778621,0.560916,0.436741
4,64,9,2,8,1,1,C,7,L,7,L,9,0.796861,0.306119,0.243934
4,65,9,8,8,1,1,C,1,S,7,L,10,0.760543,0.378679,0.288002
4,66,2,1,8,2,1,C,1,S,6,S,10,0.801364,0.337711,0.27063
4,67,1,2,8,9,1,C,1,S,1,S,10,0.379023,0.754599,0.286011
4,68,1,9,2,9,1,C,8,L,7,L,8,0.267012,0.790207,0.210995
4,69,1,9,9,1,1,I,8,L,8,L,13,0.553146,0.77788,0.430281
4,70,1,8,8,1,1,I,7,L,7,L,13,0.561702,0.765945,0.430233
4,71,2,1,9,1,1,C,1,S,8,L,9,0.785485,0.318128,0.249885
4,72,1,9,8,1,1,I,8,L,7,L,13,0.550766,0.779113,0.429109
4,73,2,1,1,2,1,I,1,S,1,S,14,0.757194,0.520302,0.39397
4,74,8,2,1,9,1,I,6,S,8,L,18,0.761956,0.628811,0.479127
4,75,2,8,8,1,1,I,6,S,7,L,17,0.633801,0.75469,0.478323
4,76,9,2,9,8,1,C,7,L,1,S,11,0.772567,0.387536,0.299398
4,77,1,8,2,9,1,C,7,L,7,L,8,0.276086,0.778892,0.215041
4,78,9,2,9,2,1,C,7,L,7,L,10,0.822156,0.320535,0.26353
4,79,8,9,9,1,0,I,1,S,8,L,12,0.753635,0.476215,0.358892
4,80,9,8,2,9,0,I,1,S,7,L,11,0.394543,0.781435,0.30831
4,81,8,9,1,2,1,C,1,S,1,S,12,0.374119,0.810931,0.303385
4,82,1,9,1,9,1,C,8,L,8,L,8,0.279405,0.771159,0.215466
4,83,2,1,1,8,1,I,1,S,7,L,17,0.75111,0.622054,0.467231
4,84,2,1,9,2,1,C,1,S,7,L,10,0.804791,0.335978,0.270393
4,85,9,8,1,8,0,I,1,S,7,L,12,0.408635,0.787552,0.321822
4,86,1,9,8,9,1,C,8,L,1,S,9,0.340986,0.760504,0.259321
4,87,9,2,2,8,1,I,7,L,6,S,17,0.755485,0.625234,0.472355
4,88,8,1,8,1,1,C,7,L,7,L,8,0.756234,0.295396,0.223389
4,89,8,1,1,2,1,I,7,L,1,S,11,0.764719,0.432682,0.33088
4,90,2,1,8,1,1,C,1,S,7,L,9,0.783339,0.318983,0.249872
4,91,2,9,8,2,1,I,7,L,6,S,14,0.556843,0.760376,0.42341
4,92,8,9,8,1,0,I,1,S,7,L,12,0.751243,0.477402,0.358645
4,93,1,8,1,8,1,C,7,L,7,L,8,0.294666,0.750015,0.221004
4,94,8,1,9,8,1,C,7,L,1,S,10,0.787983,0.355518,0.280142
4,95,2,1,8,9,1,I,1,S,1,S,12,0.767717,0.424212,0.325675
4,96,9,8,1,2,0,I,1,S,1,S,15,0.464202,0.771231,0.358007
4,97,2,8,8,9,1,C,6,S,1,S,11,0.386824,0.77743,0.300728
4,98,8,9,2,8,1,C,1,S,6,S,10,0.345914,0.793587,0.274513
4,99,8,2,9,2,1,C,6,S,7,L,10,0.800031,0.341204,0.272974
4,100,1,2,2,8,1,C,1,S,6,S,9,0.288784,0.81928,0.236595
4,101,9,2,1,2,1,I,7,L,1,S,14,0.781803,0.499744,0.390701
4,102,1,8,1,2,1,C,7,L,1,S,9,0.315871,0.785371,0.248076
4,103,1,8,9,2,1,I,7,L,7,L,11,0.478088,0.752518,0.35977
4,104,8,2,2,1,1,C,6,S,1,S,11,0.788616,0.373148,0.294271
4,105,1,2,1,8,1,C,1,S,7,L,9,0.304356,0.795693,0.242174
4,106,1,9,1,2,1,C,8,L,1,S,9,0.305738,0.798237,0.244051
4,107,1,9,2,8,1,C,8,L,6,S,8,0.272377,0.78137,0.212827
4,108,9,8,2,8,0,I,1,S,6,S,11,0.401855,0.770214,0.309514
4,109,9,1,8,9,1,I,8,L,1,S,10,0.77318,0.370384,0.286374
4,110,8,1,9,2,1,C,7,L,7,L,9,0.800626,0.306963,0.245763
4,111,8,9,2,1,1,I,1,S,1,S,17,0.570099,0.752257,0.428861
4,112,9,2,2,1,1,C,7,L,1,S,11,0.815147,0.349605,0.284979
4,113,9,2,1,9,1,I,7,L,8,L,17,0.763832,0.614677,0.46951
4,114,2,8,9,1,1,I,6,S,8,L,17,0.635988,0.753453,0.479188
4,115,9,2,9,1,1,C,7,L,8,L,9,0.799007,0.305264,0.243908
4,116,2,8,1,9,1,C,6,S,8,L,9,0.323521,0.771411,0.249567
4,117,9,1,2,1,1,C,8,L,1,S,10,0.830794,0.315032,0.261726
4,118,2,8,2,9,1,C,6,S,7,L,9,0.309118,0.7934,0.245254
4,119,9,8,1,9,0,I,1,S,8,L,11,0.411341,0.756755,0.311284
4,120,8,2,2,9,1,I,6,S,7,L,19,0.771737,0.634547,0.489703
4,121,1,2,9,2,1,I,1,S,7,L,14,0.547052,0.778074,0.425647
4,122,8,9,8,2,1,I,1,S,6,S,21,0.637665,0.765535,0.488155
4,123,1,2,2,9,1,C,1,S,7,L,9,0.282535,0.829381,0.23433
4,124,2,9,2,9,1,C,7,L,7,L,9,0.291595,0.814826,0.237599
4,125,2,9,1,2,1,C,7,L,1,S,10,0.342225,0.790363,0.270482
4,126,9,1,9,2,1,C,8,L,7,L,9,0.811216,0.296107,0.240207
4,127,1,8,8,2,1,I,7,L,6,S,11,0.474288,0.754544,0.357871
4,128,1,2,1,2,1,C,1,S,1,S,10,0.33141,0.807522,0.267621
4,129,8,2,8,1,1,C,6,S,7,L,9,0.779759,0.323397,0.252171
4,130,2,8,1,8,1,C,6,S,7,L,9,0.330939,0.759712,0.251418
4,131,1,2,1,9,1,C,1,S,8,L,9,0.296938,0.807392,0.239745
4,132,2,9,9,1,1,I,7,L,8,L,16,0.621777,0.756347,0.470279
4,133,8,9,1,9,1,C,1,S,8,L,10,0.354889,0.780624,0.277035
4,134,9,1,9,1,1,C,8,L,8,L,8,0.766898,0.28506,0.218612
4,135,1,8,9,1,1,I,7,L,8,L,13,0.564082,0.764711,0.43136
4,136,2,8,8,2,1,I,6,S,6,S,15,0.580979,0.756923,0.439756
4,137,2,1,2,9,1,I,1,S,7,L,18,0.753161,0.641609,0.483235
4,138,2,1,2,8,1,I,1,S,6,S,18,0.759474,0.633035,0.480774
4,139,9,2,1,8,1,I,7,L,7,L,17,0.772399,0.603177,0.465893
4,140,1,9,2,1,1,I,8,L,1,S,10,0.373868,0.784425,0.293272
4,141,1,8,8,9,1,C,7,L,1,S,10,0.327064,0.826064,0.270176
4,142,9,8,8,9,1,I,1,S,1,S,26,0.752403,0.619853,0.466379
4,143,8,1,8,2,1,C,7,L,6,S,9,0.797705,0.308345,0.245968
4,144,8,2,1,8,1,I,6,S,7,L,18,0.770083,0.618002,0.475913
5,1,9,2,1,8,1,I,7,L,7,L,18,0.76017,0.63183,0.480298
5,2,9,2,1,9,1,I,7,L,8,L,17,0.765712,0.606432,0.464352
5,3,9,8,8,2,0,C,1,S,6,S,19,0.628188,0.769554,0.483425
5,4,8,1,8,2,1,C,7,L,6,S,9,0.829333,0.27884,0.231251
5,5,8,1,1,2,1,I,7,L,1,S,11,0.807442,0.378317,0.305469
5,6,2,8,8,2,1,I,6,S,6,S,12,0.507477,0.775552,0.393575
5,7,1,8,8,1,1,I,7,L,7,L,12,0.533224,0.753331,0.401694
5,8,1,9,2,1,1,I,8,L,1,S,10,0.383969,0.764875,0.293688
5,9,1,9,2,9,1,C,8,L,7,L,9,0.28528,0.823848,0.235027
5,10,8,9,8,2,1,I,1,S,6,S,21,0.631764,0.771909,0.487664
5,11,2,1,8,2,1,C,1,S,6,S,11,0.788689,0.381647,0.301001
5,12,8,2,1,8,1,I,6,S,7,L,18,0.752331,0.634771,0.477557
5,13,1,9,1,8,1,C,8,L,7,L,8,0.28443,0.764614,0.217479
5,14,2,1,9,8,1,C,1,S,1,S,25,0.761533,0.641772,0.488731
5,15,9,1,1,9,1,I,8,L,8,L,12,0.753133,0.513802,0.386961
5,16,2,8,1,8,1,C,6,S,7,L,8,0.27782,0.776163,0.215634
5,17,2,8,2,9,1,C,6,S,7,L,9,0.27745,0.837152,0.232268
5,18,9,2,9,8,1,C,7,L,1,S,14,0.76862,0.506495,0.389302
5,19,2,1,8,9,1,I,1,S,1,S,13,0.794195,0.409257,0.32503
5,20,9,1,2,9,1,I,8,L,7,L,12,0.76598,0.496161,0.380049
5,21,1,8,1,9,1,C,7,L,8,L,9,0.271249,0.846231,0.229539
5,22,9,8,2,8,0,I,1,S,6,S,10,0.321303,0.823032,0.264443
5,23,2,9,2,9,1,C,7,L,7,L,9,0.281881,0.82796,0.233386
5,24,2,8,9,1,1,I,6,S,8,L,12,0.515831,0.768049,0.396184
5,25,9,1,9,1,1,C,8,L,8,L,9,0.841178,0.272524,0.229241
5,26,8,1,2,8,1,I,7,L,6,S,13,0.751926,0.555007,0.417324
5,27,8,9,8,1,1,I,1,S,7,L,21,0.642771,0.761332,0.489362
5,28,1,8,1,2,1,C,7,L,1,S,9,0.3368,0.763097,0.257011
5,29,1,2,1,8,1,C,1,S,7,L,9,0.328529,0.766887,0.251945
5,30,9,1,8,1,1,C,8,L,7,L,9,0.853427,0.263509,0.224886
5,31,2,1,8,1,1,C,1,S,7,L,11,0.810923,0.36386,0.295062
5,32,2,1,9,1,1,C,1,S,8,L,11,0.797094,0.37418,0.298257
5,33,2,8,8,1,1,I,6,S,7,L,12,0.529642,0.757546,0.401228
5,34,9,8,9,2,0,C,1,S,7,L,18,0.62684,0.756558,0.474241
5,35,9,2,2,9,1,I,7,L,7,L,16,0.752608,0.59756,0.449728
5,36,9,2,8,9,1,I,7,L,1,S,11,0.822288,0.346793,0.285164
5,37,1,9,2,8,1,C,8,L,6,S,8,0.29017,0.756326,0.219463
5,38,9,1,9,8,1,C,8,L,1,S,11,0.784941,0.413272,0.324394
5,39,8,9,1,9,1,C,1,S,8,L,10,0.359757,0.764558,0.275055
5,40,2,9,9,2,1,I,7,L,7,L,12,0.495279,0.778738,0.385693
5,41,2,9,1,9,1,C,7,L,8,L,9,0.272391,0.840994,0.229079
5,42,8,9,2,8,1,C,1,S,6,S,10,0.333764,0.798702,0.266578
5,43,1,8,2,1,1,I,7,L,1,S,10,0.37871,0.775083,0.293531
5,44,8,1,1,8,1,I,7,L,7,L,14,0.773673,0.565428,0.437457
5,45,2,1,2,1,1,C,1,S,1,S,14,0.80083,0.409227,0.327721
5,46,9,2,1,2,1,I,7,L,1,S,13,0.776555,0.451892,0.350919
5,47,9,1,1,2,1,I,8,L,1,S,10,0.753876,0.391017,0.294779
5,48,1,2,8,9,1,C,1,S,1,S,14,0.520938,0.762229,0.397074
5,49,8,9,8,9,1,C,1,S,1,S,17,0.581403,0.753554,0.438119
5,50,1,8,9,8,1,I,7,L,1,S,9,0.320779,0.782501,0.25101
5,51,1,9,8,9,1,C,8,L,1,S,11,0.408084,0.79952,0.326272
5,52,8,2,9,1,1,C,6,S,8,L,10,0.835051,0.306223,0.255712
5,53,8,2,9,8,1,C,6,S,1,S,14,0.761771,0.507812,0.386836
5,54,9,8,1,8,0,I,1,S,7,L,10,0.314048,0.833448,0.261742
5,55,8,9,9,1,1,I,1,S,8,L,21,0.635183,0.767917,0.487768
5,56,8,9,9,2,1,I,1,S,7,L,20,0.634132,0.759381,0.481548
5,57,8,9,1,2,1,C,1,S,1,S,12,0.392123,0.7801,0.305895
5,58,8,1,8,9,1,I,7,L,1,S,9,0.755696,0.335881,0.253824
5,59,2,8,9,8,1,I,6,S,1,S,9,0.317491,0.786457,0.249693
5,60,1,9,9,2,1,I,8,L,7,L,12,0.49904,0.774266,0.38639
5,61,2,8,8,9,1,C,6,S,1,S,10,0.401853,0.762237,0.306307
5,62,2,8,2,8,1,C,6,S,6,S,8,0.28356,0.767875,0.217739
5,63,1,9,9,8,1,I,8,L,1,S,9,0.325321,0.773153,0.251523
5,64,8,2,9,2,1,C,6,S,7,L,10,0.810294,0.325833,0.26402
5,65,2,1,1,9,0,I,1,S,8,L,13,0.446421,0.779575,0.348019
5,66,9,2,2,1,1,C,7,L,1,S,11,0.788039,0.369163,0.290915
5,67,2,9,9,1,1,I,7,L,8,L,12,0.521781,0.757472,0.395235
5,68,2,8,2,1,1,I,6,S,1,S,10,0.375213,0.779307,0.292407
5,69,1,2,1,9,1,C,1,S,8,L,10,0.32561,0.815583,0.265562
5,70,1,2,1,2,1,C,1,S,1,S,11,0.379974,0.779109,0.296041
5,71,9,8,9,1,0,C,1,S,8,L,19,0.632662,0.764686,0.483788
5,72,1,2,8,1,1,I,1,S,7,L,18,0.624544,0.768031,0.479669
5,73,9,1,8,2,1,C,8,L,6,S,9,0.833834,0.279222,0.232825
5,74,2,9,2,1,1,I,7,L,1,S,10,0.380332,0.769305,0.292591
5,75,8,1,1,9,1,I,7,L,8,L,13,0.780361,0.519032,0.405032
5,76,1,9,8,2,1,I,8,L,6,S,12,0.517189,0.760502,0.393323
5,77,9,8,1,9,0,I,1,S,8,L,10,0.347295,0.788889,0.273977
5,78,8,1,8,1,1,C,7,L,7,L,9,0.848927,0.263127,0.223375
5,79,1,2,9,8,1,I,1,S,1,S,11,0.351811,0.814727,0.28663
5,80,2,1,1,8,0,I,1,S,7,L,11,0.419463,0.756504,0.317325
5,81,8,9,9,8,1,I,1,S,1,S,11,0.394293,0.751358,0.296256
5,82,1,8,9,1,1,I,7,L,8,L,12,0.519413,0.763834,0.396746
5,83,8,2,8,9,1,I,6,S,1,S,11,0.81747,0.346238,0.283039
5,84,8,2,2,9,1,I,6,S,7,L,17,0.769817,0.59436,0.457549
5,85,8,2,8,1,1,C,6,S,7,L,9,0.757138,0.331192,0.250758
5,86,8,2,2,8,1,I,6,S,6,S,18,0.758604,0.626954,0.47561
5,87,1,8,2,8,1,C,7,L,6,S,8,0.286514,0.764412,0.219015
5,88,1,8,8,9,1,C,7,L,1,S,10,0.405349,0.758013,0.30726
5,89,8,1,9,8,1,C,7,L,1,S,11,0.779279,0.413935,0.322571
5,90,1,2,2,1,1,I,1,S,1,S,13,0.47095,0.762195,0.358955
5,91,9,2,9,1,1,C,7,L,8,L,10,0.839083,0.307356,0.257897
5,92,1,8,9,2,1,I,7,L,7,L,12,0.49291,0.785101,0.386984
5,93,1,9,1,2,1,C,8,L,1,S,9,0.341342,0.753748,0.257286
5,94,9,2,2,8,1,I,7,L,6,S,18,0.766444,0.624013,0.478271
5,95,1,8,1,8,1,C,7,L,7,L,8,0.280775,0.7727,0.216955
5,96,8,9,2,9,1,C,1,S,7,L,11,0.336261,0.828625,0.278635
5,97,2,9,9,8,1,I,7,L,1,S,9,0.321921,0.777265,0.250218
5,98,9,8,8,9,0,I,1,S,1,S,16,0.552842,0.776416,0.429235
5,99,2,1,9,2,1,C,1,S,7,L,11,0.770903,0.394946,0.304465
5,100,2,8,1,9,1,C,6,S,8,L,9,0.267961,0.850187,0.227817
5,101,9,2,8,1,1,C,7,L,7,L,9,0.76047,0.332781,0.25307
5,102,2,1,1,2,1,I,1,S,1,S,23,0.753015,0.625056,0.470677
5,103,1,2,9,1,1,I,1,S,8,L,17,0.624816,0.752075,0.469909
5,104,1,9,8,1,1,I,8,L,7,L,13,0.542322,0.775398,0.420516
5,105,9,1,8,9,1,I,8,L,1,S,9,0.760197,0.336263,0.255626
5,106,9,2,9,2,1,C,7,L,7,L,10,0.814325,0.326965,0.266256
5,107,2,9,2,8,1,C,7,L,6,S,8,0.287137,0.759888,0.218192
5,108,2,1,2,8,0,I,1,S,6,S,12,0.421839,0.784377,0.330881
5,109,8,9,1,8,1,C,1,S,7,L,10,0.326509,0.809117,0.264184
5,110,9,1,9,2,1,C,8,L,7,L,9,0.819122,0.290277,0.237772
5,111,1,8,8,2,1,I,7,L,6,S,12,0.511059,0.771337,0.394199
5,112,2,8,1,2,1,C,6,S,1,S,9,0.333512,0.767052,0.255821
5,113,9,8,8,1,0,C,1,S,7,L,19,0.641591,0.757035,0.485707
5,114,1,9,1,9,1,C,8,L,8,L,9,0.275791,0.836882,0.230804
5,115,1,2,2,8,1,C,1,S,6,S,9,0.33515,0.757292,0.253806
5,116,8,9,2,1,1,I,1,S,1,S,16,0.525495,0.768597,0.403894
5,117,8,1,2,1,1,C,7,L,1,S,10,0.820397,0.318334,0.26116
5,118,1,2,8,2,1,I,1,S,6,S,17,0.619128,0.757884,0.469227
5,119,8,2,1,9,1,I,6,S,8,L,17,0.757979,0.609085,0.461674
5,120,1,8,2,9,1,C,7,L,7,L,9,0.280738,0.833196,0.23391
5,121,9,8,1,2,0,I,1,S,1,S,12,0.371136,0.816885,0.303176
5,122,1,9,9,1,1,I,8,L,8,L,12,0.525543,0.753,0.395734
5,123,8,2,1,2,1,I,6,S,1,S,13,0.770264,0.452613,0.348631
5,124,8,2,8,2,1,C,6,S,6,S,10,0.826958,0.313432,0.259195
5,125,2,9,8,2,1,I,7,L,6,S,12,0.513427,0.764974,0.392759
5,126,9,8,2,9,0,I,1,S,7,L,10,0.3583,0.773583,0.277175
5,127,2,9,1,2,1,C,7,L,1,S,9,0.337942,0.75786,0.256113
5,128,9,1,1,8,1,I,8,L,7,L,13,0.750483,0.563958,0.423241
5,129,1,2,2,9,1,C,1,S,7,L,10,0.336615,0.800277,0.269385
5,130,8,1,9,1,1,C,7,L,8,L,9,0.836678,0.272142,0.227695
5,131,2,9,1,8,1,C,7,L,7,L,8,0.281398,0.768175,0.216163
5,132,8,1,2,9,1,I,7,L,7,L,12,0.75992,0.497299,0.377907
5,133,8,2,2,1,1,C,6,S,1,S,11,0.783221,0.368607,0.288701
5,134,9,1,2,1,1,C,8,L,1,S,10,0.825537,0.318187,0.262675
5,135,9,2,8,2,1,C,7,L,6,S,10,0.83099,0.314564,0.2614
5,136,2,8,9,2,1,I,6,S,7,L,11,0.483367,0.751092,0.363053
5,137,2,9,8,9,1,C,7,L,1,S,10,0.406971,0.752235,0.306138
5,138,9,1,2,8,1,I,8,L,6,S,13,0.758271,0.553456,0.41967
5,139,9,8,2,1,0,C,1,S,1,S,14,0.499575,0.756129,0.377744
5,140,1,2,9,2,1,I,1,S,7,L,17,0.604913,0.769786,0.465654
5,141,9,8,9,8,0,C,1,S,1,S,11,0.377511,0.782004,0.295215
5,142,2,9,8,1,1,I,7,L,7,L,13,0.538634,0.779693,0.419969
5,143,2,1,2,9,0,I,1,S,7,L,13,0.459593,0.76181,0.350122
5,144,8,1,9,2,1,C,7,L,7,L,9,0.814621,0.289895,0.236155
6,1,2,1,1,9,1,I,1,S,8,L,20,0.76022,0.639216,0.485944
6,2,2,1,1,8,1,I,1,S,7,L,21,0.763003,0.648309,0.494661
6,3,2,8,8,9,1,C,6,S,1,S,11,0.376377,0.80272,0.302125
6,4,2,1,9,1,1,C,1,S,8,L,10,0.786274,0.352436,0.277111
6,5,2,9,9,1,1,I,7,L,8,L,15,0.588057,0.765468,0.450139
6,6,2,1,9,8,1,C,1,S,1,S,17,0.764627,0.574411,0.43921
6,7,1,8,8,1,1,I,7,L,7,L,12,0.513181,0.760162,0.3901
6,8,1,8,9,1,1,I,7,L,8,L,13,0.53031,0.782752,0.415101
6,9,9,1,8,9,1,I,8,L,1,S,10,0.770343,0.371984,0.286555
6,10,1,2,1,9,1,C,1,S,8,L,11,0.381269,0.785447,0.299467
6,11,8,9,2,9,1,C,1,S,7,L,11,0.414337,0.752915,0.311961
6,12,1,9,2,8,1,C,8,L,6,S,8,0.293052,0.756235,0.221616
6,13,8,9,9,2,0,I,1,S,7,L,12,0.788166,0.409855,0.323034
6,14,9,1,8,1,1,C,8,L,7,L,9,0.806773,0.300668,0.242571
6,15,2,8,8,1,1,I,6,S,7,L,14,0.565284,0.762517,0.431038
6,16,9,2,2,8,1,I,7,L,6,S,14,0.759507,0.584291,0.443773
6,17,1,9,1,8,1,C,8,L,7,L,8,0.292929,0.754063,0.220887
6,18,8,1,2,9,1,I,7,L,7,L,13,0.758314,0.544375,0.412808
6,19,8,1,2,8,1,I,7,L,6,S,14,0.757476,0.583613,0.442073
6,20,2,9,1,8,1,C,7,L,7,L,9,0.296006,0.811201,0.24012
6,21,9,2,8,1,1,C,7,L,7,L,9,0.810188,0.298551,0.241882
6,22,8,1,8,1,1,C,7,L,7,L,9,0.809298,0.296615,0.24005
6,23,9,8,8,2,1,C,1,S,6,S,15,0.759049,0.52426,0.397939
6,24,8,1,2,1,1,C,7,L,1,S,10,0.753678,0.384794,0.290011
6,25,9,2,1,8,1,I,7,L,7,L,14,0.760609,0.581026,0.441933
6,26,8,1,1,9,1,I,7,L,8,L,13,0.759339,0.540855,0.410692
6,27,9,1,1,9,1,I,8,L,8,L,13,0.756846,0.544727,0.412274
6,28,2,9,2,9,1,C,7,L,7,L,9,0.322429,0.777756,0.250771
6,29,8,2,2,8,1,I,6,S,6,S,14,0.761525,0.580814,0.442304
6,30,1,9,8,9,1,C,8,L,1,S,10,0.363176,0.784987,0.285089
6,31,2,9,8,1,1,I,7,L,7,L,15,0.576018,0.775265,0.446567
6,32,9,8,2,8,0,I,1,S,6,S,10,0.364301,0.776015,0.282703
6,33,2,9,8,9,1,C,7,L,1,S,11,0.38853,0.787801,0.306084
6,34,1,8,1,8,1,C,7,L,7,L,8,0.286635,0.761166,0.218177
6,35,2,8,2,8,1,C,6,S,6,S,9,0.286102,0.825095,0.236061
6,36,9,1,2,8,1,I,8,L,6,S,14,0.755327,0.587202,0.44353
6,37,9,8,2,1,0,C,1,S,1,S,14,0.434893,0.772137,0.335797
6,38,8,9,8,1,0,I,1,S,7,L,12,0.794919,0.404462,0.321515
6,39,8,9,9,8,1,I,1,S,1,S,14,0.448074,0.770111,0.345067
6,40,1,8,1,9,1,C,7,L,8,L,9,0.274814,0.836869,0.229983
6,41,8,2,1,8,1,I,6,S,7,L,14,0.762627,0.577549,0.440455
6,42,9,8,8,1,1,C,1,S,7,L,13,0.756702,0.47979,0.363058
6,43,8,1,9,2,1,C,7,L,7,L,9,0.803947,0.300957,0.241953
6,44,9,2,9,2,1,C,7,L,7,L,9,0.804837,0.302892,0.243779
6,45,8,2,9,2,1,C,6,S,7,L,9,0.807286,0.298909,0.241305
6,46,9,1,9,2,1,C,8,L,7,L,9,0.801422,0.30501,0.244441
6,47,1,8,2,1,1,I,7,L,1,S,10,0.335982,0.811216,0.272554
6,48,8,1,8,9,1,I,7,L,1,S,10,0.773154,0.367774,0.284346
6,49,8,1,1,8,1,I,7,L,7,L,14,0.758578,0.580348,0.440239
6,50,2,1,2,9,1,I,1,S,7,L,20,0.758554,0.642881,0.48766
6,51,1,2,9,8,1,I,1,S,1,S,13,0.40535,0.79654,0.322878
6,52,1,8,9,8,1,I,7,L,1,S,9,0.330491,0.766997,0.253485
6,53,1,9,8,2,1,I,8,L,6,S,12,0.497728,0.768845,0.382676
6,54,8,1,8,2,1,C,7,L,6,S,9,0.791373,0.310668,0.245854
6,55,8,9,2,1,1,I,1,S,1,S,18,0.477813,0.761315,0.363766
6,56,8,1,9,8,1,C,7,L,1,S,11,0.764223,0.429732,0.328411
6,57,9,2,1,2,1,I,7,L,1,S,11,0.776595,0.414749,0.322092
6,58,1,2,1,8,1,C,1,S,7,L,10,0.373666,0.762397,0.284882
6,59,2,9,1,2,1,C,7,L,1,S,10,0.357705,0.775452,0.277383
6,60,8,1,9,1,1,C,7,L,8,L,9,0.820331,0.28826,0.236469
6,61,1,2,8,1,0,I,1,S,7,L,13,0.778246,0.453027,0.352567
6,62,8,2,9,1,1,C,6,S,8,L,9,0.823671,0.286212,0.235744
6,63,2,8,9,1,1,I,6,S,8,L,14,0.578013,0.752372,0.434881
6,64,9,8,1,9,0,I,1,S,8,L,11,0.368839,0.800416,0.295225
6,65,8,2,8,1,1,C,6,S,7,L,9,0.812637,0.294567,0.239376
6,66,8,9,1,9,1,C,1,S,8,L,12,0.398522,0.79889,0.318376
6,67,1,8,1,2,1,C,7,L,1,S,9,0.336638,0.757441,0.254984
6,68,2,9,1,9,1,C,7,L,8,L,9,0.322404,0.775291,0.249957
6,69,1,2,8,9,1,C,1,S,1,S,17,0.473493,0.773848,0.366412
6,70,8,2,1,9,1,I,6,S,8,L,13,0.763488,0.538057,0.4108
6,71,9,1,1,2,1,I,8,L,1,S,11,0.772426,0.417439,0.32244
6,72,9,2,8,2,1,C,7,L,6,S,9,0.792262,0.312604,0.247664
6,73,2,1,2,1,1,C,1,S,1,S,14,0.777943,0.453859,0.353077
6,74,9,2,9,1,1,C,7,L,8,L,9,0.821221,0.290196,0.238315
6,75,1,8,8,2,1,I,7,L,6,S,12,0.489639,0.778345,0.381108
6,76,1,9,9,1,1,I,8,L,8,L,13,0.538272,0.77358,0.416397
6,77,1,9,1,2,1,C,8,L,1,S,10,0.311868,0.836537,0.260889
6,78,8,2,2,1,1,C,6,S,1,S,10,0.757458,0.382432,0.289676
6,79,9,8,1,2,0,I,1,S,1,S,13,0.399618,0.799845,0.319632
6,80,2,8,2,1,1,I,6,S,1,S,10,0.378374,0.754422,0.285454
6,81,8,2,8,2,1,C,6,S,6,S,9,0.794712,0.30862,0.245264
6,82,2,8,1,9,1,C,6,S,8,L,9,0.31263,0.786682,0.24594
6,83,1,2,9,2,0,I,1,S,7,L,13,0.771574,0.458445,0.353724
6,84,1,8,9,2,1,I,7,L,7,L,12,0.506428,0.765554,0.387698
6,85,9,2,8,9,1,I,7,L,1,S,10,0.774224,0.369535,0.286103
6,86,9,8,8,9,0,I,1,S,1,S,16,0.457196,0.785941,0.359329
6,87,9,8,9,1,1,C,1,S,8,L,13,0.769937,0.469463,0.361457
6,88,1,8,8,9,1,C,7,L,1,S,10,0.355457,0.794196,0.282303
6,89,8,2,9,8,1,C,6,S,1,S,11,0.768272,0.427142,0.328161
6,90,2,8,9,8,1,I,6,S,1,S,10,0.338029,0.801768,0.271021
6,91,1,2,8,2,0,I,1,S,6,S,13,0.754761,0.471464,0.355842
6,92,1,2,2,8,1,C,1,S,6,S,10,0.37329,0.765167,0.285629
6,93,1,9,2,1,1,I,8,L,1,S,10,0.343701,0.802007,0.27565
6,94,1,9,1,9,1,C,8,L,8,L,9,0.281957,0.828473,0.233594
6,95,2,8,1,8,1,C,6,S,7,L,9,0.286231,0.822592,0.235451
6,96,1,9,2,9,1,C,8,L,7,L,9,0.281982,0.830938,0.234309
6,97,2,8,1,2,1,C,6,S,1,S,10,0.346541,0.788952,0.273404
6,98,8,2,1,2,1,I,6,S,1,S,11,0.779349,0.410636,0.320029
6,99,2,9,9,2,1,I,7,L,7,L,14,0.571626,0.752648,0.430233
6,100,1,2,2,9,1,C,1,S,7,L,11,0.380719,0.788588,0.300231
6,101,9,1,9,1,1,C,8,L,8,L,9,0.817806,0.292313,0.239055
6,102,2,9,8,2,1,I,7,L,6,S,14,0.555262,0.765575,0.425095
6,103,8,9,8,2,0,I,1,S,6,S,12,0.771377,0.422646,0.326019
6,104,1,9,9,2,1,I,8,L,7,L,12,0.514517,0.756054,0.389003
6,105,9,1,1,8,1,I,8,L,7,L,14,0.756429,0.583937,0.441707
6,106,2,1,2,8,1,I,1,S,6,S,21,0.761512,0.651644,0.496235
6,107,9,8,1,8,0,I,1,S,7,L,10,0.364677,0.773244,0.281985
6,108,2,9,2,8,1,C,7,L,6,S,9,0.295877,0.813704,0.240756
6,109,1,2,9,1,0,I,1,S,8,L,12,0.762442,0.443459,0.338112
6,110,2,1,8,2,1,C,1,S,6,S,10,0.752987,0.377784,0.284466
6,111,8,2,2,9,1,I,6,S,7,L,13,0.762463,0.541577,0.412933
6,112,9,8,9,8,0,C,1,S,1,S,12,0.419233,0.758536,0.318004
6,113,9,1,2,9,1,I,8,L,7,L,13,0.755821,0.548247,0.414377
6,114,9,2,9,8,1,C,7,L,1,S,11,0.765518,0.431254,0.330133
6,115,9,8,9,2,1,C,1,S,7,L,13,0.75003,0.485207,0.36392
6,116,2,9,9,8,1,I,7,L,1,S,10,0.349193,0.788269,0.275258
6,117,1,9,9,8,1,I,8,L,1,S,9,0.337634,0.758602,0.25613
6,118,9,1,8,2,1,C,8,L,6,S,9,0.788848,0.314721,0.248267
6,119,1,2,2,1,1,I,1,S,1,S,15,0.427867,0.790618,0.338279
6,120,1,8,2,9,1,C,7,L,7,L,9,0.274838,0.839334,0.230681
6,121,9,8,2,9,0,I,1,S,7,L,11,0.368289,0.803557,0.295942
6,122,9,1,2,1,1,C,8,L,1,S,10,0.750867,0.389003,0.29209
6,123,9,2,2,9,1,I,7,L,7,L,13,0.760104,0.545337,0.414513
6,124,2,8,9,2,1,I,6,S,7,L,14,0.558864,0.767836,0.429116
6,125,9,1,9,8,1,C,8,L,1,S,11,0.761349,0.433944,0.330383
6,126,2,1,8,9,1,I,1,S,1,S,13,0.784183,0.421819,0.330783
6,127,2,1,8,1,1,C,1,S,7,L,10,0.773835,0.361769,0.279949
6,128,1,9,8,1,1,I,8,L,7,L,12,0.52127,0.750661,0.391297
6,129,1,8,2,8,1,C,7,L,6,S,8,0.286757,0.763339,0.218893
6,130,9,2,1,9,1,I,7,L,8,L,13,0.761128,0.541817,0.412392
6,131,2,8,8,2,1,I,6,S,6,S,13,0.5409,0.750487,0.405938
6,132,8,2,8,9,1,I,6,S,1,S,10,0.776933,0.365413,0.283901
6,133,8,9,1,8,1,C,1,S,7,L,11,0.384342,0.790871,0.303965
6,134,9,2,2,1,1,C,7,L,1,S,10,0.754748,0.386555,0.291751
6,135,2,1,9,2,1,C,1,S,7,L,10,0.767703,0.366637,0.281468
6,136,8,9,1,2,1,C,1,S,1,S,15,0.444949,0.78339,0.348569
6,137,8,9,9,1,0,I,1,S,8,L,11,0.759484,0.410405,0.311696
6,138,2,1,1,2,1,I,1,S,1,S,16,0.758045,0.549614,0.416632
6,139,2,9,2,1,1,I,7,L,1,S,11,0.361926,0.812197,0.293955
6,140,2,8,2,9,1,C,6,S,7,L,9,0.312654,0.789147,0.24673
6,141,8,9,8,9,0,C,1,S,1,S,23,0.751671,0.50606,0.380391
6,142,8,1,1,2,1,I,7,L,1,S,11,0.7753,0.413226,0.320374
6,143,8,9,2,8,1,C,1,S,6,S,11,0.383739,0.79384,0.304627
6,144,1,2,1,2,1,C,1,S,1,S,13,0.421162,0.773082,0.325593
7,1,9,8,8,1,1,C,1,S,7,L,11,0.751754,0.412984,0.310462
7,2,9,1,2,1,1,C,8,L,1,S,10,0.76615,0.36597,0.280388
7,3,9,1,9,1,1,C,8,L,8,L,9,0.759614,0.335254,0.254664
7,4,8,2,2,1,1,C,6,S,1,S,10,0.773121,0.36062,0.278803
7,5,9,8,9,1,1,C,1,S,8,L,12,0.791596,0.403217,0.319185
7,6,8,1,8,1,1,C,7,L,7,L,9,0.755818,0.340108,0.25706
7,7,9,2,2,8,1,I,7,L,6,S,15,0.776382,0.575931,0.447143
7,8,2,8,9,8,1,I,6,S,1,S,10,0.36384,0.763733,0.277877
7,9,9,1,9,2,1,C,8,L,7,L,10,0.822856,0.319662,0.263036
7,10,2,9,2,9,1,C,7,L,7,L,10,0.307955,0.835622,0.257334
7,11,2,8,2,9,1,C,6,S,7,L,10,0.330586,0.805413,0.266258
7,12,8,2,2,8,1,I,6,S,6,S,15,0.762722,0.588066,0.448531
7,13,2,8,8,9,1,C,6,S,1,S,11,0.399594,0.756764,0.302399
7,14,1,2,2,1,0,I,1,S,1,S,16,0.7624,0.486899,0.371212
7,15,1,8,1,2,1,C,7,L,1,S,9,0.335463,0.751235,0.252011
7,16,9,2,2,1,1,C,7,L,1,S,10,0.786013,0.349474,0.274691
7,17,1,8,9,1,1,I,7,L,8,L,14,0.556107,0.767209,0.42665
7,18,9,1,8,2,1,C,8,L,6,S,10,0.834519,0.310912,0.259462
7,19,1,9,1,2,1,C,8,L,1,S,9,0.320735,0.77145,0.247431
7,20,2,9,8,9,1,C,7,L,1,S,11,0.373695,0.791837,0.295906
7,21,9,1,1,8,1,I,8,L,7,L,17,0.772227,0.620898,0.479475
7,22,8,9,1,8,1,C,1,S,7,L,10,0.33044,0.815915,0.269611
7,23,9,8,2,9,0,I,1,S,7,L,12,0.424159,0.763324,0.323771
7,24,9,2,8,2,1,C,7,L,6,S,9,0.757814,0.332551,0.252012
7,25,2,1,1,9,0,I,1,S,8,L,12,0.451493,0.765082,0.345429
7,26,1,2,8,1,0,I,1,S,7,L,12,0.781021,0.418284,0.326688
7,27,8,1,9,8,1,C,7,L,1,S,14,0.779273,0.519368,0.404729
7,28,2,8,2,1,1,I,6,S,1,S,13,0.479783,0.762134,0.365659
7,29,8,1,9,2,1,C,7,L,7,L,10,0.808053,0.332473,0.268656
7,30,1,2,1,8,1,C,1,S,7,L,10,0.377326,0.763619,0.288133
7,31,8,2,1,2,1,I,6,S,1,S,14,0.776981,0.532268,0.413563
7,32,1,8,2,8,1,C,7,L,6,S,9,0.305688,0.794837,0.242972
7,33,1,8,2,1,1,I,7,L,1,S,12,0.429201,0.793991,0.340781
7,34,9,2,8,1,1,C,7,L,7,L,9,0.784505,0.314723,0.246902
7,35,9,2,9,1,1,C,7,L,8,L,9,0.776253,0.32087,0.249076
7,36,9,8,1,2,0,I,1,S,1,S,13,0.421932,0.786354,0.331788
7,37,8,2,9,8,1,C,6,S,1,S,13,0.774187,0.49607,0.384051
7,38,8,1,2,1,1,C,7,L,1,S,10,0.751347,0.378782,0.284597
7,39,1,9,9,2,1,I,8,L,7,L,12,0.491257,0.757208,0.371984
7,40,8,1,1,2,1,I,7,L,1,S,14,0.750441,0.554281,0.415955
7,41,9,8,1,8,0,I,1,S,7,L,10,0.38792,0.751464,0.291508
7,42,1,9,8,2,1,I,8,L,6,S,13,0.509321,0.78073,0.397642
7,43,8,1,2,9,1,I,7,L,7,L,15,0.764512,0.57304,0.438096
7,44,1,9,1,9,1,C,8,L,8,L,9,0.271341,0.839229,0.227717
7,45,8,2,1,9,1,I,6,S,8,L,16,0.768958,0.604719,0.465004
7,46,1,2,8,2,0,I,1,S,6,S,13,0.784046,0.431135,0.33803
7,47,9,2,9,8,1,C,7,L,1,S,12,0.753069,0.481311,0.36246
7,48,8,9,1,9,1,C,1,S,8,L,10,0.344935,0.793469,0.273695
7,49,9,2,1,2,1,I,7,L,1,S,13,0.760711,0.518045,0.394082
7,50,2,9,9,2,1,I,7,L,7,L,14,0.541236,0.764453,0.41375
7,51,1,9,9,8,1,I,8,L,1,S,9,0.339061,0.751546,0.25482
7,52,9,8,8,2,1,C,1,S,6,S,12,0.766211,0.42006,0.321855
7,53,9,1,8,9,1,I,8,L,1,S,11,0.764839,0.403649,0.308727
7,54,8,9,2,8,1,C,1,S,6,S,10,0.36614,0.767107,0.280868
7,55,9,1,1,9,1,I,8,L,8,L,16,0.761392,0.610916,0.465147
7,56,9,8,2,8,0,I,1,S,6,S,11,0.41223,0.754416,0.310993
7,57,2,9,8,2,1,I,7,L,6,S,14,0.555724,0.753345,0.418652
7,58,1,2,2,8,1,C,1,S,6,S,11,0.397165,0.771171,0.306282
7,59,2,8,9,2,1,I,6,S,7,L,15,0.571219,0.753094,0.430182
7,60,9,2,2,9,1,I,7,L,7,L,14,0.776715,0.539961,0.419396
7,61,2,9,2,1,1,I,7,L,1,S,12,0.453702,0.762128,0.345779
7,62,1,2,9,1,0,I,1,S,8,L,12,0.770564,0.426129,0.328359
7,63,2,1,9,1,1,C,1,S,8,L,11,0.798068,0.373527,0.2981
7,64,1,9,2,1,1,I,8,L,1,S,11,0.416179,0.773,0.321707
7,65,1,2,8,9,1,C,1,S,1,S,17,0.447503,0.77984,0.348981
7,66,9,8,2,1,1,C,1,S,1,S,15,0.790895,0.43745,0.345977
7,67,8,2,9,2,1,C,6,S,7,L,10,0.829827,0.314311,0.260824
7,68,1,9,2,9,1,C,8,L,7,L,9,0.311245,0.785033,0.244338
7,69,1,2,9,8,1,I,1,S,1,S,13,0.421372,0.78278,0.329842
7,70,1,2,9,2,0,I,1,S,7,L,13,0.769436,0.442136,0.340195
7,71,1,2,2,9,1,C,1,S,7,L,12,0.403127,0.786236,0.316953
7,72,2,1,8,1,1,C,1,S,7,L,11,0.808245,0.365995,0.295814
7,73,1,9,1,8,1,C,8,L,7,L,8,0.294395,0.751735,0.221307
7,74,2,1,1,2,1,I,1,S,1,S,23,0.77023,0.637177,0.490773
7,75,2,1,2,8,0,I,1,S,6,S,13,0.482254,0.760153,0.366587
7,76,2,9,1,9,1,C,7,L,8,L,9,0.304154,0.796318,0.242203
7,77,1,8,8,9,1,C,7,L,1,S,10,0.377914,0.750711,0.283704
7,78,9,8,1,9,0,I,1,S,8,L,11,0.39017,0.781669,0.304983
7,79,1,9,8,1,1,I,8,L,7,L,13,0.545477,0.755277,0.411986
7,80,2,9,1,2,1,C,7,L,1,S,10,0.319298,0.819225,0.261577
7,81,9,8,9,8,0,C,1,S,1,S,13,0.450321,0.751646,0.338482
7,82,8,2,2,9,1,I,6,S,7,L,14,0.762267,0.552517,0.421166
7,83,8,2,8,2,1,C,6,S,6,S,10,0.84149,0.305562,0.257127
7,84,9,2,1,9,1,I,7,L,8,L,15,0.756096,0.59907,0.452955
7,85,1,9,2,8,1,C,8,L,6,S,9,0.29096,0.815051,0.237147
7,86,8,9,2,1,1,I,1,S,1,S,18,0.577085,0.766706,0.442455
7,87,9,8,9,2,1,C,1,S,7,L,12,0.751973,0.430651,0.323838
7,88,1,8,8,1,1,I,7,L,7,L,14,0.566152,0.759364,0.429916
7,89,2,1,2,9,1,I,1,S,7,L,23,0.761122,0.64837,0.493489
7,90,9,1,2,9,1,I,8,L,7,L,14,0.753923,0.559071,0.421496
7,91,1,9,9,1,1,I,8,L,8,L,13,0.535097,0.763213,0.408393
7,92,8,2,1,8,1,I,6,S,7,L,16,0.754791,0.624019,0.471004
7,93,8,2,8,9,1,I,6,S,1,S,11,0.77268,0.397697,0.307293
7,94,9,1,2,8,1,I,8,L,6,S,15,0.754705,0.594495,0.448668
7,95,8,1,8,9,1,I,7,L,1,S,12,0.804565,0.39765,0.319935
7,96,2,8,1,9,1,C,6,S,8,L,9,0.322876,0.772016,0.249265
7,97,2,1,8,2,1,C,1,S,6,S,11,0.773992,0.389171,0.301215
7,98,1,8,1,8,1,C,7,L,7,L,9,0.272771,0.840102,0.229156
7,99,1,8,9,2,1,I,7,L,7,L,13,0.514244,0.765634,0.393723
7,100,8,9,9,2,1,I,1,S,7,L,21,0.624813,0.772665,0.482771
7,101,9,8,8,9,0,I,1,S,1,S,21,0.499805,0.763867,0.381784
7,102,8,9,8,1,1,I,1,S,7,L,22,0.64155,0.769812,0.493873
7,103,9,2,1,8,1,I,7,L,7,L,16,0.76747,0.61248,0.47006
7,104,2,1,1,8,0,I,1,S,7,L,11,0.431443,0.757625,0.326872
7,105,9,1,1,2,1,I,8,L,1,S,14,0.768637,0.538822,0.414158
7,106,2,1,8,9,1,I,1,S,1,S,16,0.762758,0.488561,0.372654
7,107,2,1,9,8,1,C,1,S,1,S,22,0.764196,0.634993,0.48526
7,108,2,8,8,2,1,I,6,S,6,S,16,0.581928,0.768634,0.44729
7,109,1,8,1,9,1,C,7,L,8,L,9,0.286069,0.819014,0.234295
7,110,9,1,8,1,1,C,8,L,7,L,9,0.767866,0.329108,0.252711
7,111,1,8,9,8,1,I,7,L,1,S,10,0.32024,0.821022,0.262924
7,112,2,9,9,8,1,I,7,L,1,S,10,0.341209,0.793942,0.2709
7,113,9,2,8,9,1,I,7,L,1,S,11,0.786938,0.385619,0.303458
7,114,8,9,8,9,1,C,1,S,1,S,13,0.426263,0.766792,0.326855
7,115,9,1,9,8,1,C,8,L,1,S,13,0.76571,0.502608,0.384852
7,116,8,1,8,2,1,C,7,L,6,S,10,0.819716,0.323724,0.265362
7,117,8,1,1,8,1,I,7,L,7,L,17,0.757171,0.634564,0.480474
7,118,2,8,1,2,1,C,6,S,1,S,10,0.341929,0.789016,0.269788
7,119,1,2,1,2,1,C,1,S,1,S,12,0.417017,0.766375,0.319592
7,120,8,1,1,9,1,I,7,L,8,L,17,0.770682,0.616321,0.474987
7,121,8,9,8,2,1,I,1,S,6,S,21,0.633693,0.764977,0.484761
7,122,2,1,2,1,1,C,1,S,1,S,13,0.811676,0.394101,0.319882
7,123,8,9,9,1,1,I,1,S,8,L,21,0.650767,0.751951,0.489345
7,124,1,8,8,2,1,I,7,L,6,S,13,0.528854,0.754633,0.399091
7,125,8,1,2,8,1,I,7,L,6,S,16,0.7642,0.604027,0.461598
7,126,8,9,2,9,1,C,1,S,7,L,11,0.359428,0.805834,0.289639
7,127,8,9,9,8,1,I,1,S,1,S,11,0.39718,0.757421,0.300832
7,128,1,8,2,9,1,C,7,L,7,L,9,0.325973,0.764819,0.24931
7,129,2,8,9,1,1,I,6,S,8,L,16,0.605459,0.751522,0.455016
7,130,2,1,9,2,1,C,1,S,7,L,11,0.76073,0.39901,0.303539
7,131,2,9,1,8,1,C,7,L,7,L,9,0.290856,0.817406,0.237748
7,132,8,2,8,1,1,C,6,S,7,L,9,0.773651,0.32454,0.25108
7,133,1,2,1,9,1,C,1,S,8,L,11,0.375105,0.798423,0.299492
7,134,2,8,1,8,1,C,6,S,7,L,9,0.309579,0.793104,0.245528
7,135,8,9,1,2,1,C,1,S,1,S,11,0.372264,0.787289,0.293079
7,136,9,2,9,2,1,C,7,L,7,L,10,0.842719,0.303165,0.255483
7,137,2,9,8,1,1,I,7,L,7,L,15,0.589241,0.756026,0.445482
7,138,2,9,9,1,1,I,7,L,8,L,15,0.579693,0.76364,0.442677
7,139,2,8,2,8,1,C,6,S,6,S,10,0.307171,0.840004,0.258024
7,140,2,9,2,8,1,C,7,L,6,S,9,0.323772,0.77214,0.249998
7,141,8,2,9,1,1,C,6,S,8,L,9,0.765399,0.330687,0.253107
7,142,1,9,8,9,1,C,8,L,1,S,10,0.36109,0.77403,0.279494
7,143,8,1,9,1,1,C,7,L,8,L,10,0.841445,0.309823,0.260699
7,144,2,8,8,1,1,I,6,S,7,L,17,0.60742,0.769262,0.467265
8,1,1,9,2,8,1,C,8,L,6,S,9,0.274638,0.846465,0.232472
8,2,9,8,9,8,1,C,1,S,1,S,11,0.795009,0.371686,0.295494
8,3,8,2,1,2,1,I,6,S,1,S,11,0.794965,0.400677,0.318524
8,4,2,1,1,2,1,I,1,S,1,S,14,0.7685,0.498269,0.38292
8,5,2,8,9,2,1,I,6,S,7,L,17,0.60271,0.769319,0.463676
8,6,2,1,2,9,1,I,1,S,7,L,18,0.765082,0.622305,0.476114
8,7,1,8,1,2,1,C,7,L,1,S,10,0.365416,0.769465,0.281175
8,8,1,9,2,1,1,I,8,L,1,S,10,0.3657,0.789481,0.288713
8,9,2,1,9,1,1,C,1,S,8,L,10,0.828632,0.316064,0.261901
8,10,1,9,8,9,1,C,8,L,1,S,10,0.375659,0.781849,0.293709
8,11,2,9,9,1,1,I,7,L,8,L,13,0.558163,0.752708,0.420134
8,12,1,9,9,2,1,I,8,L,7,L,12,0.495895,0.778452,0.386031
8,13,9,2,2,1,1,C,7,L,1,S,10,0.816053,0.333023,0.271764
8,14,8,1,1,9,1,I,7,L,8,L,12,0.778305,0.503643,0.391988
8,15,2,9,2,9,1,C,7,L,7,L,9,0.293954,0.818405,0.240573
8,16,1,8,1,9,1,C,7,L,8,L,9,0.325416,0.776982,0.252843
8,17,8,2,9,2,1,C,6,S,7,L,9,0.811512,0.293767,0.238396
8,18,8,1,1,2,1,I,7,L,1,S,10,0.777924,0.380146,0.295725
8,19,8,2,2,8,1,I,6,S,6,S,13,0.774697,0.532621,0.41262
8,20,8,9,9,8,0,I,1,S,1,S,18,0.757011,0.488624,0.369893
8,21,2,1,2,8,1,I,1,S,6,S,18,0.765314,0.621361,0.475537
8,22,2,1,1,8,1,I,1,S,7,L,18,0.763036,0.624761,0.476715
8,23,2,9,1,9,1,C,7,L,8,L,9,0.292295,0.821617,0.240155
8,24,9,2,1,8,1,I,7,L,7,L,12,0.75625,0.520241,0.393433
8,25,9,1,9,1,1,C,8,L,8,L,8,0.773655,0.278787,0.215685
8,26,1,2,9,8,1,I,1,S,1,S,19,0.544287,0.770864,0.419571
8,27,9,8,8,2,1,C,1,S,6,S,9,0.752651,0.338537,0.2548
8,28,2,8,2,8,1,C,6,S,6,S,10,0.321191,0.824349,0.264773
8,29,8,9,1,8,1,C,1,S,7,L,11,0.412759,0.75842,0.313045
8,30,2,8,1,8,1,C,6,S,7,L,10,0.319226,0.827985,0.264314
8,31,1,2,8,1,0,I,1,S,7,L,12,0.770339,0.443063,0.341309
8,32,2,8,8,2,1,I,6,S,6,S,17,0.608972,0.765109,0.46593
8,33,1,2,2,8,1,C,1,S,6,S,11,0.377961,0.795337,0.300606
8,34,9,1,9,2,1,C,8,L,7,L,8,0.750134,0.295746,0.221849
8,35,9,2,2,8,1,I,7,L,6,S,12,0.758622,0.516199,0.3916
8,36,9,1,9,8,1,C,8,L,1,S,9,0.769025,0.333467,0.256444
8,37,1,8,2,1,1,I,7,L,1,S,11,0.410065,0.764498,0.313494
8,38,2,1,1,9,1,I,1,S,8,L,18,0.762806,0.625694,0.477283
8,39,8,2,1,9,1,I,6,S,8,L,13,0.772288,0.53741,0.415036
8,40,1,8,8,1,1,I,7,L,7,L,15,0.60446,0.75076,0.453804
8,41,2,1,8,2,1,C,1,S,6,S,10,0.802227,0.33571,0.269315
8,42,1,9,9,8,1,I,8,L,1,S,10,0.365677,0.788721,0.288417
8,43,8,9,1,2,1,C,1,S,1,S,15,0.446948,0.785219,0.350952
8,44,2,8,8,9,1,C,6,S,1,S,13,0.441933,0.789257,0.348799
8,45,1,2,8,9,1,C,1,S,1,S,20,0.590913,0.757169,0.447421
8,46,1,9,1,9,1,C,8,L,8,L,9,0.273344,0.850127,0.232377
8,47,9,8,9,2,1,C,1,S,7,L,10,0.841741,0.304623,0.256413
8,48,2,9,8,9,1,C,7,L,1,S,10,0.396932,0.750218,0.297785
8,49,1,8,2,9,1,C,7,L,7,L,9,0.327075,0.77377,0.253081
8,50,8,9,8,2,0,I,1,S,6,S,12,0.787068,0.4116,0.323957
8,51,1,2,9,2,0,I,1,S,7,L,13,0.756397,0.474375,0.358816
8,52,8,9,8,9,0,C,1,S,1,S,17,0.775233,0.471818,0.365769
8,53,8,2,8,9,1,I,6,S,1,S,10,0.809769,0.336926,0.272832
8,54,8,1,8,1,1,C,7,L,7,L,8,0.76676,0.284472,0.218122
8,55,9,8,2,1,1,C,1,S,1,S,11,0.794915,0.372567,0.296159
8,56,9,1,2,8,1,I,8,L,6,S,11,0.756204,0.482857,0.365138
8,57,1,9,1,8,1,C,8,L,7,L,9,0.272987,0.849672,0.23195
8,58,9,2,2,9,1,I,7,L,7,L,12,0.758764,0.516869,0.392181
8,59,8,9,2,9,1,C,1,S,7,L,11,0.415187,0.755109,0.313512
8,60,8,1,8,2,1,C,7,L,6,S,9,0.851326,0.265416,0.225955
8,61,1,8,8,9,1,C,7,L,1,S,11,0.423718,0.753792,0.319395
8,62,8,2,9,1,1,C,6,S,8,L,9,0.840143,0.273463,0.229748
8,63,2,9,1,8,1,C,7,L,7,L,9,0.291939,0.821163,0.239729
8,64,9,2,1,2,1,I,7,L,1,S,10,0.756421,0.396582,0.299983
8,65,2,8,9,1,1,I,6,S,8,L,18,0.621067,0.770979,0.47883
8,66,8,9,9,2,0,I,1,S,7,L,12,0.78013,0.415701,0.324301
8,67,9,8,1,2,1,I,1,S,1,S,12,0.757895,0.456406,0.345908
8,68,9,2,9,8,1,C,7,L,1,S,10,0.816029,0.332263,0.271136
8,69,9,2,9,2,1,C,7,L,7,L,9,0.82623,0.283352,0.234114
8,70,1,8,9,2,1,I,7,L,7,L,14,0.568602,0.750938,0.426985
8,71,8,2,1,8,1,I,6,S,7,L,13,0.772229,0.536681,0.414441
8,72,1,9,2,9,1,C,8,L,7,L,9,0.275002,0.846914,0.232903
8,73,8,2,8,2,1,C,6,S,6,S,9,0.816695,0.29105,0.237699
8,74,2,1,2,1,1,C,1,S,1,S,12,0.806735,0.382051,0.308214
8,75,1,8,8,2,1,I,7,L,6,S,15,0.573682,0.774681,0.44442
8,76,2,9,2,8,1,C,7,L,6,S,9,0.29359,0.817955,0.240144
8,77,8,1,9,8,1,C,7,L,1,S,9,0.75684,0.341922,0.25878
8,78,9,8,9,1,1,C,1,S,8,L,9,0.776099,0.320951,0.24909
8,79,9,8,1,8,1,I,1,S,7,L,16,0.772531,0.594762,0.459472
8,80,9,8,2,9,1,I,1,S,7,L,16,0.774838,0.591908,0.458633
8,81,1,2,1,2,1,C,1,S,1,S,13,0.418325,0.782679,0.327414
8,82,9,1,1,9,1,I,8,L,8,L,11,0.754211,0.48737,0.36758
8,83,1,2,8,2,0,I,1,S,6,S,13,0.76344,0.470067,0.358868
8,84,8,2,2,9,1,I,6,S,7,L,13,0.77476,0.533353,0.413221
8,85,1,8,1,8,1,C,7,L,7,L,9,0.32506,0.776528,0.252418
8,86,9,2,8,9,1,I,7,L,1,S,10,0.826011,0.325391,0.268777
8,87,9,8,8,1,1,C,1,S,7,L,9,0.780646,0.318714,0.248802
8,88,8,9,1,9,1,C,1,S,8,L,11,0.412973,0.759022,0.313456
8,89,2,8,2,1,1,I,6,S,1,S,12,0.43489,0.759412,0.330261
8,90,8,9,9,1,0,I,1,S,8,L,11,0.76709,0.405825,0.311304
8,91,9,1,2,9,1,I,8,L,7,L,11,0.756425,0.483457,0.365699
8,92,9,2,8,2,1,C,7,L,6,S,9,0.831413,0.280634,0.233323
8,93,8,9,2,1,0,I,1,S,1,S,18,0.755854,0.490218,0.370533
8,94,1,9,8,2,1,I,8,L,6,S,12,0.502833,0.774351,0.389369
8,95,8,2,8,1,1,C,6,S,7,L,9,0.84469,0.271226,0.229102
8,96,2,8,1,9,1,C,6,S,8,L,10,0.319516,0.828514,0.264723
8,97,1,8,9,1,1,I,7,L,8,L,15,0.599285,0.753991,0.451856
8,98,9,1,1,8,1,I,8,L,7,L,11,0.753998,0.486768,0.367022
8,99,8,1,8,9,1,I,7,L,1,S,9,0.764122,0.337341,0.25777
8,100,2,8,2,9,1,C,6,S,7,L,10,0.321489,0.824874,0.265188
8,101,8,2,2,1,1,C,6,S,1,S,10,0.799811,0.344557,0.275581
8,102,2,1,8,9,1,I,1,S,1,S,11,0.754674,0.401829,0.30325
8,103,8,1,1,8,1,I,7,L,7,L,12,0.77817,0.502974,0.391399
8,104,1,8,2,8,1,C,7,L,6,S,9,0.326711,0.77332,0.252652
8,105,9,1,8,2,1,C,8,L,6,S,8,0.754314,0.293682,0.221528
8,106,1,2,1,9,1,C,1,S,8,L,11,0.375968,0.79985,0.300718
8,107,1,9,9,1,1,I,8,L,8,L,12,0.531366,0.752675,0.399946
8,108,2,9,8,2,1,I,7,L,6,S,13,0.530058,0.774481,0.41052
8,109,1,2,2,1,1,I,1,S,1,S,19,0.543155,0.772419,0.419543
8,110,2,9,2,1,1,I,7,L,1,S,10,0.386973,0.757849,0.293267
8,111,1,9,1,2,1,C,8,L,1,S,9,0.338858,0.764387,0.259019
8,112,9,8,1,9,1,I,1,S,8,L,16,0.772396,0.595629,0.460061
8,113,8,9,2,8,1,C,1,S,6,S,11,0.414966,0.754509,0.313095
8,114,2,1,9,2,1,C,1,S,7,L,10,0.796206,0.339009,0.269921
8,115,8,1,2,1,1,C,7,L,1,S,9,0.756952,0.342577,0.259314
8,116,2,9,9,2,1,I,7,L,7,L,13,0.523015,0.778789,0.407319
8,117,1,8,9,8,1,I,7,L,1,S,11,0.410159,0.763617,0.313204
8,118,9,2,1,9,1,I,7,L,8,L,12,0.756385,0.520911,0.394009
8,119,8,2,9,8,1,C,6,S,1,S,10,0.799787,0.343797,0.274964
8,120,9,8,8,9,1,I,1,S,1,S,11,0.808568,0.361861,0.29259
8,121,2,9,9,8,1,I,7,L,1,S,10,0.386949,0.757089,0.292955
8,122,1,2,2,9,1,C,1,S,7,L,11,0.378182,0.795937,0.301009
8,123,8,1,2,8,1,I,7,L,6,S,12,0.780542,0.498931,0.389437
8,124,9,2,8,1,1,C,7,L,7,L,9,0.859407,0.260811,0.224143
8,125,8,9,8,1,0,I,1,S,7,L,11,0.772418,0.402913,0.311217
8,126,2,8,9,8,1,I,6,S,1,S,12,0.435133,0.758397,0.330004
8,127,2,9,8,1,1,I,7,L,7,L,14,0.563558,0.779382,0.439227
8,128,9,8,2,8,1,I,1,S,6,S,16,0.774973,0.591032,0.458034
8,129,2,8,8,1,1,I,6,S,7,L,18,0.625653,0.768007,0.480506
8,130,1,2,9,1,0,I,1,S,8,L,12,0.764893,0.446169,0.341272
8,131,2,8,1,2,1,C,6,S,1,S,11,0.368091,0.796745,0.293274
8,132,9,2,9,1,1,C,7,L,8,L,9,0.85486,0.263048,0.224869
8,133,8,1,9,1,1,C,7,L,8,L,8,0.762898,0.286244,0.218375
8,134,8,1,9,2,1,C,7,L,7,L,9,0.846142,0.268134,0.226879
8,135,1,9,8,1,1,I,8,L,7,L,13,0.539767,0.782679,0.422464
8,136,9,1,8,9,1,I,8,L,1,S,9,0.776308,0.328886,0.255317
8,137,9,1,2,1,1,C,8,L,1,S,9,0.769137,0.334122,0.256986
8,138,2,1,8,1,1,C,1,S,7,L,10,0.83367,0.313442,0.261307
8,139,2,1,9,8,1,C,1,S,1,S,12,0.806978,0.381036,0.307487
8,140,9,1,1,2,1,I,8,L,1,S,10,0.790921,0.37101,0.293439
8,141,2,9,1,2,1,C,7,L,1,S,10,0.327341,0.821408,0.268881
8,142,8,1,2,9,1,I,7,L,7,L,12,0.780683,0.499601,0.39003
8,143,9,1,8,1,1,C,8,L,7,L,8,0.777518,0.277015,0.215384
8,144,1,2,1,8,1,C,1,S,7,L,11,0.375754,0.799248,0.300321
9,1,2,1,1,8,0,I,1,S,7,L,13,0.501401,0.75744,0.379782
9,2,2,1,2,1,1,C,1,S,1,S,12,0.781903,0.395915,0.309568
9,3,2,9,8,1,1,I,7,L,7,L,13,0.536558,0.756081,0.405681
9,4,9,2,2,8,1,I,7,L,6,S,12,0.765659,0.500663,0.383337
9,5,1,9,8,2,1,I,8,L,6,S,11,0.447804,0.772305,0.345841
9,6,8,9,2,1,1,I,1,S,1,S,18,0.569644,0.77432,0.441087
9,7,8,2,9,8,1,C,6,S,1,S,10,0.770666,0.361593,0.278668
9,8,2,9,9,2,1,I,7,L,7,L,14,0.571411,0.760722,0.434685
9,9,2,8,8,9,1,C,6,S,1,S,10,0.363816,0.771376,0.280639
9,10,8,9,1,9,1,C,1,S,8,L,10,0.351407,0.79353,0.278852
9,11,2,1,1,2,1,I,1,S,1,S,21,0.771538,0.629981,0.486054
9,12,1,8,1,8,1,C,7,L,7,L,8,0.267394,0.785551,0.210052
9,13,1,9,9,8,1,I,8,L,1,S,10,0.369739,0.781019,0.288773
9,14,9,1,8,1,1,C,8,L,7,L,9,0.822898,0.287389,0.236492
9,15,8,1,1,8,1,I,7,L,7,L,15,0.762584,0.602023,0.459093
9,16,2,9,8,2,1,I,7,L,6,S,13,0.50587,0.780206,0.394682
9,17,8,2,2,8,1,I,6,S,6,S,14,0.773896,0.548566,0.424533
9,18,8,2,8,9,1,I,6,S,1,S,11,0.790311,0.387978,0.306624
9,19,8,2,1,9,1,I,6,S,8,L,15,0.763558,0.59596,0.45505
9,20,2,8,9,8,1,I,6,S,1,S,11,0.393104,0.785629,0.308834
9,21,8,1,2,9,1,I,7,L,7,L,13,0.782002,0.504354,0.394406
9,22,1,2,8,1,1,I,1,S,7,L,20,0.638348,0.752565,0.480398
9,23,2,1,8,1,1,C,1,S,7,L,11,0.816029,0.352498,0.287649
9,24,8,2,1,8,1,I,6,S,7,L,15,0.752207,0.60938,0.45838
9,25,2,9,1,9,1,C,7,L,8,L,9,0.286909,0.824957,0.236688
9,26,2,9,8,9,1,C,7,L,1,S,10,0.374499,0.761932,0.285343
9,27,1,9,8,1,1,I,8,L,7,L,11,0.475923,0.750403,0.357134
9,28,1,8,9,2,1,I,7,L,7,L,12,0.509604,0.76816,0.391457
9,29,8,9,2,8,1,C,1,S,6,S,11,0.355757,0.81752,0.290839
9,30,8,1,2,8,1,I,7,L,6,S,13,0.754298,0.540079,0.40738
9,31,9,8,8,1,1,C,1,S,7,L,12,0.804949,0.386976,0.311496
9,32,2,1,9,8,1,C,1,S,1,S,12,0.753266,0.417599,0.314563
9,33,2,9,2,9,1,C,7,L,7,L,9,0.337691,0.755506,0.255128
9,34,2,8,1,2,1,C,6,S,1,S,9,0.317678,0.778127,0.247194
9,35,9,1,2,9,1,I,8,L,7,L,11,0.760308,0.45648,0.347066
9,36,1,9,8,9,1,C,8,L,1,S,10,0.327883,0.824695,0.270404
9,37,1,8,8,1,1,I,7,L,7,L,11,0.469107,0.75523,0.354284
9,38,9,8,9,1,1,C,1,S,8,L,11,0.798172,0.37323,0.297902
9,39,8,9,9,2,1,I,1,S,7,L,22,0.64752,0.768014,0.497304
9,40,1,2,9,1,1,I,1,S,8,L,22,0.639393,0.771908,0.493553
9,41,9,8,8,2,1,C,1,S,6,S,12,0.774896,0.410363,0.317989
9,42,1,2,8,2,1,I,1,S,6,S,20,0.618818,0.770122,0.476565
9,43,9,1,9,1,1,C,8,L,8,L,8,0.753871,0.293771,0.221466
9,44,2,1,9,1,1,C,1,S,8,L,10,0.787742,0.349182,0.275065
9,45,8,9,1,8,1,C,1,S,7,L,10,0.33924,0.809378,0.274574
9,46,9,8,2,1,1,C,1,S,1,S,14,0.79068,0.419468,0.331665
9,47,2,9,1,2,1,C,7,L,1,S,9,0.3276,0.769904,0.252221
9,48,8,9,8,1,1,I,1,S,7,L,21,0.643438,0.761225,0.489801
9,49,8,1,9,8,1,C,7,L,1,S,10,0.780141,0.355614,0.277429
9,50,2,9,1,8,1,C,7,L,7,L,9,0.275494,0.8399,0.231387
9,51,9,2,1,8,1,I,7,L,7,L,14,0.777179,0.571571,0.444213
9,52,9,2,8,1,1,C,7,L,7,L,9,0.816131,0.291347,0.237777
9,53,9,8,1,9,0,I,1,S,8,L,11,0.411848,0.762867,0.314186
9,54,1,8,9,1,1,I,7,L,8,L,12,0.526275,0.754825,0.397245
9,55,1,8,1,9,1,C,7,L,8,L,8,0.277632,0.772307,0.214417
9,56,1,2,2,8,1,C,1,S,6,S,10,0.370707,0.752193,0.278843
9,57,9,1,1,8,1,I,8,L,7,L,13,0.755553,0.567292,0.428619
9,58,9,2,8,9,1,I,7,L,1,S,10,0.78065,0.366658,0.286231
9,59,9,2,1,9,1,I,7,L,8,L,13,0.760052,0.557269,0.423553
9,60,1,2,9,2,1,I,1,S,7,L,21,0.64595,0.757653,0.489406
9,61,1,2,1,2,1,C,1,S,1,S,11,0.349011,0.816473,0.284958
9,62,2,8,1,8,1,C,6,S,7,L,9,0.265571,0.848123,0.225237
9,63,1,8,8,9,1,C,7,L,1,S,9,0.345979,0.75012,0.259525
9,64,1,9,9,1,1,I,8,L,8,L,12,0.53279,0.750368,0.399789
9,65,1,2,8,9,1,C,1,S,1,S,13,0.402695,0.79459,0.319978
9,66,9,2,9,2,1,C,7,L,7,L,9,0.8432,0.271631,0.229039
9,67,9,2,9,8,1,C,7,L,1,S,10,0.822505,0.322982,0.265655
9,68,2,8,1,9,1,C,6,S,8,L,9,0.276986,0.83318,0.23078
9,69,9,2,1,2,1,I,7,L,1,S,12,0.777646,0.486816,0.378571
9,70,9,1,9,8,1,C,8,L,1,S,10,0.829953,0.318497,0.264338
9,71,1,2,2,1,1,I,1,S,1,S,17,0.549118,0.77127,0.423518
9,72,9,1,1,2,1,I,8,L,1,S,12,0.78556,0.481748,0.378442
9,73,1,9,2,1,1,I,8,L,1,S,10,0.386149,0.768302,0.296679
9,74,1,9,2,8,1,C,8,L,6,S,9,0.276153,0.836288,0.230944
9,75,2,1,2,9,1,I,1,S,7,L,20,0.760843,0.627807,0.477662
9,76,2,1,8,9,1,I,1,S,1,S,15,0.786533,0.461749,0.363181
9,77,1,8,2,9,1,C,7,L,7,L,9,0.288959,0.816324,0.235884
9,78,1,2,1,8,1,C,1,S,7,L,10,0.323698,0.81796,0.264772
9,79,9,2,2,1,1,C,7,L,1,S,9,0.752188,0.341524,0.25689
9,80,8,1,9,1,1,C,7,L,8,L,9,0.820038,0.289551,0.237442
9,81,1,9,2,9,1,C,8,L,7,L,9,0.295815,0.811565,0.240073
9,82,1,8,2,1,1,I,7,L,1,S,10,0.379202,0.77326,0.293222
9,83,8,9,8,9,1,C,1,S,1,S,13,0.425726,0.77507,0.329968
9,84,1,8,1,2,1,C,7,L,1,S,9,0.278868,0.830722,0.231661
9,85,8,2,2,1,1,C,6,S,1,S,10,0.787076,0.348876,0.274592
9,86,8,9,1,2,1,C,1,S,1,S,11,0.36733,0.804177,0.295398
9,87,2,8,2,9,1,C,6,S,7,L,9,0.327769,0.76373,0.250327
9,88,2,8,2,1,1,I,6,S,1,S,11,0.415171,0.768646,0.31912
9,89,9,8,9,8,1,C,1,S,1,S,15,0.801847,0.416464,0.33394
9,90,1,2,9,8,1,I,1,S,1,S,15,0.503953,0.75236,0.379154
9,91,2,8,9,1,1,I,6,S,8,L,14,0.576558,0.756812,0.436346
9,92,2,8,2,8,1,C,6,S,6,S,9,0.308107,0.788453,0.242928
9,93,9,8,2,8,0,I,1,S,6,S,12,0.442557,0.750011,0.331923
9,94,8,9,2,9,1,C,1,S,7,L,11,0.381114,0.78432,0.298915
9,95,1,9,1,9,1,C,8,L,8,L,8,0.284132,0.768133,0.218251
9,96,2,9,9,1,1,I,7,L,8,L,15,0.583619,0.775666,0.452694
9,97,2,8,9,2,1,I,6,S,7,L,14,0.561136,0.769669,0.431889
9,98,8,1,2,1,1,C,7,L,1,S,10,0.796551,0.342897,0.273135
9,99,8,1,8,9,1,I,7,L,1,S,11,0.800687,0.381302,0.305304
9,100,1,8,8,2,1,I,7,L,6,S,11,0.440989,0.777132,0.342707
9,101,8,2,9,1,1,C,6,S,8,L,9,0.811889,0.29462,0.239199
9,102,2,9,2,1,1,I,7,L,1,S,11,0.42622,0.7586,0.323331
9,103,9,1,1,9,1,I,8,L,8,L,13,0.767874,0.552117,0.423956
9,104,9,8,8,9,1,I,1,S,1,S,23,0.769701,0.589475,0.453719
9,105,9,1,8,2,1,C,8,L,6,S,9,0.80247,0.304144,0.244067
9,106,9,2,2,9,1,I,7,L,7,L,11,0.752495,0.461333,0.347151
9,107,1,9,1,2,1,C,8,L,1,S,9,0.285724,0.825963,0.235997
9,108,9,8,9,2,1,C,1,S,7,L,11,0.781514,0.386353,0.30194
9,109,8,2,8,1,1,C,6,S,7,L,9,0.770292,0.325803,0.250964
9,110,2,9,9,8,1,I,7,L,1,S,11,0.404153,0.775584,0.313455
9,111,8,1,1,9,1,I,7,L,8,L,15,0.773935,0.588603,0.45554
9,112,8,2,8,2,1,C,6,S,6,S,10,0.844342,0.305759,0.258165
9,113,9,8,1,8,0,I,1,S,7,L,11,0.399323,0.778941,0.31105
9,114,9,2,8,2,1,C,7,L,6,S,9,0.795703,0.308102,0.245157
9,115,1,9,9,2,1,I,8,L,7,L,12,0.516119,0.763703,0.394162
9,116,8,1,1,2,1,I,7,L,1,S,13,0.766348,0.526307,0.403334
9,117,2,1,9,2,1,C,1,S,7,L,10,0.771753,0.361697,0.279141
9,118,8,1,9,2,1,C,7,L,7,L,9,0.80551,0.301018,0.242473
9,119,2,9,2,8,1,C,7,L,6,S,9,0.318029,0.780229,0.248136
9,120,2,8,8,2,1,I,6,S,6,S,12,0.491527,0.755365,0.371282
9,121,1,2,2,9,1,C,1,S,7,L,11,0.362796,0.796616,0.289009
9,122,2,1,1,9,1,I,1,S,8,L,22,0.762007,0.652124,0.496924
9,123,1,2,1,9,1,C,1,S,8,L,10,0.335865,0.802112,0.269401
9,124,1,9,1,8,1,C,8,L,7,L,8,0.273895,0.781377,0.214015
9,125,9,1,8,9,1,I,8,L,1,S,10,0.788098,0.362173,0.285428
9,126,8,1,8,1,1,C,7,L,7,L,9,0.778441,0.320734,0.249672
9,127,8,1,8,2,1,C,7,L,6,S,9,0.758013,0.337489,0.255821
9,128,1,8,2,8,1,C,7,L,6,S,9,0.269297,0.841047,0.226491
9,129,1,8,9,8,1,I,7,L,1,S,10,0.362792,0.785977,0.285146
9,130,8,2,9,2,1,C,6,S,7,L,9,0.797361,0.306087,0.244062
9,131,9,8,1,2,0,I,1,S,1,S,13,0.447856,0.7705,0.345073
9,132,9,2,9,1,1,C,7,L,8,L,9,0.857728,0.260164,0.22315
9,133,2,1,2,8,1,I,1,S,6,S,21,0.764483,0.63651,0.4866
9,134,8,9,9,1,0,I,1,S,8,L,14,0.752729,0.532387,0.400743
9,135,9,8,2,9,0,I,1,S,7,L,14,0.458826,0.776795,0.356414
9,136,2,8,8,1,1,I,6,S,7,L,13,0.525781,0.765747,0.402615
9,137,9,1,9,2,1,C,8,L,7,L,9,0.849967,0.267673,0.227514
9,138,2,1,8,2,1,C,1,S,6,S,11,0.787911,0.3744,0.294993
9,139,8,9,8,2,1,I,1,S,6,S,20,0.638516,0.754044,0.481469
9,140,8,2,2,9,1,I,6,S,7,L,13,0.771071,0.511742,0.39459
9,141,9,1,2,1,1,C,8,L,1,S,9,0.758956,0.337566,0.256198
9,142,9,1,2,8,1,I,8,L,6,S,12,0.773573,0.495595,0.383379
9,143,8,9,9,8,1,I,1,S,1,S,16,0.525415,0.759001,0.398791
9,144,8,2,1,2,1,I,6,S,1,S,13,0.755416,0.533695,0.403162
10,1,8,1,8,1,1,C,7,L,7,L,9,0.85321,0.262894,0.224304
10,2,8,9,9,8,1,I,1,S,1,S,15,0.448816,0.77601,0.348285
10,3,9,8,9,2,1,C,1,S,7,L,11,0.767174,0.403319,0.309416
10,4,9,2,8,1,1,C,7,L,7,L,9,0.786639,0.312072,0.245488
10,5,2,9,9,8,1,I,7,L,1,S,10,0.366086,0.768441,0.281315
10,6,2,1,2,8,1,I,1,S,6,S,18,0.764463,0.624172,0.477156
10,7,8,1,1,9,1,I,7,L,8,L,14,0.77855,0.573098,0.446185
10,8,9,2,9,1,1,C,7,L,8,L,9,0.82271,0.287402,0.236449
10,9,8,9,2,9,1,C,1,S,7,L,11,0.380193,0.798312,0.303513
10,10,2,1,1,2,1,I,1,S,1,S,13,0.781872,0.442435,0.345928
10,11,9,8,2,1,1,C,1,S,1,S,13,0.789729,0.419572,0.331348
10,12,1,2,2,1,0,I,1,S,1,S,14,0.76428,0.474204,0.362425
10,13,9,8,8,2,1,C,1,S,6,S,12,0.752476,0.432976,0.325804
10,14,9,1,1,2,1,I,8,L,1,S,10,0.76429,0.378427,0.289228
10,15,1,2,9,1,0,I,1,S,8,L,11,0.779549,0.404253,0.315135
10,16,1,9,8,9,1,C,8,L,1,S,9,0.316878,0.781214,0.247549
10,17,2,9,1,2,1,C,7,L,1,S,10,0.370622,0.761413,0.282197
10,18,1,2,1,2,1,C,1,S,1,S,14,0.444424,0.759619,0.337593
10,19,9,8,8,1,1,C,1,S,7,L,11,0.76658,0.403053,0.308972
10,20,1,2,9,8,1,I,1,S,1,S,14,0.431184,0.778701,0.335764
10,21,2,9,2,1,1,I,7,L,1,S,13,0.517535,0.761655,0.394183
10,22,1,2,9,2,0,I,1,S,7,L,12,0.77909,0.427306,0.33291
10,23,9,2,9,8,1,C,7,L,1,S,12,0.794258,0.419006,0.332799
10,24,8,2,1,8,1,I,6,S,7,L,16,0.773313,0.60702,0.469417
10,25,1,8,2,1,1,I,7,L,1,S,13,0.514965,0.763981,0.393423
10,26,2,1,1,8,1,I,1,S,7,L,18,0.751168,0.641587,0.48194
10,27,1,9,8,2,1,I,8,L,6,S,13,0.514751,0.769367,0.396032
10,28,9,2,2,8,1,I,7,L,6,S,15,0.750797,0.599661,0.450224
10,29,1,9,9,8,1,I,8,L,1,S,10,0.357024,0.779273,0.278219
10,30,8,1,2,1,1,C,7,L,1,S,9,0.800399,0.300554,0.240563
10,31,8,2,2,1,1,C,6,S,1,S,10,0.834775,0.310677,0.259345
10,32,9,1,9,2,1,C,8,L,7,L,9,0.846802,0.265754,0.225041
10,33,9,1,9,1,1,C,8,L,8,L,8,0.769948,0.279542,0.215233
10,34,1,8,9,8,1,I,7,L,1,S,10,0.363611,0.770593,0.280196
10,35,8,2,2,9,1,I,6,S,7,L,15,0.751807,0.606172,0.455724
10,36,1,8,9,1,1,I,7,L,8,L,16,0.610697,0.770551,0.470573
10,37,1,2,1,8,1,C,1,S,7,L,10,0.378184,0.761944,0.288155
10,38,9,1,8,2,1,C,8,L,6,S,9,0.79818,0.300574,0.239912
10,39,9,8,1,9,0,I,1,S,8,L,10,0.388506,0.753083,0.292577
10,40,1,8,8,9,1,C,7,L,1,S,9,0.322621,0.773799,0.249643
10,41,8,1,8,2,1,C,7,L,6,S,9,0.805028,0.29813,0.240003
10,42,8,2,8,9,1,I,6,S,1,S,14,0.760587,0.562206,0.427606
10,43,2,9,9,2,1,I,7,L,7,L,15,0.585823,0.769239,0.450638
10,44,2,1,2,1,1,C,1,S,1,S,10,0.774825,0.351524,0.272369
10,45,2,8,8,1,1,I,6,S,7,L,15,0.593248,0.759009,0.450281
10,46,8,9,8,1,0,I,1,S,7,L,11,0.758373,0.414651,0.31446
10,47,1,8,1,9,1,C,7,L,8,L,9,0.278856,0.835809,0.233071
10,48,2,8,8,9,1,C,6,S,1,S,9,0.330998,0.764172,0.252939
10,49,8,1,8,9,1,I,7,L,1,S,12,0.768556,0.500237,0.38446
10,50,2,9,9,1,1,I,7,L,8,L,16,0.612845,0.768806,0.471159
10,51,2,9,1,9,1,C,7,L,8,L,9,0.281124,0.833985,0.234453
10,52,2,1,8,9,1,I,1,S,1,S,17,0.763249,0.60623,0.462704
10,53,2,8,1,2,1,C,6,S,1,S,10,0.377715,0.752128,0.28409
10,54,2,9,1,8,1,C,7,L,7,L,9,0.2894,0.822393,0.238001
10,55,8,2,9,2,1,C,6,S,7,L,9,0.794815,0.309397,0.245913
10,56,1,8,2,8,1,C,7,L,6,S,9,0.300593,0.803459,0.241514
10,57,2,1,9,2,1,C,1,S,7,L,10,0.836794,0.308397,0.258065
10,58,2,8,9,1,1,I,6,S,8,L,16,0.620801,0.759131,0.471269
10,59,9,2,8,2,1,C,7,L,6,S,10,0.831222,0.311678,0.259073
10,60,2,8,2,9,1,C,6,S,7,L,9,0.299281,0.807343,0.241623
10,61,1,9,1,2,1,C,8,L,1,S,10,0.36156,0.772245,0.279213
10,62,1,2,2,9,1,C,1,S,7,L,10,0.382454,0.754119,0.288416
10,63,2,9,8,9,1,C,7,L,1,S,9,0.324888,0.771975,0.250806
10,64,1,8,2,9,1,C,7,L,7,L,9,0.290904,0.81697,0.23766
10,65,9,8,8,9,0,I,1,S,1,S,12,0.410098,0.784611,0.321767
10,66,9,2,2,1,1,C,7,L,1,S,10,0.82556,0.314784,0.259873
10,67,8,1,2,8,1,I,7,L,6,S,13,0.774431,0.539544,0.41784
10,68,2,8,9,8,1,I,6,S,1,S,10,0.373179,0.759156,0.283301
10,69,8,2,2,8,1,I,6,S,6,S,15,0.762331,0.592945,0.45202
10,70,8,2,1,9,1,I,6,S,8,L,16,0.765314,0.61688,0.472107
10,71,8,2,9,8,1,C,6,S,1,S,11,0.755034,0.424561,0.320558
10,72,1,8,9,2,1,I,7,L,7,L,15,0.583503,0.771214,0.450006
10,73,9,1,9,8,1,C,8,L,1,S,10,0.759754,0.385455,0.292851
10,74,8,9,1,8,1,C,1,S,7,L,11,0.375572,0.806424,0.30287
10,75,9,1,1,9,1,I,8,L,8,L,14,0.77011,0.577493,0.444733
10,76,8,2,9,1,1,C,6,S,8,L,9,0.830445,0.284311,0.236105
10,77,2,8,1,9,1,C,6,S,8,L,9,0.287233,0.826182,0.237307
10,78,8,1,9,2,1,C,7,L,7,L,9,0.853651,0.26331,0.224775
10,79,9,8,9,1,1,C,1,S,8,L,10,0.752407,0.388666,0.292435
10,80,2,8,2,1,1,I,6,S,1,S,13,0.526022,0.750685,0.394877
10,81,9,1,1,8,1,I,8,L,7,L,14,0.778899,0.566307,0.441096
10,82,1,9,9,2,1,I,8,L,7,L,14,0.578759,0.752886,0.43574
10,83,1,2,1,9,1,C,1,S,8,L,10,0.369333,0.774186,0.285932
10,84,1,2,8,9,1,C,1,S,1,S,11,0.398839,0.765531,0.305323
10,85,9,1,8,9,1,I,8,L,1,S,12,0.760153,0.504202,0.383271
10,86,2,8,9,2,1,I,6,S,7,L,15,0.5941,0.758961,0.450899
10,87,8,1,9,1,1,C,7,L,8,L,8,0.775768,0.277802,0.21551
10,88,9,2,2,9,1,I,7,L,7,L,16,0.766801,0.606449,0.465026
10,89,9,1,2,9,1,I,8,L,7,L,13,0.754741,0.558443,0.42148
10,90,2,9,2,8,1,C,7,L,6,S,9,0.302861,0.801636,0.242784
10,91,8,2,8,1,1,C,6,S,7,L,9,0.794374,0.308981,0.245446
10,92,2,1,9,1,1,C,1,S,8,L,9,0.7819,0.317546,0.248289
10,93,9,8,9,8,0,C,1,S,1,S,16,0.46055,0.77495,0.356904
10,94,8,9,9,2,0,I,1,S,7,L,11,0.758967,0.414917,0.314908
10,95,9,2,1,2,1,I,7,L,1,S,11,0.751049,0.420133,0.315541
10,96,2,1,9,8,1,C,1,S,1,S,13,0.770945,0.458134,0.353196
10,97,9,2,8,9,1,I,7,L,1,S,15,0.776815,0.567219,0.440625
10,98,2,9,8,1,1,I,7,L,7,L,15,0.584971,0.769287,0.450011
10,99,8,1,2,9,1,I,7,L,7,L,13,0.763228,0.554211,0.42299
10,100,2,8,2,8,1,C,6,S,6,S,9,0.30897,0.793832,0.24527
10,101,8,9,2,1,0,I,1,S,1,S,13,0.772766,0.440349,0.340286
10,102,2,1,8,2,1,C,1,S,6,S,10,0.780487,0.348417,0.271935
10,103,2,1,2,9,1,I,1,S,7,L,18,0.755589,0.634866,0.479698
10,104,8,9,8,2,0,I,1,S,6,S,13,0.780241,0.435815,0.340041
10,105,1,9,1,9,1,C,8,L,8,L,9,0.273113,0.843224,0.230296
10,106,1,9,2,1,1,I,8,L,1,S,13,0.507276,0.773901,0.392581
10,107,2,1,1,9,1,I,1,S,8,L,19,0.767721,0.637487,0.489412
10,108,9,8,2,9,0,I,1,S,7,L,11,0.3884,0.786714,0.305559
10,109,2,1,8,1,1,C,1,S,7,L,10,0.836276,0.308051,0.257616
10,110,2,9,2,9,1,C,7,L,7,L,9,0.293172,0.815147,0.238978
10,111,8,1,1,8,1,I,7,L,7,L,13,0.758298,0.562284,0.426379
10,112,8,9,1,9,1,C,1,S,8,L,10,0.383078,0.761756,0.291812
10,113,8,1,1,2,1,I,7,L,1,S,10,0.771918,0.375359,0.289746
10,114,9,2,1,8,1,I,7,L,7,L,16,0.762056,0.613763,0.467722
10,115,1,2,8,1,0,I,1,S,7,L,12,0.778422,0.427124,0.332482
10,116,9,8,2,8,0,I,1,S,6,S,11,0.399476,0.771587,0.30823
10,117,1,9,1,8,1,C,8,L,7,L,9,0.281389,0.831632,0.234012
10,118,8,9,1,2,1,C,1,S,1,S,15,0.464103,0.75394,0.349906
10,119,1,9,2,9,1,C,8,L,7,L,9,0.285161,0.824385,0.235083
10,120,1,8,8,1,1,I,7,L,7,L,15,0.582651,0.771262,0.449377
10,121,8,2,8,2,1,C,6,S,6,S,10,0.840436,0.307571,0.258494
10,122,8,2,1,2,1,I,6,S,1,S,11,0.761433,0.415134,0.316097
10,123,1,9,8,1,1,I,8,L,7,L,14,0.577962,0.752863,0.435126
10,124,8,9,2,8,1,C,1,S,6,S,11,0.391269,0.783185,0.306436
10,125,9,8,1,2,0,I,1,S,1,S,16,0.477447,0.750663,0.358402
10,126,1,8,1,2,1,C,7,L,1,S,10,0.368147,0.763566,0.281105
10,127,9,2,1,9,1,I,7,L,8,L,16,0.754057,0.623623,0.470247
10,128,9,2,9,2,1,C,7,L,7,L,9,0.78708,0.312488,0.245953
10,129,2,8,1,8,1,C,6,S,7,L,9,0.295509,0.81459,0.240719
10,130,9,1,8,1,1,C,8,L,7,L,9,0.846361,0.265338,0.224572
10,131,1,9,2,8,1,C,8,L,6,S,9,0.29485,0.810874,0.239086
10,132,2,9,8,2,1,I,7,L,6,S,13,0.525009,0.757122,0.397496
10,133,1,8,1,8,1,C,7,L,7,L,9,0.287132,0.824217,0.236659
10,134,1,9,9,1,1,I,8,L,8,L,15,0.610311,0.75349,0.459863
10,135,9,8,1,8,0,I,1,S,7,L,11,0.383779,0.794825,0.305037
10,136,1,2,8,2,0,I,1,S,6,S,14,0.771857,0.469464,0.362359
10,137,9,1,2,1,1,C,8,L,1,S,9,0.79355,0.302998,0.240444
10,138,8,9,9,1,0,I,1,S,8,L,11,0.798294,0.386455,0.308505
10,139,1,2,2,8,1,C,1,S,6,S,11,0.372523,0.800984,0.298385
10,140,1,8,8,2,1,I,7,L,6,S,13,0.52244,0.759447,0.396765
10,141,8,9,8,9,1,C,1,S,1,S,12,0.398145,0.800131,0.318568
10,142,9,1,2,8,1,I,8,L,6,S,13,0.765944,0.543776,0.416502
10,143,2,8,8,2,1,I,6,S,6,S,14,0.534837,0.77739,0.415776
10,144,8,1,9,8,1,C,7,L,1,S,10,0.767382,0.382386,0.293436
11,1,2,8,8,9,1,C,6,S,1,S,11,0.439867,0.763736,0.335942
11,2,9,1,2,8,1,I,8,L,6,S,10,0.773065,0.409301,0.316416
11,3,2,1,2,8,1,I,1,S,6,S,17,0.752286,0.603847,0.454266
11,4,8,9,1,9,1,C,1,S,8,L,10,0.330088,0.806142,0.266097
11,5,9,2,1,8,1,I,7,L,7,L,11,0.768642,0.453194,0.348344
11,6,1,8,8,2,1,I,7,L,6,S,13,0.538559,0.771413,0.415451
11,7,8,9,9,2,1,I,1,S,7,L,18,0.613293,0.773078,0.474123
11,8,8,9,9,1,1,I,1,S,8,L,18,0.627442,0.762315,0.478308
11,9,9,8,1,9,1,I,1,S,8,L,18,0.75762,0.622647,0.47173
11,10,2,9,2,8,1,C,7,L,6,S,9,0.29448,0.8094,0.238352
11,11,9,1,2,9,1,I,8,L,7,L,10,0.753339,0.437114,0.329295
11,12,2,8,2,1,1,I,6,S,1,S,10,0.358841,0.785635,0.281918
11,13,2,1,9,2,1,C,1,S,7,L,10,0.800198,0.33501,0.268074
11,14,8,9,1,2,1,C,1,S,1,S,11,0.390419,0.762654,0.297755
11,15,9,2,2,1,1,C,7,L,1,S,10,0.817294,0.336827,0.275286
11,16,9,2,9,8,1,C,7,L,1,S,9,0.800624,0.306292,0.245224
11,17,2,1,8,1,1,C,1,S,7,L,10,0.831899,0.311169,0.258861
11,18,8,1,2,8,1,I,7,L,6,S,12,0.785315,0.472073,0.370726
11,19,8,2,9,8,1,C,6,S,1,S,10,0.788882,0.346412,0.273279
11,20,1,8,8,9,1,C,7,L,1,S,11,0.433402,0.770845,0.334085
11,21,2,1,8,2,1,C,1,S,6,S,10,0.817129,0.320565,0.261943
11,22,9,2,9,1,1,C,7,L,8,L,8,0.758611,0.293522,0.222669
11,23,1,8,2,1,1,I,7,L,1,S,10,0.352563,0.792524,0.279414
11,24,9,1,8,9,1,I,8,L,1,S,9,0.846779,0.269353,0.228083
11,25,1,8,1,8,1,C,7,L,7,L,9,0.299228,0.801561,0.239849
11,26,2,1,1,9,1,I,1,S,8,L,18,0.754963,0.622491,0.469958
11,27,8,2,2,8,1,I,6,S,6,S,14,0.751001,0.554871,0.416708
11,28,1,8,1,2,1,C,7,L,1,S,10,0.323524,0.820817,0.265554
11,29,2,8,2,8,1,C,6,S,6,S,9,0.305496,0.795347,0.242975
11,30,2,8,8,2,1,I,6,S,6,S,13,0.544873,0.764688,0.416658
11,31,8,2,9,1,1,C,6,S,8,L,9,0.773687,0.325721,0.252006
11,32,2,9,2,1,1,I,7,L,1,S,10,0.346853,0.801029,0.277839
11,33,2,9,9,1,1,I,7,L,8,L,12,0.529399,0.750125,0.397115
11,34,1,9,9,2,1,I,8,L,7,L,12,0.505312,0.768702,0.388434
11,35,2,1,8,9,1,I,1,S,1,S,11,0.811643,0.348959,0.28323
11,36,2,8,1,2,1,C,6,S,1,S,10,0.329802,0.813928,0.268435
11,37,8,9,2,8,1,C,1,S,6,S,10,0.350093,0.778531,0.272558
11,38,9,8,8,9,1,I,1,S,1,S,11,0.812455,0.351122,0.285271
11,39,8,2,1,8,1,I,6,S,7,L,14,0.750778,0.554628,0.416403
11,40,8,2,8,2,1,C,6,S,6,S,9,0.773746,0.322204,0.249304
11,41,8,9,8,2,1,I,1,S,6,S,18,0.624652,0.761833,0.475881
11,42,8,1,2,9,1,I,7,L,7,L,12,0.761834,0.504792,0.384568
11,43,9,1,1,2,1,I,8,L,1,S,9,0.768585,0.341594,0.262544
11,44,9,2,8,9,1,I,7,L,1,S,9,0.798688,0.305759,0.244206
11,45,1,9,2,8,1,C,8,L,6,S,9,0.289157,0.815038,0.235674
11,46,8,9,9,8,1,I,1,S,1,S,15,0.556526,0.756386,0.420948
11,47,1,9,9,8,1,I,8,L,1,S,11,0.424436,0.785789,0.333518
11,48,1,8,9,8,1,I,7,L,1,S,11,0.43624,0.770754,0.336234
11,49,8,2,2,9,1,I,6,S,7,L,15,0.755169,0.585813,0.442388
11,50,9,8,8,1,1,C,1,S,7,L,10,0.832632,0.313404,0.26095
11,51,9,8,2,8,1,I,1,S,6,S,17,0.754688,0.604304,0.456061
11,52,8,9,2,9,1,C,1,S,7,L,10,0.330366,0.806345,0.266389
11,53,9,8,9,2,1,C,1,S,7,L,10,0.800931,0.337245,0.27011
11,54,2,1,9,8,1,C,1,S,1,S,11,0.814481,0.348868,0.284147
11,55,9,2,2,8,1,I,7,L,6,S,11,0.769003,0.453308,0.348595
11,56,1,2,9,2,1,I,1,S,7,L,21,0.645299,0.758951,0.489751
11,57,9,1,1,9,1,I,8,L,8,L,10,0.75306,0.436911,0.32902
11,58,9,2,8,1,1,C,7,L,7,L,8,0.770234,0.282875,0.21788
11,59,2,9,9,8,1,I,7,L,1,S,11,0.430163,0.77963,0.335368
11,60,1,2,9,8,1,I,1,S,1,S,19,0.614221,0.759224,0.466332
11,61,2,9,2,9,1,C,7,L,7,L,9,0.277681,0.832813,0.231256
11,62,2,8,1,8,1,C,6,S,7,L,9,0.3051,0.795265,0.242635
11,63,8,1,8,1,1,C,7,L,7,L,8,0.752842,0.292175,0.219962
11,64,1,9,1,9,1,C,8,L,8,L,9,0.272051,0.83828,0.228055
11,65,1,2,8,1,1,I,1,S,7,L,22,0.647493,0.766001,0.49598
11,66,1,2,8,9,1,C,1,S,1,S,19,0.609881,0.761176,0.464226
11,67,9,8,2,1,1,C,1,S,1,S,12,0.761862,0.42082,0.320607
11,68,1,9,2,1,1,I,8,L,1,S,10,0.341235,0.807086,0.275406
11,69,2,9,1,2,1,C,7,L,1,S,10,0.317814,0.829322,0.26357
11,70,8,2,8,9,1,I,6,S,1,S,10,0.786514,0.346164,0.272263
11,71,1,8,9,2,1,I,7,L,7,L,12,0.51725,0.753751,0.389877
11,72,8,1,2,1,1,C,7,L,1,S,10,0.795101,0.349625,0.277987
11,73,9,8,8,2,1,C,1,S,6,S,10,0.817862,0.3228,0.264006
11,74,2,9,9,2,1,I,7,L,7,L,12,0.510989,0.762684,0.389723
11,75,8,9,8,9,1,C,1,S,1,S,15,0.552361,0.757757,0.418556
11,76,1,9,1,8,1,C,8,L,7,L,9,0.288761,0.814956,0.235328
11,77,1,9,2,9,1,C,8,L,7,L,9,0.272358,0.838451,0.228359
11,78,8,2,9,2,1,C,6,S,7,L,9,0.758521,0.335482,0.25447
11,79,2,1,9,1,1,C,1,S,8,L,10,0.817199,0.323915,0.264704
11,80,9,8,2,9,1,I,1,S,7,L,18,0.757553,0.623148,0.472068
11,81,2,1,2,9,1,I,1,S,7,L,18,0.754896,0.622992,0.470294
11,82,2,9,1,8,1,C,7,L,7,L,9,0.294084,0.809318,0.238007
11,83,8,2,8,1,1,C,6,S,7,L,9,0.787246,0.313794,0.247033
11,84,2,1,1,8,1,I,1,S,7,L,17,0.752217,0.603468,0.453939
11,85,9,8,9,8,1,C,1,S,1,S,11,0.815293,0.351032,0.286194
11,86,8,1,9,8,1,C,7,L,1,S,9,0.780371,0.317548,0.247805
11,87,1,9,8,1,1,I,8,L,7,L,13,0.542032,0.775384,0.420283
11,88,1,2,2,9,1,C,1,S,7,L,10,0.373205,0.753774,0.281312
11,89,8,1,1,2,1,I,7,L,1,S,10,0.766062,0.377918,0.289509
11,90,9,2,8,2,1,C,7,L,6,S,8,0.758652,0.289987,0.22
11,91,8,2,2,1,1,C,6,S,1,S,11,0.770278,0.396047,0.305066
11,92,1,2,8,2,1,I,1,S,6,S,21,0.653307,0.7504,0.490242
11,93,9,1,9,8,1,C,8,L,1,S,9,0.848714,0.269886,0.229056
11,94,1,2,2,8,1,C,1,S,6,S,11,0.362217,0.799961,0.289759
11,95,9,2,1,9,1,I,7,L,8,L,12,0.785164,0.489964,0.384702
11,96,1,8,1,9,1,C,7,L,8,L,9,0.282517,0.824885,0.233044
11,97,2,9,8,1,1,I,7,L,7,L,13,0.547539,0.769678,0.421429
11,98,2,1,1,2,1,I,1,S,1,S,14,0.786915,0.457507,0.360019
11,99,9,8,9,1,1,C,1,S,8,L,10,0.817933,0.326151,0.26677
11,100,8,1,9,2,1,C,7,L,7,L,9,0.834474,0.276488,0.230723
11,101,8,1,9,1,1,C,7,L,8,L,9,0.84964,0.266728,0.226623
11,102,1,8,8,1,1,I,7,L,7,L,13,0.553828,0.760914,0.421416
11,103,8,1,8,9,1,I,7,L,1,S,9,0.778435,0.317015,0.246776
11,104,8,2,1,2,1,I,6,S,1,S,12,0.780858,0.423886,0.330995
11,105,2,1,2,1,1,C,1,S,1,S,12,0.76088,0.418827,0.318678
11,106,2,8,1,9,1,C,6,S,8,L,9,0.288389,0.818589,0.236072
11,107,1,2,1,9,1,C,1,S,8,L,10,0.372927,0.753571,0.281027
11,108,1,2,9,1,1,I,1,S,8,L,21,0.6569,0.750053,0.49271
11,109,9,1,2,1,1,C,8,L,1,S,9,0.789537,0.321993,0.254225
11,110,8,1,8,2,1,C,7,L,6,S,9,0.8497,0.26321,0.22365
11,111,9,1,1,8,1,I,8,L,7,L,10,0.772678,0.40921,0.316188
11,112,2,9,8,9,1,C,7,L,1,S,11,0.427324,0.77972,0.333193
11,113,1,9,1,2,1,C,8,L,1,S,9,0.340256,0.752516,0.256048
11,114,1,2,1,2,1,C,1,S,1,S,12,0.416399,0.754765,0.314284
11,115,2,9,8,2,1,I,7,L,6,S,13,0.532269,0.780177,0.415264
11,116,1,8,9,1,1,I,7,L,8,L,13,0.539563,0.773756,0.417491
11,117,8,2,1,9,1,I,6,S,8,L,15,0.75512,0.585406,0.442052
11,118,9,1,9,2,1,C,8,L,7,L,8,0.789106,0.268732,0.212058
11,119,9,1,9,1,1,C,8,L,8,L,8,0.801732,0.260656,0.208976
11,120,9,2,2,9,1,I,7,L,7,L,12,0.785356,0.49025,0.385021
11,121,9,8,1,8,1,I,1,S,7,L,17,0.754619,0.603925,0.455733
11,122,2,8,8,1,1,I,6,S,7,L,13,0.560143,0.754188,0.422453
11,123,2,8,9,8,1,I,6,S,1,S,11,0.442706,0.763645,0.33807
11,124,2,8,2,9,1,C,6,S,7,L,9,0.288697,0.81876,0.236373
11,125,2,9,1,9,1,C,7,L,8,L,9,0.277374,0.832642,0.230953
11,126,8,9,8,1,1,I,1,S,7,L,18,0.636573,0.752987,0.479331
11,127,2,8,9,1,1,I,6,S,8,L,13,0.545878,0.767031,0.418705
11,128,8,1,1,8,1,I,7,L,7,L,12,0.784993,0.471922,0.370456
11,129,1,8,2,9,1,C,7,L,7,L,9,0.282825,0.825056,0.233346
11,130,1,9,8,9,1,C,8,L,1,S,11,0.421598,0.78588,0.331325
11,131,9,2,9,2,1,C,7,L,7,L,9,0.854727,0.265232,0.226701
11,132,1,9,9,1,1,I,8,L,8,L,12,0.523722,0.756142,0.396008
11,133,1,9,8,2,1,I,8,L,6,S,12,0.523082,0.753415,0.394097
11,134,1,8,2,8,1,C,7,L,6,S,9,0.299624,0.801643,0.240191
11,135,1,2,1,8,1,C,1,S,7,L,11,0.361856,0.799847,0.289429
11,136,9,2,1,2,1,I,7,L,1,S,10,0.788255,0.36512,0.287807
11,137,2,8,9,2,1,I,6,S,7,L,13,0.527643,0.779782,0.411446
11,138,9,1,8,2,1,C,8,L,6,S,8,0.801773,0.257121,0.206153
11,139,8,9,1,8,1,C,1,S,7,L,10,0.349705,0.778441,0.272225
11,140,8,1,1,9,1,I,7,L,8,L,12,0.761642,0.504507,0.384254
11,141,9,8,1,2,1,I,1,S,1,S,14,0.788434,0.458946,0.361848
11,142,9,1,8,1,1,C,8,L,7,L,8,0.813355,0.250008,0.203346
11,143,8,9,2,1,1,I,1,S,1,S,12,0.407894,0.779634,0.318008
11,144,1,2,2,1,1,I,1,S,1,S,14,0.423841,0.796016,0.337384
12,1,1,2,9,8,1,I,1,S,1,S,13,0.430866,0.771279,0.332318
12,2,8,1,2,8,1,I,7,L,6,S,13,0.777288,0.546904,0.425102
12,3,2,8,2,9,1,C,6,S,7,L,9,0.303214,0.803107,0.243513
12,4,1,2,1,2,1,C,1,S,1,S,12,0.386145,0.789009,0.304672
12,5,8,2,8,9,1,I,6,S,1,S,10,0.763755,0.3738,0.285491
12,6,8,1,9,8,1,C,7,L,1,S,10,0.82476,0.327321,0.269961
12,7,9,1,2,8,1,I,8,L,6,S,14,0.773621,0.57233,0.442766
12,8,9,1,9,8,1,C,8,L,1,S,10,0.79179,0.351724,0.278491
12,9,2,8,1,8,1,C,6,S,7,L,9,0.277108,0.840155,0.232814
12,10,1,9,2,8,1,C,8,L,6,S,8,0.288166,0.760142,0.219047
12,11,2,9,8,2,1,I,7,L,6,S,12,0.503329,0.752532,0.378771
12,12,1,8,2,9,1,C,7,L,7,L,9,0.282037,0.826327,0.233055
12,13,1,8,8,1,1,I,7,L,7,L,12,0.515723,0.750825,0.387218
12,14,2,1,8,1,1,C,1,S,7,L,11,0.816686,0.355133,0.290032
12,15,9,2,9,1,1,C,7,L,8,L,9,0.824326,0.284201,0.234274
12,16,8,1,2,1,1,C,7,L,1,S,10,0.821983,0.329618,0.270941
12,17,9,8,1,8,0,I,1,S,7,L,11,0.390231,0.788171,0.307569
12,18,1,9,1,9,1,C,8,L,8,L,9,0.281284,0.826518,0.232486
12,19,2,8,9,1,1,I,6,S,8,L,15,0.592725,0.775413,0.459607
12,20,9,2,8,2,1,C,7,L,6,S,9,0.753093,0.334212,0.251693
12,21,8,9,9,1,0,I,1,S,8,L,10,0.810161,0.333819,0.270447
12,22,2,8,9,8,1,I,6,S,1,S,10,0.387322,0.753091,0.291689
12,23,9,1,8,1,1,C,8,L,7,L,9,0.820214,0.287288,0.235638
12,24,1,9,2,9,1,C,8,L,7,L,9,0.278321,0.831027,0.231293
12,25,2,1,1,2,1,I,1,S,1,S,17,0.769881,0.530232,0.408216
12,26,8,2,1,9,1,I,6,S,8,L,13,0.773017,0.526066,0.406658
12,27,8,1,9,1,1,C,7,L,8,L,8,0.78359,0.271748,0.212939
12,28,2,9,1,9,1,C,7,L,8,L,9,0.30173,0.804145,0.242634
12,29,1,2,1,8,1,C,1,S,7,L,10,0.315634,0.82519,0.260458
12,30,9,8,1,2,0,I,1,S,1,S,17,0.471852,0.771279,0.363929
12,31,1,9,8,2,1,I,8,L,6,S,12,0.480108,0.778498,0.373763
12,32,8,9,9,8,0,I,1,S,1,S,13,0.76846,0.427491,0.32851
12,33,9,2,2,1,1,C,7,L,1,S,11,0.806687,0.364578,0.2941
12,34,9,2,2,9,1,I,7,L,7,L,14,0.752634,0.56882,0.428114
12,35,2,9,9,2,1,I,7,L,7,L,14,0.574803,0.766477,0.440573
12,36,9,2,1,9,1,I,7,L,8,L,14,0.756665,0.563209,0.426161
12,37,8,9,9,2,0,I,1,S,7,L,10,0.792713,0.345575,0.273942
12,38,8,1,2,9,1,I,7,L,7,L,12,0.778985,0.497095,0.38723
12,39,1,9,9,8,1,I,8,L,1,S,10,0.36022,0.784268,0.282508
12,40,9,1,2,9,1,I,8,L,7,L,13,0.778169,0.526937,0.410046
12,41,8,1,1,9,1,I,7,L,8,L,12,0.782931,0.491339,0.384684
12,42,1,2,8,1,1,I,1,S,7,L,19,0.631792,0.753665,0.476159
12,43,1,8,8,9,1,C,7,L,1,S,10,0.344398,0.797554,0.274676
12,44,1,2,9,1,1,I,1,S,8,L,21,0.640996,0.769291,0.493112
12,45,2,8,1,9,1,C,6,S,8,L,9,0.306176,0.798598,0.244512
12,46,1,9,9,1,1,I,8,L,8,L,14,0.569443,0.777811,0.442919
12,47,1,9,2,1,1,I,8,L,1,S,10,0.357442,0.786565,0.281152
12,48,2,1,8,2,1,C,1,S,6,S,11,0.786851,0.376089,0.295926
12,49,2,1,9,1,1,C,1,S,8,L,10,0.797432,0.347083,0.276775
12,50,9,8,2,9,0,I,1,S,7,L,12,0.405767,0.793359,0.321918
12,51,8,2,9,1,1,C,6,S,8,L,8,0.751676,0.293311,0.220475
12,52,2,1,1,9,1,I,1,S,8,L,22,0.757353,0.650537,0.492686
12,53,2,1,2,9,1,I,1,S,7,L,22,0.754697,0.653945,0.49353
12,54,8,9,2,9,0,C,1,S,7,L,21,0.758412,0.644772,0.489003
12,55,2,8,2,1,1,I,6,S,1,S,10,0.384545,0.755389,0.290481
12,56,8,9,8,9,0,C,1,S,1,S,14,0.75884,0.461312,0.350062
12,57,9,1,9,2,1,C,8,L,7,L,9,0.852171,0.26428,0.225212
12,58,2,9,2,8,1,C,7,L,6,S,9,0.270522,0.84914,0.229711
12,59,8,1,8,2,1,C,7,L,6,S,9,0.827398,0.281184,0.232651
12,60,9,8,2,1,1,C,1,S,1,S,20,0.755042,0.48397,0.365418
12,61,9,8,9,8,1,C,1,S,1,S,19,0.75423,0.484074,0.365103
12,62,2,9,2,9,1,C,7,L,7,L,9,0.298767,0.808654,0.241599
12,63,1,8,9,1,1,I,7,L,8,L,14,0.57361,0.772817,0.443296
12,64,1,2,8,9,1,C,1,S,1,S,12,0.412575,0.759286,0.313262
12,65,1,8,1,2,1,C,7,L,1,S,10,0.329698,0.813171,0.268101
12,66,9,1,1,2,1,I,8,L,1,S,10,0.757214,0.385801,0.292134
12,67,9,2,1,2,1,I,7,L,1,S,11,0.763104,0.409185,0.31225
12,68,1,2,9,2,1,I,1,S,7,L,20,0.64366,0.756175,0.486719
12,69,2,1,2,8,0,I,1,S,6,S,12,0.467829,0.755072,0.353244
12,70,9,8,9,2,1,C,1,S,7,L,11,0.78358,0.391649,0.306888
12,71,9,1,2,1,1,C,8,L,1,S,10,0.789013,0.354021,0.279327
12,72,2,8,8,1,1,I,6,S,7,L,13,0.543644,0.757445,0.411781
12,73,2,1,2,1,1,C,1,S,1,S,14,0.785168,0.428776,0.336662
12,74,8,1,1,2,1,I,7,L,1,S,10,0.790184,0.361398,0.285571
12,75,8,1,1,8,1,I,7,L,7,L,13,0.779841,0.543209,0.423617
12,76,9,2,2,8,1,I,7,L,6,S,16,0.7732,0.603024,0.466258
12,77,8,2,2,8,1,I,6,S,6,S,14,0.764497,0.57737,0.441398
12,78,9,1,8,9,1,I,8,L,1,S,10,0.771914,0.370185,0.285751
12,79,1,8,2,1,1,I,7,L,1,S,10,0.361497,0.781391,0.28247
12,80,9,2,9,8,1,C,7,L,1,S,11,0.810512,0.361301,0.292839
12,81,1,8,1,8,1,C,7,L,7,L,8,0.293249,0.75315,0.22086
12,82,2,9,9,1,1,I,7,L,8,L,14,0.591462,0.754179,0.446068
12,83,8,9,1,8,1,C,1,S,7,L,14,0.535946,0.750858,0.402419
12,84,1,8,2,8,1,C,7,L,6,S,8,0.291403,0.756171,0.220351
12,85,8,1,8,9,1,I,7,L,1,S,10,0.804884,0.345782,0.278314
12,86,2,8,8,2,1,I,6,S,6,S,13,0.512051,0.780366,0.399587
12,87,2,9,9,8,1,I,7,L,1,S,10,0.382352,0.759405,0.29036
12,88,1,9,8,1,1,I,8,L,7,L,12,0.511402,0.756223,0.386734
12,89,2,9,2,1,1,I,7,L,1,S,10,0.379575,0.761702,0.289123
12,90,1,9,9,2,1,I,8,L,7,L,13,0.552527,0.761161,0.420562
12,91,9,2,1,8,1,I,7,L,7,L,16,0.775546,0.599802,0.465174
12,92,8,2,2,9,1,I,6,S,7,L,13,0.76898,0.531818,0.408957
12,93,1,2,1,9,1,C,1,S,8,L,10,0.347948,0.779189,0.271117
12,94,8,2,9,2,1,C,6,S,7,L,9,0.84493,0.267198,0.225764
12,95,1,9,1,2,1,C,8,L,1,S,10,0.325644,0.818345,0.266489
12,96,8,2,9,8,1,C,6,S,1,S,10,0.783632,0.355338,0.278454
12,97,9,1,8,2,1,C,8,L,6,S,9,0.797191,0.303523,0.241966
12,98,9,2,8,9,1,I,7,L,1,S,11,0.78306,0.387408,0.303364
12,99,9,8,9,1,1,C,1,S,8,L,11,0.8015,0.379299,0.304008
12,100,1,2,8,2,1,I,1,S,6,S,19,0.608916,0.772155,0.470177
12,101,9,1,1,8,1,I,8,L,7,L,14,0.776133,0.56877,0.441442
12,102,9,8,2,8,0,I,1,S,6,S,11,0.387745,0.791963,0.30708
12,103,2,1,1,8,0,I,1,S,7,L,12,0.470377,0.751289,0.353389
12,104,1,9,8,9,1,C,8,L,1,S,10,0.340343,0.802729,0.273203
12,105,8,2,2,1,1,C,6,S,1,S,10,0.780855,0.357636,0.279261
12,106,1,2,2,9,1,C,1,S,7,L,10,0.344534,0.784351,0.270236
12,107,8,9,1,9,0,C,1,S,8,L,21,0.761261,0.641121,0.48806
12,108,2,1,9,8,1,C,1,S,1,S,14,0.794769,0.420345,0.334077
12,109,1,9,1,8,1,C,8,L,7,L,8,0.290012,0.75712,0.219574
12,110,1,2,2,8,1,C,1,S,6,S,10,0.313281,0.828878,0.259672
12,111,8,9,2,8,1,C,1,S,6,S,14,0.533433,0.754417,0.402431
12,112,1,2,2,1,1,I,1,S,1,S,13,0.423754,0.777541,0.329486
12,113,2,9,1,2,1,C,7,L,1,S,10,0.347776,0.793483,0.275954
12,114,2,1,9,2,1,C,1,S,7,L,10,0.779985,0.35884,0.27989
12,115,2,9,1,8,1,C,7,L,7,L,9,0.272661,0.845703,0.230591
12,116,9,1,9,1,1,C,8,L,8,L,8,0.757737,0.29118,0.220638
12,117,9,2,9,2,1,C,7,L,7,L,9,0.808073,0.294969,0.238357
12,118,9,8,8,2,1,C,1,S,6,S,12,0.764499,0.424314,0.324387
12,119,8,9,1,2,0,C,1,S,1,S,16,0.778652,0.503457,0.392018
12,120,9,2,8,1,1,C,7,L,7,L,9,0.776116,0.317978,0.246787
12,121,2,8,2,8,1,C,6,S,6,S,9,0.274968,0.843593,0.231961
12,122,8,2,1,2,1,I,6,S,1,S,11,0.808822,0.375148,0.303428
12,123,8,9,2,1,0,I,1,S,1,S,13,0.761348,0.433753,0.330237
12,124,9,8,1,9,0,I,1,S,8,L,12,0.409713,0.787602,0.322691
12,125,8,2,8,1,1,C,6,S,7,L,9,0.812973,0.290206,0.23593
12,126,8,2,8,2,1,C,6,S,6,S,9,0.789951,0.306441,0.242073
12,127,8,9,8,1,0,I,1,S,7,L,10,0.757168,0.371154,0.281026
12,128,2,1,8,9,1,I,1,S,1,S,15,0.764483,0.472865,0.361497
12,129,2,8,9,2,1,I,6,S,7,L,14,0.580186,0.759958,0.440917
12,130,9,8,8,9,0,I,1,S,1,S,20,0.497714,0.757367,0.376952
12,131,8,2,1,8,1,I,6,S,7,L,14,0.76701,0.573811,0.440118
12,132,2,8,1,2,1,C,6,S,1,S,10,0.352746,0.787169,0.277671
12,133,2,9,8,9,1,C,7,L,1,S,10,0.362476,0.777866,0.281958
12,134,1,8,1,9,1,C,7,L,8,L,9,0.285,0.821818,0.234218
12,135,9,1,1,9,1,I,8,L,8,L,13,0.782206,0.521185,0.407674
12,136,2,8,8,9,1,C,6,S,1,S,10,0.367445,0.771553,0.283504
12,137,9,8,8,1,1,C,1,S,7,L,12,0.795793,0.402038,0.319939
12,138,1,8,9,2,1,I,7,L,7,L,13,0.556811,0.755914,0.420901
12,139,1,8,9,8,1,I,7,L,1,S,10,0.364274,0.779093,0.283803
12,140,8,9,8,2,0,I,1,S,6,S,11,0.804267,0.359313,0.288984
12,141,1,8,8,2,1,I,7,L,6,S,12,0.484428,0.773101,0.374512
12,142,8,1,9,2,1,C,7,L,7,L,8,0.769338,0.281123,0.216278
12,143,2,9,8,1,1,I,7,L,7,L,13,0.538155,0.764231,0.411275
12,144,8,1,8,1,1,C,7,L,7,L,9,0.850421,0.26495,0.225319
13,1,9,2,8,1,1,C,7,L,7,L,9,0.751766,0.343628,0.258328
13,2,8,2,9,8,1,C,6,S,1,S,10,0.774331,0.361139,0.279641
13,3,1,2,2,1,1,I,1,S,1,S,22,0.629707,0.75834,0.477532
13,4,2,8,9,8,1,I,6,S,1,S,13,0.470755,0.768515,0.361782
13,5,1,9,9,8,1,I,8,L,1,S,10,0.374146,0.779018,0.291466
13,6,9,8,1,8,0,I,1,S,7,L,10,0.382532,0.755192,0.288885
13,7,8,1,8,9,1,I,7,L,1,S,11,0.766283,0.424177,0.32504
13,8,9,2,2,1,1,C,7,L,1,S,10,0.775254,0.360387,0.279391
13,9,1,8,8,9,1,C,7,L,1,S,10,0.342785,0.792622,0.271699
13,10,1,8,1,8,1,C,7,L,7,L,9,0.28282,0.821591,0.232362
13,11,8,9,1,8,1,C,1,S,7,L,9,0.309207,0.790274,0.244358
13,12,9,1,2,1,1,C,8,L,1,S,10,0.8073,0.333075,0.268891
13,13,1,8,9,2,1,I,7,L,7,L,14,0.560793,0.763586,0.428214
13,14,2,8,8,1,1,I,6,S,7,L,16,0.597533,0.758648,0.453318
13,15,1,9,2,8,1,C,8,L,6,S,9,0.268116,0.841567,0.225638
13,16,9,1,8,9,1,I,8,L,1,S,11,0.752792,0.434201,0.326863
13,17,2,1,2,8,1,I,1,S,6,S,18,0.761081,0.6147,0.467836
13,18,9,1,9,2,1,C,8,L,7,L,9,0.789423,0.312634,0.246801
13,19,1,9,1,2,1,C,8,L,1,S,9,0.269993,0.840179,0.226843
13,20,1,8,2,8,1,C,7,L,6,S,9,0.320991,0.77003,0.247173
13,21,2,1,1,9,1,I,1,S,8,L,20,0.771539,0.634533,0.489567
13,22,8,9,2,8,1,C,1,S,6,S,10,0.311897,0.831258,0.259267
13,23,1,8,8,1,1,I,7,L,7,L,14,0.546971,0.773495,0.423079
13,24,2,8,9,2,1,I,6,S,7,L,17,0.603458,0.773974,0.467061
13,25,9,1,1,8,1,I,8,L,7,L,15,0.765388,0.593018,0.453889
13,26,9,8,8,1,1,C,1,S,7,L,13,0.778769,0.449148,0.349783
13,27,9,8,2,9,0,I,1,S,7,L,11,0.411008,0.753232,0.309585
13,28,8,2,1,8,1,I,6,S,7,L,16,0.774893,0.602627,0.466971
13,29,8,2,8,1,1,C,6,S,7,L,9,0.764226,0.333946,0.255211
13,30,1,2,9,2,0,I,1,S,7,L,13,0.754453,0.478538,0.361035
13,31,2,9,9,8,1,I,7,L,1,S,11,0.391726,0.801239,0.313866
13,32,1,9,8,1,1,I,8,L,7,L,11,0.47017,0.757134,0.355982
13,33,1,8,2,9,1,C,7,L,7,L,9,0.324544,0.768009,0.249253
13,34,1,8,9,8,1,I,7,L,1,S,11,0.427066,0.751537,0.320956
13,35,8,2,2,8,1,I,6,S,6,S,14,0.765078,0.555264,0.42482
13,36,8,1,1,9,1,I,7,L,8,L,14,0.751921,0.586738,0.441181
13,37,1,8,1,2,1,C,7,L,1,S,9,0.322868,0.768642,0.24817
13,38,9,8,8,9,0,I,1,S,1,S,13,0.436591,0.762552,0.332923
13,39,1,2,9,8,1,I,1,S,1,S,21,0.613972,0.7573,0.464961
13,40,2,9,8,1,1,I,7,L,7,L,12,0.503687,0.761047,0.383329
13,41,1,2,2,8,1,C,1,S,6,S,11,0.383506,0.776515,0.297798
13,42,9,1,9,8,1,C,8,L,1,S,10,0.791353,0.345214,0.273186
13,43,9,2,2,8,1,I,7,L,6,S,15,0.775539,0.567615,0.440208
13,44,2,1,8,9,1,I,1,S,1,S,15,0.771783,0.519788,0.401164
13,45,1,2,8,9,1,C,1,S,1,S,13,0.398152,0.801831,0.319251
13,46,1,8,1,9,1,C,7,L,8,L,9,0.284855,0.821206,0.233925
13,47,8,1,8,2,1,C,7,L,6,S,10,0.825991,0.320148,0.264439
13,48,2,1,2,1,1,C,1,S,1,S,11,0.784762,0.371995,0.291927
13,49,2,9,9,2,1,I,7,L,7,L,12,0.517757,0.75142,0.389053
13,50,2,9,2,9,1,C,7,L,7,L,9,0.295697,0.808836,0.23917
13,51,1,8,8,2,1,I,7,L,6,S,12,0.455666,0.773921,0.35265
13,52,1,2,1,9,1,C,1,S,8,L,10,0.36642,0.769174,0.281841
13,53,8,2,9,2,1,C,6,S,7,L,9,0.774965,0.326896,0.253333
13,54,2,8,8,9,1,C,6,S,1,S,11,0.354183,0.813719,0.288205
13,55,8,2,8,9,1,I,6,S,1,S,12,0.779681,0.446816,0.348374
13,56,9,8,9,8,0,C,1,S,1,S,25,0.632597,0.770096,0.48716
13,57,8,2,8,2,1,C,6,S,6,S,10,0.796511,0.345316,0.275048
13,58,9,8,9,1,1,C,1,S,8,L,11,0.763633,0.41821,0.319359
13,59,8,1,9,1,1,C,7,L,8,L,9,0.837038,0.277468,0.232252
13,60,8,2,2,9,1,I,6,S,7,L,14,0.768477,0.553173,0.4251
13,61,2,9,8,2,1,I,7,L,6,S,11,0.420382,0.780888,0.328272
13,62,1,9,1,9,1,C,8,L,8,L,8,0.271999,0.778429,0.211732
13,63,9,2,9,1,1,C,7,L,8,L,9,0.799311,0.309538,0.247417
13,64,8,9,8,9,1,C,1,S,1,S,10,0.373276,0.755039,0.281838
13,65,8,9,8,1,1,I,1,S,7,L,15,0.581797,0.757683,0.440818
13,66,1,9,2,1,1,I,8,L,1,S,10,0.390093,0.766879,0.299154
13,67,2,1,1,2,1,I,1,S,1,S,18,0.762448,0.61387,0.468044
13,68,2,9,1,2,1,C,7,L,1,S,9,0.294021,0.80947,0.238001
13,69,2,9,1,9,1,C,7,L,8,L,8,0.293213,0.751956,0.220483
13,70,2,8,9,1,1,I,6,S,8,L,18,0.626081,0.770605,0.482461
13,71,9,2,1,8,1,I,7,L,7,L,16,0.758518,0.615926,0.467191
13,72,1,2,8,1,0,I,1,S,7,L,14,0.757248,0.498317,0.37735
13,73,9,1,9,1,1,C,8,L,8,L,9,0.82623,0.285595,0.235967
13,74,8,2,1,2,1,I,6,S,1,S,14,0.767044,0.553665,0.424686
13,75,8,1,9,2,1,C,7,L,7,L,9,0.800231,0.304508,0.243677
13,76,8,1,1,8,1,I,7,L,7,L,14,0.750716,0.586309,0.440151
13,77,9,1,1,2,1,I,8,L,1,S,13,0.755071,0.535087,0.404029
13,78,2,1,9,1,1,C,1,S,8,L,10,0.835827,0.310626,0.25963
13,79,9,2,9,2,1,C,7,L,7,L,9,0.762504,0.336577,0.256642
13,80,8,9,9,2,1,I,1,S,7,L,16,0.590807,0.773887,0.457218
13,81,9,8,2,1,0,C,1,S,1,S,25,0.651905,0.753705,0.491344
13,82,1,2,1,8,1,C,1,S,7,L,10,0.364474,0.769488,0.280458
13,83,2,8,1,2,1,C,6,S,1,S,10,0.328474,0.810124,0.266105
13,84,2,9,9,1,1,I,7,L,8,L,13,0.563939,0.751891,0.424021
13,85,9,1,1,9,1,I,8,L,8,L,15,0.766384,0.593661,0.454972
13,86,9,2,1,2,1,I,7,L,1,S,15,0.777377,0.566189,0.440142
13,87,1,9,9,1,1,I,8,L,8,L,12,0.533434,0.753018,0.401686
13,88,8,1,8,1,1,C,7,L,7,L,9,0.789492,0.311558,0.245973
13,89,9,8,8,2,1,C,1,S,6,S,17,0.753839,0.539494,0.406691
13,90,8,9,9,8,1,I,1,S,1,S,12,0.455987,0.754171,0.343892
13,91,1,9,8,2,1,I,8,L,6,S,10,0.396325,0.763194,0.302473
