ANN,trial,N1,N2,P1,P2,Succ.,Cong,Ndist,Ndist,Pdist,Pdist,rt,a1,a2,x_acc
1,1,8,9,2,8,1,C,1,S,6,S,9,0.302892,0.782945,0.237148
1,2,8,1,2,8,1,I,7,L,6,S,10,0.764732,0.477497,0.365157
1,3,2,9,2,8,1,C,7,L,6,S,7,0.181737,0.81617,0.148328
1,4,1,8,8,2,1,I,7,L,6,S,10,0.473904,0.768899,0.364384
1,5,9,2,8,2,1,C,7,L,6,S,7,0.841574,0.168028,0.141408
1,6,1,8,2,8,1,C,7,L,6,S,7,0.152268,0.861833,0.131229
1,7,2,1,8,2,1,C,1,S,6,S,8,0.838376,0.213898,0.179327
1,8,1,2,8,2,1,I,1,S,6,S,18,0.623157,0.768395,0.47883
1,9,2,1,2,8,1,I,1,S,6,S,15,0.754783,0.606056,0.457441
1,10,2,9,8,2,1,I,7,L,6,S,11,0.51828,0.758599,0.393167
1,11,9,8,2,8,0,I,1,S,6,S,11,0.415344,0.767679,0.318851
1,12,9,8,8,2,1,C,1,S,6,S,9,0.795897,0.292253,0.232603
1,13,8,9,8,2,0,I,1,S,6,S,10,0.752406,0.384202,0.289076
1,14,8,1,8,2,1,C,7,L,6,S,7,0.857944,0.155856,0.133716
1,15,9,2,2,8,1,I,7,L,6,S,11,0.786414,0.500549,0.393639
1,16,1,2,2,8,1,C,1,S,6,S,8,0.245699,0.79467,0.19525
2,1,9,8,8,2,1,C,1,S,6,S,9,0.764997,0.317539,0.242916
2,2,2,1,2,8,1,I,1,S,6,S,17,0.754122,0.623255,0.47001
2,3,1,8,8,2,1,I,7,L,6,S,10,0.466258,0.771862,0.359887
2,4,9,8,2,8,0,I,1,S,6,S,10,0.369853,0.766151,0.283363
2,5,2,1,8,2,1,C,1,S,6,S,8,0.7943,0.240227,0.190812
2,6,8,9,2,8,1,C,1,S,6,S,8,0.275825,0.752459,0.207547
2,7,8,1,8,2,1,C,7,L,6,S,7,0.839876,0.164276,0.137971
2,8,1,2,2,8,1,C,1,S,6,S,8,0.248565,0.785547,0.195259
2,9,1,2,8,2,1,I,1,S,6,S,18,0.62686,0.756657,0.474318
2,10,2,9,2,8,1,C,7,L,6,S,7,0.166708,0.836549,0.13946
2,11,9,2,8,2,1,C,7,L,6,S,7,0.826825,0.17523,0.144884
2,12,8,1,2,8,1,I,7,L,6,S,10,0.750812,0.485481,0.364505
2,13,1,8,2,8,1,C,7,L,6,S,7,0.151034,0.861698,0.130145
2,14,8,9,8,2,1,I,1,S,6,S,21,0.63173,0.767485,0.484843
2,15,9,2,2,8,1,I,7,L,6,S,11,0.776253,0.506829,0.393428
2,16,2,9,8,2,1,I,7,L,6,S,11,0.494684,0.783597,0.387633
3,1,2,9,2,8,1,C,7,L,6,S,7,0.167791,0.83558,0.140203
3,2,8,1,2,8,1,I,7,L,6,S,10,0.750652,0.484761,0.363887
3,3,1,8,8,2,1,I,7,L,6,S,10,0.490834,0.754565,0.370366
3,4,1,8,2,8,1,C,7,L,6,S,7,0.149816,0.861518,0.129069
3,5,9,8,8,2,1,C,1,S,6,S,9,0.78524,0.307063,0.241118
3,6,1,2,8,2,1,I,1,S,6,S,18,0.629494,0.758927,0.477739
3,7,8,9,8,2,1,I,1,S,6,S,20,0.640413,0.761317,0.487557
3,8,9,2,8,2,1,C,7,L,6,S,7,0.843194,0.164491,0.138698
3,9,1,2,2,8,1,C,1,S,6,S,8,0.233069,0.80133,0.186765
3,10,9,2,2,8,1,I,7,L,6,S,11,0.769393,0.510708,0.392935
3,11,2,1,2,8,1,I,1,S,6,S,16,0.755796,0.613646,0.463791
3,12,2,9,8,2,1,I,7,L,6,S,11,0.520706,0.765835,0.398774
3,13,8,9,2,8,1,C,1,S,6,S,8,0.262267,0.769096,0.201709
3,14,9,8,2,8,0,I,1,S,6,S,10,0.362256,0.774033,0.280398
3,15,8,1,8,2,1,C,7,L,6,S,7,0.862473,0.149728,0.129136
3,16,2,1,8,2,1,C,1,S,6,S,8,0.837977,0.211767,0.177456
4,1,1,8,8,2,1,I,7,L,6,S,10,0.48147,0.756761,0.364358
4,2,2,1,8,2,1,C,1,S,6,S,8,0.797236,0.240767,0.191948
4,3,8,9,2,8,1,C,1,S,6,S,9,0.304174,0.777595,0.236524
4,4,9,2,8,2,1,C,7,L,6,S,7,0.842561,0.165912,0.139791
4,5,9,2,2,8,1,I,7,L,6,S,11,0.78406,0.501809,0.393449
4,6,2,9,8,2,1,I,7,L,6,S,11,0.513493,0.765913,0.393291
4,7,8,9,8,2,0,I,1,S,6,S,10,0.758175,0.374009,0.283564
4,8,9,8,2,8,1,I,1,S,6,S,19,0.75998,0.634638,0.482312
4,9,8,1,2,8,1,I,7,L,6,S,10,0.755275,0.481954,0.364007
4,10,1,2,2,8,1,C,1,S,6,S,8,0.219777,0.827336,0.18183
4,11,2,9,2,8,1,C,7,L,6,S,7,0.17494,0.825903,0.144484
4,12,1,2,8,2,1,I,1,S,6,S,16,0.611457,0.761338,0.465526
4,13,8,1,8,2,1,C,7,L,6,S,7,0.852648,0.155951,0.132972
4,14,1,8,2,8,1,C,7,L,6,S,7,0.155341,0.853871,0.132641
4,15,2,1,2,8,1,I,1,S,6,S,18,0.766345,0.622086,0.476732
4,16,9,8,8,2,1,C,1,S,6,S,8,0.774786,0.260217,0.201613
5,1,1,2,2,8,1,C,1,S,6,S,8,0.234966,0.807427,0.189718
5,2,2,9,2,8,1,C,7,L,6,S,7,0.166554,0.834953,0.139065
5,3,2,9,8,2,1,I,7,L,6,S,11,0.510265,0.769934,0.39287
5,4,8,1,2,8,1,I,7,L,6,S,10,0.757563,0.482142,0.365253
5,5,9,8,8,2,1,C,1,S,6,S,9,0.805156,0.279398,0.224959
5,6,8,9,2,8,1,C,1,S,6,S,9,0.283399,0.801179,0.227054
5,7,1,8,2,8,1,C,7,L,6,S,7,0.154762,0.85461,0.132261
5,8,2,1,8,2,1,C,1,S,6,S,8,0.8052,0.233561,0.188063
5,9,2,1,2,8,1,I,1,S,6,S,17,0.750384,0.62702,0.470506
5,10,9,8,2,8,0,I,1,S,6,S,11,0.420053,0.759842,0.319174
5,11,8,1,8,2,1,C,7,L,6,S,7,0.859869,0.151865,0.130584
5,12,1,2,8,2,1,I,1,S,6,S,17,0.626831,0.755674,0.47368
5,13,1,8,8,2,1,I,7,L,6,S,10,0.486257,0.752638,0.365976
5,14,8,9,8,2,0,I,1,S,6,S,11,0.767734,0.412346,0.316572
5,15,9,2,2,8,1,I,7,L,6,S,11,0.763561,0.515419,0.393554
5,16,9,2,8,2,1,C,7,L,6,S,7,0.829055,0.172387,0.142918
6,1,1,8,8,2,1,I,7,L,6,S,10,0.480213,0.755708,0.362901
6,2,9,2,2,8,1,I,7,L,6,S,11,0.758016,0.513541,0.389272
6,3,8,1,2,8,1,I,7,L,6,S,10,0.767591,0.469199,0.360153
6,4,1,8,2,8,1,C,7,L,6,S,7,0.161111,0.842998,0.135816
6,5,8,9,2,8,1,C,1,S,6,S,9,0.276078,0.811861,0.224137
6,6,8,9,8,2,0,I,1,S,6,S,12,0.751231,0.478649,0.359576
6,7,2,9,2,8,1,C,7,L,6,S,7,0.17724,0.822145,0.145717
6,8,9,8,2,8,0,I,1,S,6,S,10,0.377087,0.754128,0.284372
6,9,2,1,2,8,1,I,1,S,6,S,15,0.754313,0.601323,0.453586
6,10,1,2,2,8,1,C,1,S,6,S,8,0.231163,0.805382,0.186174
6,11,9,8,8,2,1,C,1,S,6,S,9,0.773196,0.31069,0.240225
6,12,8,1,8,2,1,C,7,L,6,S,7,0.856221,0.154792,0.132536
6,13,9,2,8,2,1,C,7,L,6,S,7,0.810974,0.18444,0.149576
6,14,2,9,8,2,1,I,7,L,6,S,11,0.507744,0.772844,0.392407
6,15,2,1,8,2,1,C,1,S,6,S,8,0.833276,0.215495,0.179567
6,16,1,2,8,2,1,I,1,S,6,S,17,0.612898,0.766462,0.469763
7,1,9,2,8,2,1,C,7,L,6,S,7,0.816225,0.181733,0.148335
7,2,8,9,8,2,1,I,1,S,6,S,21,0.650345,0.75068,0.488201
7,3,2,1,2,8,1,I,1,S,6,S,17,0.759307,0.622944,0.473006
7,4,2,1,8,2,1,C,1,S,6,S,8,0.811726,0.230434,0.187049
7,5,2,9,8,2,1,I,7,L,6,S,11,0.505921,0.776159,0.392675
7,6,9,8,8,2,1,C,1,S,6,S,9,0.778137,0.311132,0.242104
7,7,9,8,2,8,0,I,1,S,6,S,10,0.368754,0.772329,0.2848
7,8,2,9,2,8,1,C,7,L,6,S,7,0.164191,0.841635,0.138189
7,9,8,9,2,8,1,C,1,S,6,S,8,0.280801,0.750078,0.210622
7,10,9,2,2,8,1,I,7,L,6,S,11,0.750488,0.527663,0.396005
7,11,1,2,8,2,1,I,1,S,6,S,15,0.604163,0.754653,0.455934
7,12,1,2,2,8,1,C,1,S,6,S,8,0.202163,0.84997,0.171832
7,13,8,1,8,2,1,C,7,L,6,S,7,0.857444,0.155642,0.133454
7,14,1,8,2,8,1,C,7,L,6,S,7,0.146504,0.871123,0.127623
7,15,1,8,8,2,1,I,7,L,6,S,10,0.475009,0.769339,0.365443
7,16,8,1,2,8,1,I,7,L,6,S,10,0.756231,0.487161,0.368406
8,1,9,2,2,8,1,I,7,L,6,S,11,0.760401,0.519094,0.394719
8,2,2,9,8,2,1,I,7,L,6,S,11,0.514121,0.764994,0.393299
8,3,9,8,2,8,1,I,1,S,6,S,22,0.755445,0.647087,0.488839
8,4,8,1,2,8,1,I,7,L,6,S,11,0.783305,0.503478,0.394377
8,5,2,9,2,8,1,C,7,L,6,S,7,0.1706,0.831428,0.141842
8,6,8,9,2,8,1,C,1,S,6,S,9,0.297776,0.787167,0.2344
8,7,8,1,8,2,1,C,7,L,6,S,7,0.847687,0.160716,0.136237
8,8,1,8,8,2,1,I,7,L,6,S,10,0.483427,0.755563,0.36526
8,9,1,2,2,8,1,C,1,S,6,S,8,0.224452,0.819297,0.183893
8,10,9,2,8,2,1,C,7,L,6,S,7,0.826287,0.173796,0.143605
8,11,1,2,8,2,1,I,1,S,6,S,17,0.617393,0.764375,0.47192
8,12,2,1,2,8,1,I,1,S,6,S,18,0.751479,0.63651,0.478324
8,13,1,8,2,8,1,C,7,L,6,S,7,0.152715,0.858757,0.131145
8,14,9,8,8,2,1,C,1,S,6,S,9,0.830418,0.261141,0.216856
8,15,2,1,8,2,1,C,1,S,6,S,8,0.78666,0.25011,0.196752
8,16,8,9,8,2,0,I,1,S,6,S,10,0.756958,0.376854,0.285262
9,1,2,1,8,2,1,C,1,S,6,S,8,0.823808,0.224012,0.184543
9,2,1,2,2,8,1,C,1,S,6,S,8,0.213062,0.832255,0.177322
9,3,8,1,2,8,1,I,7,L,6,S,10,0.757476,0.486435,0.368463
9,4,9,8,2,8,0,I,1,S,6,S,10,0.375717,0.759569,0.285383
9,5,1,8,2,8,1,C,7,L,6,S,7,0.146618,0.868405,0.127323
9,6,9,8,8,2,1,C,1,S,6,S,9,0.784081,0.299975,0.235205
9,7,8,1,8,2,1,C,7,L,6,S,7,0.859184,0.155172,0.133321
9,8,1,2,8,2,1,I,1,S,6,S,16,0.612852,0.756613,0.463691
9,9,8,9,2,8,1,C,1,S,6,S,9,0.273458,0.823584,0.225216
9,10,1,8,8,2,1,I,7,L,6,S,10,0.476777,0.765769,0.365101
9,11,8,9,8,2,0,I,1,S,6,S,12,0.763126,0.471029,0.359454
9,12,9,2,2,8,1,I,7,L,6,S,11,0.761059,0.517503,0.39385
9,13,9,2,8,2,1,C,7,L,6,S,7,0.827444,0.171987,0.14231
9,14,2,1,2,8,1,I,1,S,6,S,16,0.752325,0.621701,0.467721
9,15,2,9,2,8,1,C,7,L,6,S,7,0.173069,0.832402,0.144063
9,16,2,9,8,2,1,I,7,L,6,S,11,0.515742,0.767014,0.395581
10,1,9,8,8,2,1,C,1,S,6,S,9,0.808572,0.279917,0.226333
10,2,2,9,8,2,1,I,7,L,6,S,11,0.513541,0.766995,0.393883
10,3,8,1,2,8,1,I,7,L,6,S,10,0.765114,0.478213,0.365887
10,4,8,9,2,8,1,C,1,S,6,S,9,0.303082,0.783541,0.237477
10,5,2,1,2,8,1,I,1,S,6,S,16,0.759432,0.6143,0.466519
10,6,1,2,8,2,1,I,1,S,6,S,17,0.628644,0.751463,0.472403
10,7,2,1,8,2,1,C,1,S,6,S,8,0.827554,0.219858,0.181945
10,8,9,8,2,8,0,I,1,S,6,S,11,0.429573,0.756876,0.325133
10,9,8,9,8,2,0,I,1,S,6,S,10,0.758603,0.377413,0.286307
10,10,1,8,8,2,1,I,7,L,6,S,10,0.479137,0.763035,0.365598
10,11,2,9,2,8,1,C,7,L,6,S,7,0.173755,0.829497,0.144129
10,12,9,2,2,8,1,I,7,L,6,S,11,0.777068,0.506825,0.393838
10,13,1,8,2,8,1,C,7,L,6,S,7,0.15237,0.862207,0.131375
10,14,1,2,2,8,1,C,1,S,6,S,8,0.238636,0.802676,0.191547
10,15,8,1,8,2,1,C,7,L,6,S,7,0.863593,0.150269,0.129771
10,16,9,2,8,2,1,C,7,L,6,S,7,0.838475,0.166667,0.139746
11,1,2,1,8,2,1,C,1,S,6,S,8,0.774224,0.257209,0.199137
11,2,9,8,8,2,1,C,1,S,6,S,9,0.766186,0.309683,0.237275
11,3,8,1,2,8,1,I,7,L,6,S,10,0.754889,0.483791,0.365209
11,4,1,2,2,8,1,C,1,S,6,S,8,0.221352,0.825053,0.182627
11,5,2,9,8,2,1,I,7,L,6,S,11,0.497258,0.778751,0.38724
11,6,2,1,2,8,1,I,1,S,6,S,18,0.755284,0.630527,0.476226
11,7,8,9,2,8,1,C,1,S,6,S,9,0.298045,0.78735,0.234666
11,8,8,1,8,2,1,C,7,L,6,S,7,0.842187,0.164363,0.138424
11,9,2,9,2,8,1,C,7,L,6,S,7,0.170065,0.830787,0.141288
11,10,8,9,8,2,0,I,1,S,6,S,11,0.773481,0.401273,0.310377
11,11,1,2,8,2,1,I,1,S,6,S,16,0.603374,0.767,0.462788
11,12,1,8,8,2,1,I,7,L,6,S,10,0.465265,0.770586,0.358526
11,13,1,8,2,8,1,C,7,L,6,S,7,0.150795,0.859746,0.129645
11,14,9,2,8,2,1,C,7,L,6,S,7,0.811272,0.182922,0.1484
11,15,9,2,2,8,1,I,7,L,6,S,11,0.760329,0.515653,0.392066
11,16,9,8,2,8,0,I,1,S,6,S,10,0.373984,0.755665,0.282607
12,1,2,9,2,8,1,C,7,L,6,S,7,0.177047,0.821312,0.14541
12,2,9,8,2,8,0,I,1,S,6,S,10,0.371474,0.761347,0.28282
12,3,2,1,8,2,1,C,1,S,6,S,8,0.804219,0.233853,0.188069
12,4,9,8,8,2,1,C,1,S,6,S,9,0.778394,0.307201,0.239124
12,5,1,2,2,8,1,C,1,S,6,S,8,0.243911,0.791888,0.19315
12,6,8,9,2,8,1,C,1,S,6,S,9,0.303068,0.781476,0.236841
12,7,2,1,2,8,1,I,1,S,6,S,17,0.750541,0.625524,0.469482
12,8,9,2,2,8,1,I,7,L,6,S,11,0.778937,0.500785,0.39008
12,9,1,2,8,2,1,I,1,S,6,S,18,0.625786,0.762474,0.477145
12,10,2,9,8,2,1,I,7,L,6,S,11,0.517203,0.761918,0.394066
12,11,8,1,8,2,1,C,7,L,6,S,7,0.861129,0.152099,0.130977
12,12,1,8,2,8,1,C,7,L,6,S,7,0.154249,0.860042,0.132661
12,13,8,1,2,8,1,I,7,L,6,S,10,0.764179,0.475221,0.363154
12,14,8,9,8,2,0,I,1,S,6,S,10,0.755487,0.382498,0.288972
12,15,9,2,8,2,1,C,7,L,6,S,7,0.83922,0.164955,0.138434
12,16,1,8,8,2,1,I,7,L,6,S,10,0.480036,0.765208,0.367327
13,1,2,9,2,8,1,C,7,L,6,S,7,0.168977,0.838645,0.141712
13,2,8,9,8,2,0,I,1,S,6,S,10,0.760789,0.375999,0.286056
13,3,9,2,8,2,1,C,7,L,6,S,7,0.845726,0.162487,0.13742
13,4,2,1,2,8,1,I,1,S,6,S,18,0.764166,0.625813,0.478225
13,5,8,9,2,8,1,C,1,S,6,S,9,0.308576,0.779115,0.240416
13,6,2,9,8,2,1,I,7,L,6,S,11,0.503033,0.781414,0.393077
13,7,9,8,2,8,1,I,1,S,6,S,20,0.7625,0.639192,0.487384
13,8,8,1,8,2,1,C,7,L,6,S,7,0.859142,0.154416,0.132666
13,9,1,2,2,8,1,C,1,S,6,S,8,0.231844,0.807846,0.187295
13,10,1,8,8,2,1,I,7,L,6,S,10,0.472744,0.770737,0.364361
13,11,1,2,8,2,1,I,1,S,6,S,17,0.62018,0.758389,0.470338
13,12,1,8,2,8,1,C,7,L,6,S,7,0.150841,0.865257,0.130516
13,13,9,8,8,2,1,C,1,S,6,S,8,0.759013,0.275016,0.208741
13,14,9,2,2,8,1,I,7,L,6,S,10,0.750714,0.487565,0.366022
13,15,8,1,2,8,1,I,7,L,6,S,10,0.76505,0.478127,0.365791
13,16,2,1,8,2,1,C,1,S,6,S,8,0.792062,0.246255,0.195049
14,1,1,8,2,8,1,C,7,L,6,S,7,0.155781,0.854727,0.13315
14,2,1,2,2,8,1,C,1,S,6,S,8,0.225307,0.817956,0.184291
14,3,2,1,8,2,1,C,1,S,6,S,8,0.806706,0.238278,0.19222
14,4,1,2,8,2,1,I,1,S,6,S,16,0.613674,0.755889,0.463869
14,5,9,2,2,8,1,I,7,L,6,S,11,0.760075,0.516547,0.392615
14,6,8,1,2,8,1,I,7,L,6,S,10,0.76181,0.478846,0.36479
14,7,8,9,8,2,0,I,1,S,6,S,11,0.767426,0.412592,0.316634
14,8,2,9,2,8,1,C,7,L,6,S,7,0.174502,0.829279,0.144711
14,9,8,9,2,8,1,C,1,S,6,S,9,0.293621,0.792733,0.232763
14,10,2,9,8,2,1,I,7,L,6,S,11,0.504476,0.777087,0.392021
14,11,9,8,8,2,1,C,1,S,6,S,9,0.772979,0.310917,0.240332
14,12,9,2,8,2,1,C,7,L,6,S,7,0.81354,0.183847,0.149567
14,13,8,1,8,2,1,C,7,L,6,S,7,0.851131,0.160241,0.136386
14,14,9,8,2,8,0,I,1,S,6,S,10,0.377294,0.757571,0.285827
14,15,1,8,8,2,1,I,7,L,6,S,10,0.473757,0.764951,0.362401
14,16,2,1,2,8,1,I,1,S,6,S,17,0.769688,0.615437,0.473694
15,1,8,1,2,8,1,I,7,L,6,S,11,0.787977,0.501279,0.394996
15,2,9,2,2,8,1,I,7,L,6,S,11,0.760484,0.519783,0.395287
15,3,1,2,2,8,1,C,1,S,6,S,8,0.216806,0.833117,0.180624
15,4,2,1,2,8,1,I,1,S,6,S,18,0.754166,0.634505,0.478522
15,5,9,8,2,8,0,I,1,S,6,S,12,0.471688,0.759533,0.358262
15,6,2,9,8,2,1,I,7,L,6,S,11,0.519512,0.764214,0.397018
15,7,2,9,2,8,1,C,7,L,6,S,7,0.169614,0.836105,0.141815
15,8,8,1,8,2,1,C,7,L,6,S,7,0.859057,0.153428,0.131803
15,9,1,8,2,8,1,C,7,L,6,S,7,0.152113,0.862424,0.131186
15,10,1,8,8,2,1,I,7,L,6,S,10,0.48997,0.753324,0.369106
15,11,1,2,8,2,1,I,1,S,6,S,16,0.618632,0.75581,0.467568
15,12,8,9,2,8,1,C,1,S,6,S,9,0.279885,0.814242,0.227894
15,13,2,1,8,2,1,C,1,S,6,S,8,0.797882,0.241025,0.192309
15,14,9,8,8,2,1,C,1,S,6,S,9,0.829249,0.263689,0.218664
15,15,8,9,8,2,0,I,1,S,6,S,11,0.766928,0.424046,0.325213
15,16,9,2,8,2,1,C,7,L,6,S,7,0.833459,0.168794,0.140683
16,1,8,9,2,8,1,C,1,S,6,S,9,0.291698,0.791342,0.230833
16,2,1,2,8,2,1,I,1,S,6,S,17,0.62096,0.757596,0.470436
16,3,8,1,2,8,1,I,7,L,6,S,10,0.752117,0.48581,0.365386
16,4,2,9,8,2,1,I,7,L,6,S,11,0.514239,0.758747,0.390177
16,5,1,8,8,2,1,I,7,L,6,S,10,0.475762,0.762387,0.362715
16,6,2,1,8,2,1,C,1,S,6,S,8,0.802463,0.23543,0.188924
16,7,9,8,2,8,0,I,1,S,6,S,10,0.36406,0.768274,0.279697
16,8,1,2,2,8,1,C,1,S,6,S,8,0.233232,0.806214,0.188035
16,9,9,2,8,2,1,C,7,L,6,S,7,0.823503,0.17618,0.145084
16,10,8,9,8,2,0,I,1,S,6,S,11,0.773033,0.402176,0.310895
16,11,9,2,2,8,1,I,7,L,6,S,11,0.765067,0.514017,0.393257
16,12,1,8,2,8,1,C,7,L,6,S,7,0.152172,0.858371,0.13062
16,13,2,9,2,8,1,C,7,L,6,S,7,0.175952,0.819389,0.144173
16,14,2,1,2,8,1,I,1,S,6,S,17,0.755479,0.623058,0.470708
16,15,8,1,8,2,1,C,7,L,6,S,7,0.847674,0.160243,0.135834
16,16,9,8,8,2,1,C,1,S,6,S,9,0.768474,0.312971,0.24051
17,1,9,8,8,2,1,C,1,S,6,S,9,0.776172,0.310442,0.240957
17,2,2,9,2,8,1,C,7,L,6,S,7,0.158285,0.853182,0.135046
17,3,8,1,8,2,1,C,7,L,6,S,7,0.854417,0.156722,0.133906
17,4,9,8,2,8,0,I,1,S,6,S,10,0.363769,0.779354,0.283505
17,5,8,9,8,2,0,I,1,S,6,S,11,0.760475,0.421213,0.320322
17,6,1,8,2,8,1,C,7,L,6,S,7,0.147104,0.8703,0.128025
17,7,1,2,8,2,1,I,1,S,6,S,17,0.613416,0.768838,0.471618
17,8,1,2,2,8,1,C,1,S,6,S,8,0.219863,0.829434,0.182362
17,9,2,1,2,8,1,I,1,S,6,S,19,0.766009,0.633951,0.485612
17,10,1,8,8,2,1,I,7,L,6,S,10,0.478716,0.760938,0.364273
17,11,9,2,8,2,1,C,7,L,6,S,7,0.819628,0.179959,0.147499
17,12,9,2,2,8,1,I,7,L,6,S,11,0.751156,0.532854,0.400256
17,13,8,1,2,8,1,I,7,L,6,S,11,0.787674,0.506179,0.398704
17,14,2,1,8,2,1,C,1,S,6,S,8,0.783565,0.252833,0.198111
17,15,2,9,8,2,1,I,7,L,6,S,11,0.501371,0.781447,0.391795
17,16,8,9,2,8,1,C,1,S,6,S,9,0.275472,0.817072,0.225081
18,1,1,2,2,8,1,C,1,S,6,S,8,0.238767,0.798878,0.190746
18,2,8,1,8,2,1,C,7,L,6,S,7,0.856407,0.156642,0.13415
18,3,2,1,8,2,1,C,1,S,6,S,8,0.791499,0.247042,0.195533
18,4,2,9,2,8,1,C,7,L,6,S,7,0.16764,0.839685,0.140765
18,5,8,1,2,8,1,I,7,L,6,S,10,0.763071,0.477764,0.364568
18,6,1,8,2,8,1,C,7,L,6,S,7,0.152337,0.86162,0.131257
18,7,9,2,2,8,1,I,7,L,6,S,10,0.754477,0.482872,0.364316
18,8,1,2,8,2,1,I,1,S,6,S,17,0.626012,0.75235,0.47098
18,9,9,8,8,2,1,C,1,S,6,S,9,0.82605,0.266704,0.220311
18,10,8,9,2,8,1,C,1,S,6,S,8,0.280416,0.750768,0.210527
18,11,1,8,8,2,1,I,7,L,6,S,10,0.474463,0.76888,0.364805
18,12,9,8,2,8,1,I,1,S,6,S,22,0.75496,0.648372,0.489495
18,13,9,2,8,2,1,C,7,L,6,S,7,0.848527,0.160782,0.136428
18,14,8,9,8,2,1,I,1,S,6,S,20,0.646501,0.752163,0.486274
18,15,2,9,8,2,1,I,7,L,6,S,11,0.501338,0.784478,0.393288
18,16,2,1,2,8,1,I,1,S,6,S,18,0.762699,0.626327,0.477699
19,1,8,9,8,2,0,I,1,S,6,S,11,0.780561,0.39893,0.311389
19,2,2,1,2,8,1,I,1,S,6,S,18,0.764438,0.625269,0.477979
19,3,8,1,2,8,1,I,7,L,6,S,10,0.752935,0.489423,0.368503
19,4,9,8,8,2,1,C,1,S,6,S,9,0.811126,0.279742,0.226906
19,5,2,9,8,2,1,I,7,L,6,S,11,0.507673,0.767746,0.389764
19,6,9,2,8,2,1,C,7,L,6,S,7,0.820087,0.178139,0.14609
19,7,1,8,2,8,1,C,7,L,6,S,7,0.155533,0.859597,0.133696
19,8,8,9,2,8,1,C,1,S,6,S,9,0.300238,0.792564,0.237958
19,9,1,8,8,2,1,I,7,L,6,S,10,0.474017,0.763926,0.362114
19,10,1,2,8,2,1,I,1,S,6,S,17,0.610982,0.768079,0.469282
19,11,1,2,2,8,1,C,1,S,6,S,8,0.228672,0.815928,0.18658
19,12,2,1,8,2,1,C,1,S,6,S,8,0.790253,0.243559,0.192473
19,13,9,2,2,8,1,I,7,L,6,S,11,0.764879,0.517473,0.395804
19,14,9,8,2,8,0,I,1,S,6,S,12,0.471724,0.763453,0.360139
19,15,8,1,8,2,1,C,7,L,6,S,7,0.844863,0.162702,0.137461
19,16,2,9,2,8,1,C,7,L,6,S,7,0.175597,0.827087,0.145234
20,1,1,8,2,8,1,C,7,L,6,S,7,0.152456,0.861319,0.131313
20,2,8,9,2,8,1,C,1,S,6,S,9,0.274023,0.816866,0.22384
20,3,1,2,2,8,1,C,1,S,6,S,8,0.245039,0.789564,0.193474
20,4,2,9,2,8,1,C,7,L,6,S,7,0.169543,0.833836,0.141372
20,5,2,9,8,2,1,I,7,L,6,S,11,0.49395,0.783181,0.386852
20,6,9,2,8,2,1,C,7,L,6,S,7,0.829021,0.172444,0.14296
20,7,9,8,8,2,1,C,1,S,6,S,9,0.763169,0.318455,0.243035
20,8,2,1,8,2,1,C,1,S,6,S,8,0.775965,0.252363,0.195825
20,9,9,8,2,8,0,I,1,S,6,S,10,0.370495,0.765612,0.283656
20,10,8,1,2,8,1,I,7,L,6,S,10,0.760206,0.479492,0.364513
20,11,8,9,8,2,0,I,1,S,6,S,13,0.750953,0.508597,0.381933
20,12,8,1,8,2,1,C,7,L,6,S,7,0.845018,0.161437,0.136417
20,13,1,2,8,2,1,I,1,S,6,S,18,0.61824,0.764229,0.472477
20,14,1,8,8,2,1,I,7,L,6,S,10,0.463948,0.773903,0.359051
20,15,2,1,2,8,1,I,1,S,6,S,18,0.752833,0.631374,0.475319
20,16,9,2,2,8,1,I,7,L,6,S,11,0.781838,0.501925,0.392424
21,1,2,1,8,2,1,C,1,S,6,S,8,0.823282,0.219194,0.180458
21,2,1,8,8,2,1,I,7,L,6,S,10,0.48003,0.75649,0.363138
21,3,2,9,8,2,1,I,7,L,6,S,11,0.516365,0.758807,0.391821
21,4,1,8,2,8,1,C,7,L,6,S,7,0.154312,0.854165,0.131808
21,5,2,1,2,8,1,I,1,S,6,S,16,0.756754,0.612152,0.463248
21,6,8,9,8,2,0,I,1,S,6,S,11,0.772074,0.406912,0.314166
21,7,1,2,8,2,1,I,1,S,6,S,17,0.620387,0.758766,0.470729
21,8,9,2,2,8,1,I,7,L,6,S,11,0.763556,0.514389,0.392765
21,9,2,9,2,8,1,C,7,L,6,S,7,0.177456,0.819825,0.145483
21,10,9,8,8,2,1,C,1,S,6,S,9,0.775433,0.305895,0.237201
21,11,8,1,8,2,1,C,7,L,6,S,7,0.852501,0.154751,0.131925
21,12,1,2,2,8,1,C,1,S,6,S,8,0.234114,0.805881,0.188668
21,13,9,2,8,2,1,C,7,L,6,S,7,0.823503,0.175295,0.144356
21,14,8,9,2,8,1,C,1,S,6,S,9,0.29125,0.794396,0.231368
21,15,8,1,2,8,1,I,7,L,6,S,10,0.755221,0.481581,0.3637
21,16,9,8,2,8,0,I,1,S,6,S,10,0.371221,0.760973,0.28249
22,1,8,9,8,2,0,I,1,S,6,S,10,0.765039,0.368466,0.281891
22,2,2,1,8,2,1,C,1,S,6,S,8,0.786756,0.245032,0.192781
22,3,2,9,2,8,1,C,7,L,6,S,7,0.169839,0.838115,0.142344
22,4,8,1,8,2,1,C,7,L,6,S,7,0.85597,0.152733,0.130735
22,5,9,8,2,8,0,I,1,S,6,S,11,0.405672,0.777933,0.315586
22,6,9,8,8,2,1,C,1,S,6,S,9,0.786724,0.298455,0.234802
22,7,1,8,8,2,1,I,7,L,6,S,10,0.474608,0.761508,0.361418
22,8,9,2,2,8,1,I,7,L,6,S,11,0.762925,0.515124,0.393001
22,9,1,8,2,8,1,C,7,L,6,S,7,0.157046,0.85486,0.134252
22,10,1,2,2,8,1,C,1,S,6,S,8,0.229887,0.809958,0.186198
22,11,2,1,2,8,1,I,1,S,6,S,18,0.761252,0.626049,0.476581
22,12,8,1,2,8,1,I,7,L,6,S,10,0.766044,0.475776,0.364465
22,13,9,2,8,2,1,C,7,L,6,S,7,0.816925,0.178031,0.145438
22,14,1,2,8,2,1,I,1,S,6,S,17,0.611439,0.764058,0.467175
22,15,8,9,2,8,1,C,1,S,6,S,9,0.316158,0.772084,0.244101
22,16,2,9,8,2,1,I,7,L,6,S,11,0.498149,0.783167,0.390134
23,1,1,8,2,8,1,C,7,L,6,S,7,0.157516,0.851927,0.134192
23,2,2,1,2,8,1,I,1,S,6,S,18,0.763149,0.625041,0.477
23,3,9,8,8,2,1,C,1,S,6,S,9,0.786281,0.300698,0.236433
23,4,1,8,8,2,1,I,7,L,6,S,10,0.487338,0.754547,0.367719
23,5,1,2,8,2,1,I,1,S,6,S,17,0.631033,0.751451,0.474191
23,6,2,9,2,8,1,C,7,L,6,S,7,0.1668,0.836422,0.139515
23,7,9,8,2,8,0,I,1,S,6,S,10,0.379944,0.753783,0.286395
23,8,8,1,8,2,1,C,7,L,6,S,7,0.860114,0.156097,0.134261
23,9,8,9,2,8,1,C,1,S,6,S,9,0.255951,0.838402,0.214589
23,10,9,2,2,8,1,I,7,L,6,S,11,0.765706,0.512559,0.392469
23,11,2,9,8,2,1,I,7,L,6,S,11,0.508404,0.776155,0.3946
23,12,8,1,2,8,1,I,7,L,6,S,10,0.760803,0.480482,0.365552
23,13,2,1,8,2,1,C,1,S,6,S,8,0.796978,0.243941,0.194415
23,14,1,2,2,8,1,C,1,S,6,S,8,0.2387,0.800833,0.191159
23,15,9,2,8,2,1,C,7,L,6,S,7,0.828863,0.174607,0.144725
23,16,8,9,8,2,1,I,1,S,6,S,21,0.651136,0.751763,0.4895
24,1,9,2,2,8,1,I,7,L,6,S,11,0.769285,0.51599,0.396944
24,2,1,2,2,8,1,C,1,S,6,S,8,0.240853,0.79804,0.192211
24,3,2,1,8,2,1,C,1,S,6,S,8,0.802174,0.240218,0.192696
24,4,8,9,2,8,1,C,1,S,6,S,9,0.276957,0.822781,0.227875
24,5,9,2,8,2,1,C,7,L,6,S,7,0.83248,0.171421,0.142705
24,6,8,1,8,2,1,C,7,L,6,S,7,0.85273,0.159986,0.136425
24,7,1,8,8,2,1,I,7,L,6,S,10,0.477464,0.765447,0.365473
24,8,1,2,8,2,1,I,1,S,6,S,18,0.627317,0.758819,0.47602
24,9,9,8,8,2,1,C,1,S,6,S,9,0.769959,0.319227,0.245792
24,10,8,1,2,8,1,I,7,L,6,S,10,0.752688,0.492327,0.370568
24,11,8,9,8,2,0,I,1,S,6,S,11,0.751309,0.443317,0.333068
24,12,2,1,2,8,1,I,1,S,6,S,17,0.751914,0.632924,0.475904
24,13,9,8,2,8,0,I,1,S,6,S,10,0.358094,0.784263,0.28084
24,14,2,9,8,2,1,I,7,L,6,S,11,0.511617,0.771249,0.394584
24,15,2,9,2,8,1,C,7,L,6,S,7,0.171844,0.836388,0.143728
24,16,1,8,2,8,1,C,7,L,6,S,7,0.15014,0.867782,0.130289
25,1,8,1,8,2,1,C,7,L,6,S,7,0.857107,0.151868,0.130167
25,2,1,8,2,8,1,C,7,L,6,S,7,0.152669,0.860434,0.131362
25,3,2,1,8,2,1,C,1,S,6,S,8,0.788613,0.241744,0.190642
25,4,9,8,8,2,1,C,1,S,6,S,9,0.826108,0.262363,0.21674
25,5,9,2,8,2,1,C,7,L,6,S,7,0.826178,0.17234,0.142383
25,6,8,9,2,8,1,C,1,S,6,S,9,0.317729,0.767979,0.244009
25,7,1,8,8,2,1,I,7,L,6,S,10,0.478322,0.761966,0.364465
25,8,8,1,2,8,1,I,7,L,6,S,10,0.759022,0.480041,0.364362
25,9,9,8,2,8,1,I,1,S,6,S,22,0.753656,0.646926,0.487559
25,10,9,2,2,8,1,I,7,L,6,S,11,0.764858,0.513359,0.392647
25,11,2,9,8,2,1,I,7,L,6,S,11,0.507783,0.771223,0.391614
25,12,2,9,2,8,1,C,7,L,6,S,7,0.169413,0.832891,0.141103
25,13,2,1,2,8,1,I,1,S,6,S,18,0.753514,0.628871,0.473863
25,14,8,9,8,2,0,I,1,S,6,S,10,0.777356,0.356333,0.276998
25,15,1,2,2,8,1,C,1,S,6,S,8,0.216874,0.833257,0.180711
25,16,1,2,8,2,1,I,1,S,6,S,16,0.606279,0.76777,0.465483
26,1,8,9,8,2,0,I,1,S,6,S,10,0.750404,0.38341,0.287713
26,2,8,1,8,2,1,C,7,L,6,S,7,0.850163,0.157766,0.134127
26,3,9,2,8,2,1,C,7,L,6,S,7,0.824833,0.175136,0.144458
26,4,1,2,2,8,1,C,1,S,6,S,8,0.212556,0.835857,0.177666
26,5,9,8,2,8,0,I,1,S,6,S,10,0.371155,0.764051,0.283581
26,6,2,1,8,2,1,C,1,S,6,S,8,0.793238,0.242315,0.192213
26,7,1,2,8,2,1,I,1,S,6,S,16,0.606151,0.765621,0.464082
26,8,9,2,2,8,1,I,7,L,6,S,11,0.76385,0.516452,0.394491
26,9,8,1,2,8,1,I,7,L,6,S,10,0.752164,0.48674,0.366108
26,10,1,8,2,8,1,C,7,L,6,S,7,0.145654,0.870777,0.126832
26,11,2,1,2,8,1,I,1,S,6,S,18,0.760892,0.626788,0.476918
26,12,2,9,2,8,1,C,7,L,6,S,7,0.170662,0.832869,0.142139
26,13,9,8,8,2,1,C,1,S,6,S,9,0.775472,0.307409,0.238387
26,14,2,9,8,2,1,I,7,L,6,S,11,0.508755,0.77093,0.392215
26,15,1,8,8,2,1,I,7,L,6,S,10,0.470142,0.77249,0.36318
26,16,8,9,2,8,1,C,1,S,6,S,9,0.297526,0.78794,0.234433
27,1,9,2,2,8,1,I,7,L,6,S,11,0.768206,0.516252,0.396588
27,2,1,2,8,2,1,I,1,S,6,S,17,0.620936,0.763493,0.474081
27,3,1,8,8,2,1,I,7,L,6,S,11,0.500984,0.786899,0.394224
27,4,8,1,8,2,1,C,7,L,6,S,7,0.861151,0.151833,0.130751
27,5,1,2,2,8,1,C,1,S,6,S,8,0.227045,0.820034,0.186185
27,6,2,1,2,8,1,I,1,S,6,S,18,0.760162,0.630765,0.479483
27,7,8,9,2,8,1,C,1,S,6,S,9,0.286875,0.806248,0.231293
27,8,9,8,2,8,0,I,1,S,6,S,11,0.409757,0.773087,0.316778
27,9,2,9,8,2,1,I,7,L,6,S,11,0.521743,0.76151,0.397312
27,10,2,1,8,2,1,C,1,S,6,S,8,0.802645,0.23794,0.190981
27,11,8,9,8,2,0,I,1,S,6,S,11,0.776033,0.412091,0.319796
27,12,9,2,8,2,1,C,7,L,6,S,7,0.839243,0.166883,0.140055
27,13,9,8,8,2,1,C,1,S,6,S,9,0.807288,0.280804,0.226689
27,14,1,8,2,8,1,C,7,L,6,S,7,0.15355,0.85804,0.131752
27,15,8,1,2,8,1,I,7,L,6,S,10,0.752703,0.489383,0.36836
27,16,2,9,2,8,1,C,7,L,6,S,7,0.172733,0.832957,0.143879
28,1,9,2,2,8,1,I,7,L,6,S,11,0.758106,0.520213,0.394376
28,2,8,9,2,8,1,C,1,S,6,S,9,0.269579,0.822188,0.221644
28,3,1,2,8,2,1,I,1,S,6,S,16,0.611964,0.760539,0.465422
28,4,8,1,2,8,1,I,7,L,6,S,10,0.75863,0.481665,0.365405
28,5,2,9,8,2,1,I,7,L,6,S,11,0.508999,0.770789,0.392331
28,6,1,8,8,2,1,I,7,L,6,S,10,0.479535,0.760833,0.364846
28,7,8,1,8,2,1,C,7,L,6,S,7,0.855295,0.156017,0.133441
28,8,1,2,2,8,1,C,1,S,6,S,8,0.219259,0.827401,0.181415
28,9,2,1,2,8,1,I,1,S,6,S,16,0.76493,0.607534,0.464721
28,10,2,1,8,2,1,C,1,S,6,S,8,0.829858,0.217522,0.180512
28,11,2,9,2,8,1,C,7,L,6,S,7,0.171222,0.830528,0.142205
28,12,8,9,8,2,0,I,1,S,6,S,12,0.753523,0.476423,0.358996
28,13,9,8,2,8,0,I,1,S,6,S,12,0.469062,0.762725,0.357766
28,14,1,8,2,8,1,C,7,L,6,S,7,0.154675,0.857257,0.132596
28,15,9,8,8,2,1,C,1,S,6,S,9,0.814407,0.278991,0.227212
28,16,9,2,8,2,1,C,7,L,6,S,7,0.81812,0.181398,0.148405
29,1,2,9,8,2,1,I,7,L,6,S,11,0.498822,0.785026,0.391588
29,2,8,9,8,2,0,I,1,S,6,S,10,0.768838,0.365915,0.28133
29,3,2,1,8,2,1,C,1,S,6,S,8,0.815608,0.225364,0.183808
29,4,9,8,2,8,0,I,1,S,6,S,10,0.376616,0.756543,0.284926
29,5,1,8,8,2,1,I,7,L,6,S,10,0.468352,0.774119,0.36256
29,6,8,1,2,8,1,I,7,L,6,S,10,0.776393,0.467804,0.3632
29,7,1,2,2,8,1,C,1,S,6,S,8,0.249798,0.784625,0.195998
29,8,1,8,2,8,1,C,7,L,6,S,7,0.148108,0.867739,0.128519
29,9,9,2,8,2,1,C,7,L,6,S,7,0.842962,0.162007,0.136566
29,10,1,2,8,2,1,I,1,S,6,S,18,0.629433,0.754782,0.475085
29,11,9,8,8,2,1,C,1,S,6,S,9,0.776036,0.305142,0.236801
29,12,8,9,2,8,1,C,1,S,6,S,9,0.315973,0.770672,0.243512
29,13,8,1,8,2,1,C,7,L,6,S,7,0.868909,0.14545,0.126383
29,14,2,9,2,8,1,C,7,L,6,S,7,0.166859,0.840959,0.140321
29,15,9,2,2,8,1,I,7,L,6,S,11,0.787452,0.496636,0.391077
29,16,2,1,2,8,1,I,1,S,6,S,16,0.751275,0.617585,0.463977
30,1,8,9,8,2,0,I,1,S,6,S,11,0.750012,0.431803,0.323858
30,2,1,2,8,2,1,I,1,S,6,S,16,0.598232,0.770441,0.460902
30,3,9,8,8,2,1,C,1,S,6,S,9,0.786481,0.30161,0.237211
30,4,9,8,2,8,0,I,1,S,6,S,11,0.399591,0.782831,0.312812
30,5,1,8,8,2,1,I,7,L,6,S,10,0.470267,0.771099,0.362622
30,6,2,9,2,8,1,C,7,L,6,S,7,0.179073,0.818072,0.146494
30,7,8,9,2,8,1,C,1,S,6,S,9,0.282089,0.803829,0.226751
30,8,1,8,2,8,1,C,7,L,6,S,7,0.15102,0.863302,0.130376
30,9,2,1,2,8,1,I,1,S,6,S,15,0.753063,0.605477,0.455963
30,10,2,1,8,2,1,C,1,S,6,S,8,0.835142,0.212816,0.177731
30,11,9,2,2,8,1,I,7,L,6,S,11,0.765506,0.511053,0.391214
30,12,8,1,8,2,1,C,7,L,6,S,7,0.857033,0.153128,0.131236
30,13,8,1,2,8,1,I,7,L,6,S,10,0.765495,0.474626,0.363324
30,14,2,9,8,2,1,I,7,L,6,S,11,0.512994,0.761443,0.390615
30,15,1,2,2,8,1,C,1,S,6,S,8,0.211027,0.833893,0.175974
30,16,9,2,8,2,1,C,7,L,6,S,7,0.821006,0.175656,0.144215
