ANN,trial,N1,N2,P1,P2,Succ.,Cong,Ndist,Ndist,Pdist,Pdist,rt,a1,a2,x_acc
1,1,9,2,8,2,1,C,7,L,6,S,7,0.839961,0.167656,0.140824
1,2,8,1,8,2,1,C,7,L,6,S,7,0.856331,0.155484,0.133145
1,3,9,8,8,2,1,C,1,S,6,S,9,0.793766,0.292064,0.23183
1,4,8,9,8,2,0,I,1,S,6,S,10,0.750042,0.384123,0.288108
1,5,2,1,2,8,1,I,1,S,6,S,15,0.75526,0.60282,0.455286
1,6,1,2,2,8,1,C,1,S,6,S,8,0.24542,0.792781,0.194564
1,7,8,1,2,8,1,I,7,L,6,S,10,0.764664,0.475123,0.363309
1,8,1,2,8,2,1,I,1,S,6,S,18,0.619606,0.76912,0.476551
1,9,2,9,2,8,1,C,7,L,6,S,7,0.181374,0.814548,0.147738
1,10,2,1,8,2,1,C,1,S,6,S,8,0.836496,0.213609,0.178683
1,11,8,9,2,8,1,C,1,S,6,S,9,0.302713,0.780804,0.23636
1,12,1,8,8,2,1,I,7,L,6,S,10,0.471539,0.768821,0.362529
1,13,1,8,2,8,1,C,7,L,6,S,7,0.151905,0.860211,0.13067
1,14,2,9,8,2,1,I,7,L,6,S,11,0.515703,0.758636,0.391231
1,15,9,8,2,8,0,I,1,S,6,S,11,0.41539,0.765093,0.317812
1,16,9,2,2,8,1,I,7,L,6,S,11,0.78646,0.497963,0.391628
2,1,9,2,2,8,1,I,7,L,6,S,11,0.776313,0.504232,0.391442
2,2,9,8,8,2,1,C,1,S,6,S,9,0.762911,0.317324,0.24209
2,3,2,9,8,2,1,I,7,L,6,S,11,0.492153,0.783605,0.385653
2,4,2,1,2,8,1,I,1,S,6,S,17,0.754784,0.619789,0.467807
2,5,2,1,8,2,1,C,1,S,6,S,8,0.792463,0.239913,0.190123
2,6,1,2,8,2,1,I,1,S,6,S,18,0.623346,0.757358,0.472096
2,7,9,2,8,2,1,C,7,L,6,S,7,0.825251,0.174836,0.144284
2,8,1,8,8,2,1,I,7,L,6,S,10,0.46394,0.771756,0.358048
2,9,1,2,2,8,1,C,1,S,6,S,8,0.2483,0.783646,0.194579
2,10,8,1,2,8,1,I,7,L,6,S,10,0.750758,0.483096,0.362688
2,11,1,8,2,8,1,C,7,L,6,S,7,0.150685,0.860064,0.129599
2,12,8,9,2,8,1,C,1,S,6,S,8,0.27556,0.750558,0.206824
2,13,2,9,2,8,1,C,7,L,6,S,7,0.166359,0.834915,0.138896
2,14,8,1,8,2,1,C,7,L,6,S,7,0.838303,0.163882,0.137383
2,15,8,9,8,2,1,I,1,S,6,S,20,0.640209,0.750158,0.480258
2,16,9,8,2,8,0,I,1,S,6,S,10,0.369798,0.763765,0.282439
3,1,8,1,2,8,1,I,7,L,6,S,10,0.750596,0.482379,0.362072
3,2,1,2,2,8,1,C,1,S,6,S,8,0.232802,0.799432,0.18611
3,3,9,2,8,2,1,C,7,L,6,S,7,0.841509,0.164167,0.138148
3,4,2,9,2,8,1,C,7,L,6,S,7,0.167441,0.833949,0.139638
3,5,8,1,8,2,1,C,7,L,6,S,7,0.860789,0.149404,0.128605
3,6,9,8,8,2,1,C,1,S,6,S,9,0.78303,0.30693,0.240336
3,7,2,1,2,8,1,I,1,S,6,S,16,0.756373,0.610288,0.461605
3,8,2,9,8,2,1,I,7,L,6,S,11,0.518052,0.765928,0.39679
3,9,2,1,8,2,1,C,1,S,6,S,8,0.836021,0.211531,0.176844
3,10,9,2,2,8,1,I,7,L,6,S,11,0.769451,0.508115,0.39097
3,11,1,8,8,2,1,I,7,L,6,S,10,0.488391,0.754543,0.368512
3,12,1,2,8,2,1,I,1,S,6,S,18,0.625887,0.759696,0.475484
3,13,8,9,8,2,1,I,1,S,6,S,20,0.636656,0.762216,0.48527
3,14,8,9,2,8,1,C,1,S,6,S,8,0.262001,0.767198,0.201007
3,15,1,8,2,8,1,C,7,L,6,S,7,0.149466,0.859887,0.128524
3,16,9,8,2,8,0,I,1,S,6,S,10,0.3622,0.771651,0.279492
4,1,9,8,2,8,1,I,1,S,6,S,19,0.76078,0.631003,0.480055
4,2,2,9,8,2,1,I,7,L,6,S,11,0.510902,0.765965,0.391333
4,3,2,1,8,2,1,C,1,S,6,S,8,0.79534,0.240494,0.191275
4,4,9,2,2,8,1,I,7,L,6,S,11,0.784106,0.499224,0.391445
4,5,1,2,2,8,1,C,1,S,6,S,8,0.219498,0.825448,0.181185
4,6,1,8,8,2,1,I,7,L,6,S,10,0.47909,0.756699,0.362527
4,7,8,1,8,2,1,C,7,L,6,S,7,0.85102,0.155595,0.132414
4,8,8,1,2,8,1,I,7,L,6,S,10,0.755207,0.479581,0.362183
4,9,8,9,8,2,0,I,1,S,6,S,10,0.755796,0.373947,0.282627
4,10,1,8,2,8,1,C,7,L,6,S,7,0.154979,0.852249,0.132081
4,11,2,9,2,8,1,C,7,L,6,S,7,0.174578,0.824281,0.143902
4,12,9,8,8,2,1,C,1,S,6,S,8,0.772891,0.259944,0.200908
4,13,9,2,8,2,1,C,7,L,6,S,7,0.840933,0.165556,0.139221
4,14,8,9,2,8,1,C,1,S,6,S,9,0.303996,0.775454,0.235735
4,15,2,1,2,8,1,I,1,S,6,S,18,0.767076,0.618533,0.474462
4,16,1,2,8,2,1,I,1,S,6,S,16,0.608097,0.761912,0.463317
5,1,8,9,8,2,0,I,1,S,6,S,11,0.765135,0.412404,0.315544
5,2,1,8,2,8,1,C,7,L,6,S,7,0.154418,0.852969,0.131714
5,3,8,9,2,8,1,C,1,S,6,S,9,0.283241,0.799019,0.226315
5,4,1,2,2,8,1,C,1,S,6,S,8,0.234707,0.805519,0.189061
5,5,9,2,2,8,1,I,7,L,6,S,11,0.763626,0.512815,0.391599
5,6,9,8,8,2,1,C,1,S,6,S,9,0.803002,0.27923,0.224223
5,7,8,1,2,8,1,I,7,L,6,S,10,0.757514,0.479749,0.363417
5,8,9,2,8,2,1,C,7,L,6,S,7,0.82742,0.172034,0.142345
5,9,8,1,8,2,1,C,7,L,6,S,7,0.858234,0.151513,0.130033
5,10,2,9,2,8,1,C,7,L,6,S,7,0.16621,0.833312,0.138505
5,11,9,8,2,8,0,I,1,S,6,S,11,0.420118,0.757238,0.31813
5,12,2,9,8,2,1,I,7,L,6,S,11,0.507666,0.769991,0.390898
5,13,1,2,8,2,1,I,1,S,6,S,17,0.62336,0.756337,0.47147
5,14,2,1,2,8,1,I,1,S,6,S,17,0.751051,0.623549,0.468317
5,15,2,1,8,2,1,C,1,S,6,S,8,0.803298,0.233292,0.187403
5,16,1,8,8,2,1,I,7,L,6,S,10,0.48387,0.752581,0.364151
6,1,9,2,8,2,1,C,7,L,6,S,7,0.809367,0.184069,0.148979
6,2,8,9,2,8,1,C,1,S,6,S,9,0.275884,0.809756,0.223399
6,3,8,1,8,2,1,C,7,L,6,S,7,0.854614,0.15442,0.131969
6,4,8,9,8,2,0,I,1,S,6,S,13,0.754538,0.50655,0.382211
6,5,1,8,8,2,1,I,7,L,6,S,10,0.477857,0.755628,0.361082
6,6,2,9,8,2,1,I,7,L,6,S,11,0.505176,0.772878,0.390439
6,7,2,9,2,8,1,C,7,L,6,S,7,0.176867,0.820554,0.145129
6,8,2,1,2,8,1,I,1,S,6,S,15,0.754771,0.598123,0.451445
6,9,9,8,8,2,1,C,1,S,6,S,9,0.771073,0.310501,0.239419
6,10,9,2,2,8,1,I,7,L,6,S,11,0.758044,0.510992,0.387355
6,11,1,2,2,8,1,C,1,S,6,S,8,0.23087,0.803528,0.18551
6,12,1,2,8,2,1,I,1,S,6,S,17,0.60945,0.767106,0.467513
6,13,1,8,2,8,1,C,7,L,6,S,7,0.160737,0.841407,0.135245
6,14,8,1,2,8,1,I,7,L,6,S,10,0.767506,0.466863,0.35832
6,15,9,8,2,8,0,I,1,S,6,S,10,0.377002,0.751792,0.283427
6,16,2,1,8,2,1,C,1,S,6,S,8,0.831404,0.215205,0.178923
7,1,1,2,2,8,1,C,1,S,6,S,8,0.201909,0.848043,0.171227
7,2,2,9,2,8,1,C,7,L,6,S,7,0.163852,0.839978,0.137632
7,3,2,1,2,8,1,I,1,S,6,S,17,0.759984,0.619453,0.470774
7,4,9,8,8,2,1,C,1,S,6,S,9,0.775995,0.310952,0.241297
7,5,9,2,8,2,1,C,7,L,6,S,7,0.814602,0.181368,0.147742
7,6,8,9,2,8,1,C,1,S,6,S,9,0.252237,0.842508,0.212512
7,7,8,9,8,2,1,I,1,S,6,S,21,0.64657,0.7516,0.485962
7,8,8,1,2,8,1,I,7,L,6,S,10,0.75619,0.484748,0.366562
7,9,8,1,8,2,1,C,7,L,6,S,7,0.85582,0.155277,0.132889
7,10,1,8,2,8,1,C,7,L,6,S,7,0.146164,0.869465,0.127085
7,11,1,2,8,2,1,I,1,S,6,S,15,0.600923,0.755131,0.453775
7,12,9,2,2,8,1,I,7,L,6,S,11,0.750561,0.52504,0.394074
7,13,9,8,2,8,0,I,1,S,6,S,10,0.368713,0.769916,0.283879
7,14,2,1,8,2,1,C,1,S,6,S,8,0.809836,0.230152,0.186386
7,15,1,8,8,2,1,I,7,L,6,S,10,0.472634,0.769269,0.363583
7,16,2,9,8,2,1,I,7,L,6,S,11,0.503333,0.776203,0.390689
8,1,8,1,8,2,1,C,7,L,6,S,7,0.846065,0.160352,0.135668
8,2,2,1,2,8,1,I,1,S,6,S,18,0.752233,0.632931,0.476112
8,3,9,8,2,8,1,I,1,S,6,S,22,0.756433,0.643242,0.486569
8,4,1,2,2,8,1,C,1,S,6,S,8,0.224204,0.817369,0.183258
8,5,8,1,2,8,1,I,7,L,6,S,11,0.783383,0.500854,0.392361
8,6,9,2,2,8,1,I,7,L,6,S,11,0.760479,0.51647,0.392765
8,7,2,1,8,2,1,C,1,S,6,S,8,0.784771,0.24983,0.196059
8,8,1,8,2,8,1,C,7,L,6,S,7,0.152382,0.857098,0.130606
8,9,8,9,2,8,1,C,1,S,6,S,9,0.29763,0.784986,0.233636
8,10,9,2,8,2,1,C,7,L,6,S,7,0.824665,0.173432,0.143023
8,11,2,9,2,8,1,C,7,L,6,S,7,0.170267,0.829769,0.141282
8,12,1,8,8,2,1,I,7,L,6,S,10,0.481053,0.755494,0.363433
8,13,8,9,8,2,0,I,1,S,6,S,10,0.754584,0.376785,0.284316
8,14,2,9,8,2,1,I,7,L,6,S,11,0.511535,0.76504,0.391344
8,15,1,2,8,2,1,I,1,S,6,S,17,0.613931,0.765029,0.469675
8,16,9,8,8,2,1,C,1,S,6,S,9,0.828278,0.260962,0.216149
9,1,1,8,2,8,1,C,7,L,6,S,7,0.146269,0.866759,0.12678
9,2,1,2,2,8,1,C,1,S,6,S,8,0.212798,0.830341,0.176695
9,3,2,9,8,2,1,I,7,L,6,S,11,0.51314,0.767071,0.393615
9,4,1,8,8,2,1,I,7,L,6,S,10,0.474387,0.765712,0.363244
9,5,2,9,2,8,1,C,7,L,6,S,7,0.172721,0.830756,0.143489
9,6,8,9,8,2,0,I,1,S,6,S,12,0.760333,0.471201,0.35827
9,7,9,2,2,8,1,I,7,L,6,S,11,0.761123,0.514891,0.391895
9,8,9,2,8,2,1,C,7,L,6,S,7,0.825807,0.171634,0.141737
9,9,8,1,8,2,1,C,7,L,6,S,7,0.857547,0.154819,0.132765
9,10,1,2,8,2,1,I,1,S,6,S,16,0.609483,0.757192,0.461495
9,11,2,1,2,8,1,I,1,S,6,S,16,0.75291,0.618323,0.465542
9,12,8,9,2,8,1,C,1,S,6,S,9,0.273296,0.821417,0.22449
9,13,9,8,2,8,0,I,1,S,6,S,10,0.375666,0.757169,0.284443
9,14,8,1,2,8,1,I,7,L,6,S,10,0.757425,0.484035,0.36662
9,15,9,8,8,2,1,C,1,S,6,S,9,0.781924,0.299808,0.234427
9,16,2,1,8,2,1,C,1,S,6,S,8,0.821903,0.223743,0.183895
10,1,2,1,2,8,1,I,1,S,6,S,16,0.76001,0.610933,0.464315
10,2,8,1,8,2,1,C,7,L,6,S,7,0.861964,0.149914,0.12922
10,3,9,2,8,2,1,C,7,L,6,S,7,0.836845,0.166311,0.139177
10,4,2,9,8,2,1,I,7,L,6,S,11,0.510949,0.767048,0.391922
10,5,1,8,8,2,1,I,7,L,6,S,10,0.476756,0.762974,0.363753
10,6,1,2,8,2,1,I,1,S,6,S,17,0.625179,0.752122,0.470211
10,7,8,9,8,2,0,I,1,S,6,S,10,0.756223,0.377353,0.285363
10,8,2,1,8,2,1,C,1,S,6,S,8,0.825658,0.219587,0.181304
10,9,9,8,8,2,1,C,1,S,6,S,9,0.806423,0.279746,0.225594
10,10,9,2,2,8,1,I,7,L,6,S,11,0.777124,0.504226,0.391846
10,11,1,8,2,8,1,C,7,L,6,S,7,0.152015,0.860572,0.13082
10,12,1,2,2,8,1,C,1,S,6,S,8,0.238365,0.800773,0.190877
10,13,9,8,2,8,0,I,1,S,6,S,11,0.429629,0.754277,0.324059
10,14,8,1,2,8,1,I,7,L,6,S,10,0.765055,0.475825,0.364033
10,15,8,9,2,8,1,C,1,S,6,S,9,0.302912,0.781387,0.236692
10,16,2,9,2,8,1,C,7,L,6,S,7,0.1734,0.827863,0.143551
11,1,1,8,8,2,1,I,7,L,6,S,10,0.462954,0.770481,0.356697
11,2,2,1,8,2,1,C,1,S,6,S,8,0.772394,0.256898,0.198426
11,3,1,2,2,8,1,C,1,S,6,S,8,0.22109,0.823157,0.181992
11,4,1,2,8,2,1,I,1,S,6,S,16,0.600072,0.767534,0.460576
11,5,9,2,2,8,1,I,7,L,6,S,11,0.760389,0.513063,0.390128
11,6,2,1,2,8,1,I,1,S,6,S,18,0.75602,0.626979,0.474008
11,7,9,2,8,2,1,C,7,L,6,S,7,0.809704,0.182532,0.147797
11,8,8,1,2,8,1,I,7,L,6,S,10,0.754836,0.481413,0.363387
11,9,2,9,8,2,1,I,7,L,6,S,11,0.494735,0.778759,0.385279
11,10,8,1,8,2,1,C,7,L,6,S,7,0.840619,0.163973,0.137838
11,11,1,8,2,8,1,C,7,L,6,S,7,0.150449,0.858116,0.129103
11,12,9,8,8,2,1,C,1,S,6,S,9,0.764107,0.309469,0.236468
11,13,8,9,2,8,1,C,1,S,6,S,9,0.297883,0.785203,0.233898
11,14,2,9,2,8,1,C,7,L,6,S,7,0.169719,0.829158,0.140724
11,15,9,8,2,8,0,I,1,S,6,S,10,0.373931,0.753287,0.281677
11,16,8,9,8,2,0,I,1,S,6,S,11,0.770958,0.401282,0.309371
12,1,8,9,2,8,1,C,1,S,6,S,9,0.302871,0.779358,0.236045
12,2,1,8,8,2,1,I,7,L,6,S,10,0.477634,0.76516,0.365466
12,3,9,2,2,8,1,I,7,L,6,S,11,0.778965,0.498221,0.388097
12,4,8,9,8,2,0,I,1,S,6,S,10,0.753085,0.38245,0.288017
12,5,1,2,8,2,1,I,1,S,6,S,18,0.622211,0.763221,0.474884
12,6,9,2,8,2,1,C,7,L,6,S,7,0.837572,0.16461,0.137873
12,7,9,8,8,2,1,C,1,S,6,S,9,0.776225,0.307043,0.238334
12,8,2,1,8,2,1,C,1,S,6,S,8,0.802302,0.233593,0.187412
12,9,2,1,2,8,1,I,1,S,6,S,17,0.751182,0.622078,0.467293
12,10,2,9,2,8,1,C,7,L,6,S,7,0.176667,0.81971,0.144816
12,11,9,8,2,8,0,I,1,S,6,S,10,0.371387,0.758996,0.281881
12,12,2,9,8,2,1,I,7,L,6,S,11,0.51459,0.761985,0.392109
12,13,8,1,8,2,1,C,7,L,6,S,7,0.859481,0.151754,0.13043
12,14,8,1,2,8,1,I,7,L,6,S,10,0.764092,0.47287,0.361316
12,15,1,2,2,8,1,C,1,S,6,S,8,0.243614,0.790021,0.19246
12,16,1,8,2,8,1,C,7,L,6,S,7,0.15387,0.85844,0.132088
13,1,9,8,8,2,1,C,1,S,6,S,8,0.757133,0.274729,0.208006
13,2,8,9,2,8,1,C,1,S,6,S,9,0.3084,0.776966,0.239617
13,3,2,1,2,8,1,I,1,S,6,S,18,0.764901,0.622251,0.475961
13,4,1,8,2,8,1,C,7,L,6,S,7,0.15048,0.863628,0.129959
13,5,9,2,8,2,1,C,7,L,6,S,7,0.844112,0.162117,0.136845
13,6,1,8,8,2,1,I,7,L,6,S,10,0.47038,0.77066,0.362503
13,7,2,9,8,2,1,I,7,L,6,S,11,0.500456,0.781452,0.391082
13,8,2,9,2,8,1,C,7,L,6,S,7,0.168617,0.837016,0.141135
13,9,8,1,2,8,1,I,7,L,6,S,10,0.764985,0.475746,0.363938
13,10,8,1,8,2,1,C,7,L,6,S,7,0.857528,0.154046,0.132099
13,11,9,2,2,8,1,I,7,L,6,S,10,0.750649,0.485183,0.364202
13,12,1,2,2,8,1,C,1,S,6,S,8,0.231568,0.80595,0.186632
13,13,1,2,8,2,1,I,1,S,6,S,17,0.616724,0.759038,0.468116
13,14,9,8,2,8,1,I,1,S,6,S,20,0.763368,0.635476,0.485102
13,15,2,1,8,2,1,C,1,S,6,S,8,0.790182,0.245968,0.194359
13,16,8,9,8,2,0,I,1,S,6,S,10,0.758424,0.375922,0.285108
14,1,9,8,8,2,1,C,1,S,6,S,9,0.770869,0.310714,0.23952
14,2,1,8,2,8,1,C,7,L,6,S,7,0.155419,0.853108,0.132589
14,3,1,2,8,2,1,I,1,S,6,S,16,0.61034,0.756439,0.461685
14,4,2,1,8,2,1,C,1,S,6,S,8,0.804847,0.237975,0.191533
14,5,9,8,2,8,0,I,1,S,6,S,10,0.377225,0.755201,0.284881
14,6,2,1,2,8,1,I,1,S,6,S,17,0.770341,0.61198,0.471433
14,7,9,2,2,8,1,I,7,L,6,S,11,0.76012,0.513966,0.390676
14,8,8,9,8,2,0,I,1,S,6,S,11,0.76487,0.412614,0.315596
14,9,8,1,8,2,1,C,7,L,6,S,7,0.849537,0.159856,0.135804
14,10,8,1,2,8,1,I,7,L,6,S,10,0.76174,0.476477,0.362952
14,11,9,2,8,2,1,C,7,L,6,S,7,0.811946,0.183462,0.148961
14,12,1,8,8,2,1,I,7,L,6,S,10,0.471414,0.764858,0.360565
14,13,2,9,2,8,1,C,7,L,6,S,7,0.174139,0.82766,0.144128
14,14,8,9,2,8,1,C,1,S,6,S,9,0.293442,0.790595,0.231994
14,15,2,9,8,2,1,I,7,L,6,S,11,0.50192,0.777108,0.390046
14,16,1,2,2,8,1,C,1,S,6,S,8,0.225027,0.81607,0.183638
15,1,2,9,8,2,1,I,7,L,6,S,11,0.51688,0.764298,0.39505
15,2,9,8,2,8,0,I,1,S,6,S,12,0.471871,0.756726,0.357077
15,3,1,8,2,8,1,C,7,L,6,S,7,0.151771,0.860773,0.13064
15,4,8,1,8,2,1,C,7,L,6,S,7,0.85739,0.1531,0.131266
15,5,2,9,2,8,1,C,7,L,6,S,7,0.169271,0.834454,0.141249
15,6,1,8,8,2,1,I,7,L,6,S,10,0.487549,0.753293,0.367268
15,7,2,1,2,8,1,I,1,S,6,S,18,0.754915,0.630928,0.476298
15,8,8,1,2,8,1,I,7,L,6,S,11,0.788046,0.498662,0.392969
15,9,1,2,2,8,1,C,1,S,6,S,8,0.216548,0.831197,0.179994
15,10,9,2,8,2,1,C,7,L,6,S,7,0.831793,0.168465,0.140128
15,11,2,1,8,2,1,C,1,S,6,S,8,0.795946,0.240783,0.19165
15,12,8,9,8,2,0,I,1,S,6,S,11,0.764297,0.424129,0.324161
15,13,8,9,2,8,1,C,1,S,6,S,9,0.27973,0.812069,0.22716
15,14,9,8,8,2,1,C,1,S,6,S,9,0.82706,0.263548,0.21797
15,15,1,2,8,2,1,I,1,S,6,S,16,0.615242,0.75641,0.465375
15,16,9,2,2,8,1,I,7,L,6,S,11,0.760553,0.517166,0.393333
16,1,8,1,8,2,1,C,7,L,6,S,7,0.846065,0.159875,0.135264
16,2,1,8,8,2,1,I,7,L,6,S,10,0.473404,0.76231,0.360881
16,3,9,2,8,2,1,C,7,L,6,S,7,0.821894,0.175811,0.144498
16,4,9,8,2,8,0,I,1,S,6,S,10,0.364003,0.76589,0.278786
16,5,2,9,2,8,1,C,7,L,6,S,7,0.175601,0.817757,0.143599
16,6,1,2,8,2,1,I,1,S,6,S,17,0.617512,0.758242,0.468223
16,7,1,2,2,8,1,C,1,S,6,S,8,0.232965,0.804314,0.187377
16,8,9,2,2,8,1,I,7,L,6,S,11,0.765124,0.511421,0.391301
16,9,8,9,8,2,0,I,1,S,6,S,11,0.770462,0.402214,0.309891
16,10,8,1,2,8,1,I,7,L,6,S,10,0.75206,0.483426,0.363566
16,11,1,8,2,8,1,C,7,L,6,S,7,0.151821,0.856739,0.130071
16,12,9,8,8,2,1,C,1,S,6,S,9,0.766348,0.312785,0.239702
16,13,8,9,2,8,1,C,1,S,6,S,9,0.291532,0.789191,0.230074
16,14,2,1,2,8,1,I,1,S,6,S,17,0.756141,0.619593,0.468499
16,15,2,1,8,2,1,C,1,S,6,S,8,0.800589,0.235144,0.188253
16,16,2,9,8,2,1,I,7,L,6,S,11,0.511668,0.758784,0.388246
17,1,8,1,8,2,1,C,7,L,6,S,7,0.852804,0.156356,0.133341
17,2,8,9,2,8,1,C,1,S,6,S,9,0.275349,0.814851,0.224368
17,3,8,1,2,8,1,I,7,L,6,S,11,0.787777,0.503514,0.396657
17,4,9,2,8,2,1,C,7,L,6,S,7,0.818015,0.179593,0.14691
17,5,8,9,8,2,0,I,1,S,6,S,11,0.7579,0.421254,0.319269
17,6,1,8,2,8,1,C,7,L,6,S,7,0.146789,0.868605,0.127502
17,7,2,9,8,2,1,I,7,L,6,S,11,0.498797,0.781488,0.389804
17,8,1,8,8,2,1,I,7,L,6,S,10,0.476354,0.760865,0.362441
17,9,2,1,2,8,1,I,1,S,6,S,19,0.766852,0.630259,0.483316
17,10,9,8,8,2,1,C,1,S,6,S,9,0.774042,0.310259,0.240154
17,11,1,2,8,2,1,I,1,S,6,S,17,0.609965,0.769487,0.46936
17,12,1,2,2,8,1,C,1,S,6,S,8,0.219636,0.827466,0.181742
17,13,2,9,2,8,1,C,7,L,6,S,7,0.15797,0.851486,0.134509
17,14,9,2,2,8,1,I,7,L,6,S,11,0.751258,0.530189,0.398309
17,15,9,8,2,8,0,I,1,S,6,S,10,0.363757,0.7769,0.282603
17,16,2,1,8,2,1,C,1,S,6,S,8,0.781686,0.25255,0.197415
18,1,1,2,2,8,1,C,1,S,6,S,8,0.238472,0.797008,0.190064
18,2,8,1,8,2,1,C,7,L,6,S,7,0.854777,0.156285,0.133589
18,3,9,8,2,8,1,I,1,S,6,S,22,0.755922,0.644553,0.487232
18,4,8,1,2,8,1,I,7,L,6,S,10,0.762985,0.47541,0.362731
18,5,2,9,8,2,1,I,7,L,6,S,11,0.498743,0.78453,0.391279
18,6,2,1,2,8,1,I,1,S,6,S,18,0.763419,0.622783,0.475444
18,7,8,9,2,8,1,C,1,S,6,S,9,0.249341,0.847153,0.21123
18,8,1,8,2,8,1,C,7,L,6,S,7,0.151959,0.860015,0.130687
18,9,8,9,8,2,1,I,1,S,6,S,20,0.642787,0.753031,0.484039
18,10,1,8,8,2,1,I,7,L,6,S,10,0.47208,0.768818,0.362944
18,11,1,2,8,2,1,I,1,S,6,S,17,0.622544,0.753009,0.468781
18,12,2,1,8,2,1,C,1,S,6,S,8,0.789601,0.246768,0.194849
18,13,9,2,2,8,1,I,7,L,6,S,10,0.754391,0.480518,0.362499
18,14,2,9,2,8,1,C,7,L,6,S,7,0.167262,0.83808,0.140179
18,15,9,2,8,2,1,C,7,L,6,S,7,0.846897,0.160424,0.135863
18,16,9,8,8,2,1,C,1,S,6,S,9,0.8239,0.266532,0.219596
19,1,1,2,8,2,1,I,1,S,6,S,17,0.607553,0.768713,0.467034
19,2,8,1,8,2,1,C,7,L,6,S,7,0.843274,0.162324,0.136883
19,3,2,1,8,2,1,C,1,S,6,S,8,0.7884,0.243262,0.191787
19,4,9,2,2,8,1,I,7,L,6,S,11,0.764942,0.51486,0.393838
19,5,1,2,2,8,1,C,1,S,6,S,8,0.228407,0.814013,0.185926
19,6,1,8,2,8,1,C,7,L,6,S,7,0.155183,0.857951,0.133139
19,7,9,2,8,2,1,C,7,L,6,S,7,0.818498,0.177761,0.145497
19,8,2,1,2,8,1,I,1,S,6,S,18,0.765184,0.621691,0.475708
19,9,2,9,8,2,1,I,7,L,6,S,11,0.505126,0.76777,0.38782
19,10,8,1,2,8,1,I,7,L,6,S,10,0.752882,0.487022,0.36667
19,11,2,9,2,8,1,C,7,L,6,S,7,0.175247,0.825441,0.144656
19,12,8,9,8,2,0,I,1,S,6,S,11,0.778014,0.398954,0.310392
19,13,8,9,2,8,1,C,1,S,6,S,9,0.300074,0.790396,0.237177
19,14,9,8,2,8,0,I,1,S,6,S,12,0.471901,0.760649,0.358951
19,15,9,8,8,2,1,C,1,S,6,S,9,0.809023,0.279544,0.226157
19,16,1,8,8,2,1,I,7,L,6,S,10,0.471682,0.763836,0.360288
20,1,2,1,2,8,1,I,1,S,6,S,18,0.75356,0.627822,0.473101
20,2,8,9,8,2,1,I,1,S,6,S,22,0.645586,0.750552,0.484546
20,3,2,1,8,2,1,C,1,S,6,S,8,0.774124,0.252057,0.195123
20,4,2,9,2,8,1,C,7,L,6,S,7,0.169172,0.832222,0.140789
20,5,9,2,2,8,1,I,7,L,6,S,11,0.781875,0.499346,0.390426
20,6,9,2,8,2,1,C,7,L,6,S,7,0.827442,0.172058,0.142368
20,7,8,1,2,8,1,I,7,L,6,S,10,0.760129,0.477126,0.362677
20,8,8,1,8,2,1,C,7,L,6,S,7,0.843439,0.161051,0.135837
20,9,9,8,2,8,0,I,1,S,6,S,10,0.370418,0.763246,0.28272
20,10,2,9,8,2,1,I,7,L,6,S,11,0.491414,0.783196,0.384874
20,11,1,8,2,8,1,C,7,L,6,S,7,0.152085,0.859704,0.130748
20,12,8,9,2,8,1,C,1,S,6,S,9,0.273835,0.814733,0.223103
20,13,1,2,8,2,1,I,1,S,6,S,18,0.614726,0.764933,0.470224
20,14,1,8,8,2,1,I,7,L,6,S,10,0.461625,0.773804,0.357207
20,15,9,8,8,2,1,C,1,S,6,S,9,0.761078,0.318248,0.242211
20,16,1,2,2,8,1,C,1,S,6,S,8,0.244751,0.787683,0.192786
21,1,2,9,8,2,1,I,7,L,6,S,11,0.513788,0.758857,0.389891
21,2,1,8,8,2,1,I,7,L,6,S,10,0.477663,0.756427,0.361317
21,3,9,2,2,8,1,I,7,L,6,S,11,0.763613,0.511802,0.390818
21,4,2,1,2,8,1,I,1,S,6,S,16,0.757328,0.6088,0.461061
21,5,8,9,8,2,0,I,1,S,6,S,11,0.769496,0.406963,0.313156
21,6,8,1,8,2,1,C,7,L,6,S,7,0.850883,0.154396,0.131373
21,7,1,2,2,8,1,C,1,S,6,S,8,0.233847,0.803988,0.18801
21,8,8,9,2,8,1,C,1,S,6,S,9,0.291083,0.792252,0.230611
21,9,1,8,2,8,1,C,7,L,6,S,7,0.153962,0.852538,0.131259
21,10,2,1,8,2,1,C,1,S,6,S,8,0.821397,0.218922,0.179822
21,11,9,2,8,2,1,C,7,L,6,S,7,0.821885,0.174941,0.143781
21,12,1,2,8,2,1,I,1,S,6,S,17,0.616939,0.759419,0.468515
21,13,2,9,2,8,1,C,7,L,6,S,7,0.177106,0.818199,0.144908
21,14,8,1,2,8,1,I,7,L,6,S,10,0.755164,0.479205,0.361878
21,15,9,8,2,8,0,I,1,S,6,S,10,0.371164,0.758597,0.281564
21,16,9,8,8,2,1,C,1,S,6,S,9,0.773298,0.305723,0.236415
22,1,2,1,2,8,1,I,1,S,6,S,18,0.761983,0.622493,0.474328
22,2,8,1,8,2,1,C,7,L,6,S,7,0.854372,0.152366,0.130178
22,3,1,8,2,8,1,C,7,L,6,S,7,0.156681,0.853238,0.133686
22,4,1,2,8,2,1,I,1,S,6,S,17,0.608009,0.764697,0.464943
22,5,8,1,2,8,1,I,7,L,6,S,10,0.765973,0.473403,0.362614
22,6,9,2,2,8,1,I,7,L,6,S,11,0.762969,0.512538,0.391051
22,7,9,8,2,8,0,I,1,S,6,S,11,0.405717,0.775347,0.314571
22,8,2,9,2,8,1,C,7,L,6,S,7,0.169474,0.836493,0.141763
22,9,1,8,8,2,1,I,7,L,6,S,10,0.472265,0.761429,0.359596
22,10,1,2,2,8,1,C,1,S,6,S,8,0.229605,0.808069,0.185537
22,11,2,9,8,2,1,I,7,L,6,S,11,0.495594,0.783202,0.38815
22,12,8,9,2,8,1,C,1,S,6,S,9,0.315977,0.769944,0.243285
22,13,8,9,8,2,0,I,1,S,6,S,10,0.762696,0.368388,0.280968
22,14,2,1,8,2,1,C,1,S,6,S,8,0.784894,0.244747,0.1921
22,15,9,2,8,2,1,C,7,L,6,S,7,0.815327,0.177664,0.144854
22,16,9,8,8,2,1,C,1,S,6,S,9,0.784612,0.298268,0.234025
23,1,8,1,8,2,1,C,7,L,6,S,7,0.858469,0.155743,0.1337
23,2,2,1,2,8,1,I,1,S,6,S,18,0.763878,0.621492,0.474744
23,3,1,8,8,2,1,I,7,L,6,S,10,0.484939,0.754491,0.365882
23,4,1,2,2,8,1,C,1,S,6,S,8,0.23842,0.798949,0.190486
23,5,1,2,8,2,1,I,1,S,6,S,17,0.627548,0.752119,0.47199
23,6,9,8,8,2,1,C,1,S,6,S,9,0.784114,0.300531,0.235651
23,7,2,9,8,2,1,I,7,L,6,S,11,0.505792,0.776214,0.392603
23,8,1,8,2,8,1,C,7,L,6,S,7,0.157153,0.850309,0.133628
23,9,9,2,2,8,1,I,7,L,6,S,11,0.76575,0.509979,0.390516
23,10,9,2,8,2,1,C,7,L,6,S,7,0.827219,0.174252,0.144145
23,11,2,1,8,2,1,C,1,S,6,S,8,0.795065,0.243672,0.193735
23,12,9,8,2,8,0,I,1,S,6,S,10,0.379874,0.751415,0.285443
23,13,8,9,8,2,1,I,1,S,6,S,21,0.647342,0.752695,0.487251
23,14,8,9,2,8,1,C,1,S,6,S,9,0.255771,0.836266,0.213892
23,15,8,1,2,8,1,I,7,L,6,S,10,0.760734,0.478114,0.363717
23,16,2,9,2,8,1,C,7,L,6,S,7,0.166437,0.834804,0.138942
24,1,9,8,2,8,0,I,1,S,6,S,10,0.35805,0.781851,0.279941
24,2,2,9,2,8,1,C,7,L,6,S,7,0.1715,0.834731,0.143156
24,3,1,8,2,8,1,C,7,L,6,S,7,0.149796,0.866125,0.129742
24,4,9,2,8,2,1,C,7,L,6,S,7,0.830857,0.171061,0.142127
24,5,1,2,2,8,1,C,1,S,6,S,8,0.240595,0.796113,0.191541
24,6,8,1,8,2,1,C,7,L,6,S,7,0.851107,0.159626,0.135859
24,7,8,9,8,2,0,I,1,S,6,S,12,0.764249,0.466296,0.356367
24,8,8,1,2,8,1,I,7,L,6,S,10,0.752643,0.489914,0.36873
24,9,2,1,2,8,1,I,1,S,6,S,17,0.752589,0.62943,0.473702
24,10,8,9,2,8,1,C,1,S,6,S,9,0.276801,0.820601,0.227143
24,11,1,2,8,2,1,I,1,S,6,S,18,0.623764,0.759551,0.47378
24,12,9,2,2,8,1,I,7,L,6,S,11,0.769355,0.513366,0.394961
24,13,2,9,8,2,1,I,7,L,6,S,11,0.509031,0.771297,0.392614
24,14,1,8,8,2,1,I,7,L,6,S,10,0.47509,0.76538,0.363624
24,15,9,8,8,2,1,C,1,S,6,S,9,0.767818,0.31905,0.244973
24,16,2,1,8,2,1,C,1,S,6,S,8,0.800284,0.239941,0.192021
25,1,1,8,8,2,1,I,7,L,6,S,10,0.475953,0.761904,0.36263
25,2,2,9,2,8,1,C,7,L,6,S,7,0.169064,0.831259,0.140536
25,3,2,1,2,8,1,I,1,S,6,S,18,0.754252,0.625315,0.471645
25,4,9,2,2,8,1,I,7,L,6,S,11,0.764917,0.510764,0.390692
25,5,2,1,8,2,1,C,1,S,6,S,8,0.786726,0.241473,0.189973
25,6,9,2,8,2,1,C,7,L,6,S,7,0.824557,0.171986,0.141812
25,7,8,9,2,8,1,C,1,S,6,S,9,0.317564,0.765827,0.243199
25,8,8,1,2,8,1,I,7,L,6,S,10,0.758967,0.477657,0.362526
25,9,9,8,8,2,1,C,1,S,6,S,9,0.823971,0.262192,0.216038
25,10,1,2,8,2,1,I,1,S,6,S,16,0.602933,0.76834,0.463258
25,11,1,8,2,8,1,C,7,L,6,S,7,0.15232,0.858802,0.130813
25,12,1,2,2,8,1,C,1,S,6,S,8,0.216609,0.831357,0.180079
25,13,8,1,8,2,1,C,7,L,6,S,7,0.855486,0.151514,0.129618
25,14,2,9,8,2,1,I,7,L,6,S,11,0.505203,0.771275,0.38965
25,15,8,9,8,2,0,I,1,S,6,S,10,0.774987,0.356271,0.276106
25,16,9,8,2,8,1,I,1,S,6,S,22,0.75463,0.6431,0.485303
26,1,8,9,8,2,0,I,1,S,6,S,11,0.783127,0.389411,0.304958
26,2,2,1,8,2,1,C,1,S,6,S,8,0.791359,0.242028,0.191531
26,3,9,2,2,8,1,I,7,L,6,S,11,0.763914,0.51384,0.392529
26,4,8,1,2,8,1,I,7,L,6,S,10,0.752114,0.48434,0.364278
26,5,2,9,8,2,1,I,7,L,6,S,11,0.506179,0.770968,0.390248
26,6,1,8,2,8,1,C,7,L,6,S,7,0.145307,0.869131,0.12629
26,7,1,2,8,2,1,I,1,S,6,S,16,0.602803,0.766184,0.461858
26,8,8,9,2,8,1,C,1,S,6,S,9,0.297366,0.785772,0.233662
26,9,9,8,8,2,1,C,1,S,6,S,9,0.773342,0.307221,0.237587
26,10,1,8,8,2,1,I,7,L,6,S,10,0.467779,0.772413,0.361318
26,11,2,1,2,8,1,I,1,S,6,S,18,0.761638,0.623214,0.474663
26,12,1,2,2,8,1,C,1,S,6,S,8,0.212293,0.833942,0.17704
26,13,8,1,8,2,1,C,7,L,6,S,7,0.84855,0.157396,0.133558
26,14,9,8,2,8,0,I,1,S,6,S,10,0.371105,0.76165,0.282652
26,15,2,9,2,8,1,C,7,L,6,S,7,0.170314,0.831223,0.141569
26,16,9,2,8,2,1,C,7,L,6,S,7,0.823221,0.174766,0.143871
27,1,9,2,2,8,1,I,7,L,6,S,11,0.768265,0.513643,0.394614
27,2,9,2,8,2,1,C,7,L,6,S,7,0.837571,0.16656,0.139506
27,3,9,8,8,2,1,C,1,S,6,S,9,0.805093,0.280669,0.225965
27,4,8,9,2,8,1,C,1,S,6,S,9,0.286709,0.804084,0.230538
27,5,1,2,2,8,1,C,1,S,6,S,8,0.226777,0.818123,0.185532
27,6,1,8,2,8,1,C,7,L,6,S,7,0.153197,0.856398,0.131197
27,7,8,9,8,2,0,I,1,S,6,S,11,0.773396,0.412181,0.318779
27,8,2,9,8,2,1,I,7,L,6,S,11,0.519106,0.7616,0.395351
27,9,1,2,8,2,1,I,1,S,6,S,17,0.61744,0.76418,0.471835
27,10,2,1,2,8,1,I,1,S,6,S,18,0.760906,0.62719,0.477233
27,11,2,1,8,2,1,C,1,S,6,S,8,0.800703,0.237703,0.19033
27,12,9,8,2,8,0,I,1,S,6,S,11,0.409817,0.770478,0.315755
27,13,1,8,8,2,1,I,7,L,6,S,11,0.498347,0.786989,0.392194
27,14,2,9,2,8,1,C,7,L,6,S,7,0.17238,0.831314,0.143302
27,15,8,1,2,8,1,I,7,L,6,S,10,0.752647,0.486986,0.366529
27,16,8,1,8,2,1,C,7,L,6,S,7,0.859479,0.15151,0.13022
28,1,1,2,2,8,1,C,1,S,6,S,8,0.219002,0.825492,0.180784
28,2,8,1,2,8,1,I,7,L,6,S,10,0.758582,0.479272,0.363568
28,3,9,8,2,8,0,I,1,S,6,S,12,0.469242,0.759932,0.356592
28,4,8,9,2,8,1,C,1,S,6,S,9,0.269422,0.820028,0.220933
28,5,1,8,2,8,1,C,7,L,6,S,7,0.154333,0.855616,0.13205
28,6,2,9,8,2,1,I,7,L,6,S,11,0.506429,0.770822,0.390367
28,7,2,1,8,2,1,C,1,S,6,S,8,0.827985,0.21723,0.179863
28,8,1,8,8,2,1,I,7,L,6,S,10,0.477178,0.760752,0.363014
28,9,8,1,8,2,1,C,7,L,6,S,7,0.853688,0.155643,0.132871
28,10,9,2,8,2,1,C,7,L,6,S,7,0.816513,0.181024,0.147808
28,11,2,9,2,8,1,C,7,L,6,S,7,0.17088,0.828887,0.14164
28,12,2,1,2,8,1,I,1,S,6,S,16,0.765514,0.604169,0.4625
28,13,9,8,8,2,1,C,1,S,6,S,9,0.812283,0.278799,0.226464
28,14,8,9,8,2,0,I,1,S,6,S,12,0.750762,0.476571,0.357791
28,15,1,2,8,2,1,I,1,S,6,S,16,0.60862,0.761098,0.46322
28,16,9,2,2,8,1,I,7,L,6,S,11,0.758173,0.517609,0.392437
29,1,9,8,2,8,0,I,1,S,6,S,10,0.376548,0.754173,0.283983
29,2,8,1,8,2,1,C,7,L,6,S,7,0.867299,0.145088,0.125835
29,3,1,8,8,2,1,I,7,L,6,S,10,0.465993,0.774048,0.360701
29,4,8,9,2,8,1,C,1,S,6,S,9,0.315795,0.768534,0.2427
29,5,1,2,8,2,1,I,1,S,6,S,18,0.625895,0.755507,0.472868
29,6,9,2,8,2,1,C,7,L,6,S,7,0.841351,0.161645,0.136
29,7,2,9,2,8,1,C,7,L,6,S,7,0.166498,0.839338,0.139748
29,8,9,8,8,2,1,C,1,S,6,S,9,0.773909,0.304961,0.236012
29,9,2,1,8,2,1,C,1,S,6,S,8,0.813731,0.225083,0.183157
29,10,8,1,2,8,1,I,7,L,6,S,10,0.776325,0.465433,0.361328
29,11,9,2,2,8,1,I,7,L,6,S,11,0.787499,0.494053,0.389066
29,12,1,8,2,8,1,C,7,L,6,S,7,0.147747,0.866118,0.127966
29,13,1,2,2,8,1,C,1,S,6,S,8,0.24952,0.782739,0.195309
29,14,2,1,2,8,1,I,1,S,6,S,16,0.751844,0.614234,0.461808
29,15,2,9,8,2,1,I,7,L,6,S,11,0.496252,0.785068,0.389591
29,16,8,9,8,2,0,I,1,S,6,S,10,0.76648,0.365844,0.280412
30,1,9,2,8,2,1,C,7,L,6,S,7,0.819393,0.175298,0.143638
30,2,2,1,8,2,1,C,1,S,6,S,8,0.833263,0.212541,0.177102
30,3,8,9,8,2,0,I,1,S,6,S,12,0.764499,0.452619,0.346027
30,4,8,9,2,8,1,C,1,S,6,S,9,0.281902,0.801704,0.226002
30,5,9,8,2,8,0,I,1,S,6,S,11,0.399628,0.780261,0.311814
30,6,1,8,2,8,1,C,7,L,6,S,7,0.150651,0.861694,0.129815
30,7,1,8,8,2,1,I,7,L,6,S,10,0.467906,0.771032,0.36077
30,8,8,1,2,8,1,I,7,L,6,S,10,0.765418,0.472269,0.361483
30,9,2,9,2,8,1,C,7,L,6,S,7,0.178704,0.816463,0.145905
30,10,8,1,8,2,1,C,7,L,6,S,7,0.855419,0.15277,0.130683
30,11,2,9,8,2,1,I,7,L,6,S,11,0.510421,0.76149,0.38868
30,12,1,2,2,8,1,C,1,S,6,S,8,0.21074,0.832019,0.17534
30,13,9,8,8,2,1,C,1,S,6,S,9,0.784352,0.301434,0.23643
30,14,2,1,2,8,1,I,1,S,6,S,15,0.753532,0.602256,0.453819
30,15,9,2,2,8,1,I,7,L,6,S,11,0.765543,0.508483,0.389266
30,16,1,2,8,2,1,I,1,S,6,S,16,0.594893,0.771006,0.458666
