ANN,trial,N1,N2,P1,P2,Succ.,Cong,Ndist,Ndist,Pdist,Pdist,rt,a1,a2,x_acc
1,1,9,1,1,9,1,I,8,L,8,L,10,0.769335,0.451044,0.347004
1,2,1,9,2,9,1,C,8,L,7,L,9,0.274988,0.856919,0.235642
1,3,2,1,2,9,1,I,1,S,7,L,13,0.751304,0.560639,0.421211
1,4,8,9,1,9,1,C,1,S,8,L,11,0.402966,0.779986,0.314308
1,5,1,2,1,9,1,C,1,S,8,L,10,0.394768,0.753007,0.297263
1,6,9,2,9,1,1,C,7,L,8,L,8,0.813519,0.262989,0.213947
1,7,2,8,8,9,1,C,6,S,1,S,10,0.377186,0.780873,0.294534
1,8,2,1,9,1,1,C,1,S,8,L,9,0.831764,0.290728,0.241817
1,9,1,9,9,2,1,I,8,L,7,L,12,0.521464,0.773829,0.403524
1,10,1,9,8,9,1,C,8,L,1,S,10,0.362878,0.802851,0.291337
1,11,1,8,1,8,1,C,7,L,7,L,8,0.267333,0.805006,0.215205
1,12,1,8,2,9,1,C,7,L,7,L,8,0.289902,0.776401,0.225081
1,13,1,8,8,2,1,I,7,L,6,S,11,0.468249,0.786248,0.36816
1,14,9,1,2,9,1,I,8,L,7,L,10,0.780943,0.437877,0.341957
1,15,9,2,9,8,1,C,7,L,1,S,9,0.788934,0.332563,0.26237
1,16,2,9,2,8,1,C,7,L,6,S,9,0.303735,0.817108,0.248184
1,17,1,2,9,1,0,I,1,S,8,L,11,0.752753,0.443105,0.333549
1,18,8,9,2,1,0,I,1,S,1,S,17,0.754535,0.514385,0.388121
1,19,2,8,9,1,1,I,6,S,8,L,13,0.557936,0.772476,0.430992
1,20,9,8,8,1,1,C,1,S,7,L,10,0.767574,0.38031,0.291916
1,21,8,1,8,9,1,I,7,L,1,S,9,0.783899,0.334637,0.262322
1,22,9,8,2,8,0,I,1,S,6,S,12,0.471645,0.756377,0.356741
1,23,1,2,1,2,1,C,1,S,1,S,13,0.407212,0.80882,0.329361
1,24,8,1,9,1,1,C,7,L,8,L,8,0.805636,0.266099,0.214379
1,25,1,9,1,9,1,C,8,L,8,L,8,0.301615,0.757832,0.228574
1,26,2,8,8,1,1,I,6,S,7,L,13,0.540986,0.786464,0.425466
1,27,8,1,8,1,1,C,7,L,7,L,8,0.790918,0.277761,0.219686
1,28,8,1,9,2,1,C,7,L,7,L,8,0.787663,0.278505,0.219368
1,29,2,9,2,1,1,I,7,L,1,S,11,0.422668,0.770982,0.325869
1,30,1,9,8,1,1,I,8,L,7,L,12,0.52604,0.771878,0.406039
1,31,1,2,1,8,1,C,1,S,7,L,10,0.378656,0.77575,0.293742
1,32,1,2,9,2,0,I,1,S,7,L,12,0.76154,0.46221,0.351991
1,33,9,2,8,1,1,C,7,L,7,L,8,0.798802,0.274651,0.219391
1,34,8,9,9,8,1,I,1,S,1,S,26,0.613938,0.773436,0.474842
1,35,2,8,2,1,1,I,6,S,1,S,10,0.395683,0.764599,0.302539
1,36,2,9,9,1,1,I,7,L,8,L,14,0.595577,0.752474,0.448156
1,37,1,2,8,1,0,I,1,S,7,L,12,0.766117,0.460259,0.352612
1,38,9,2,8,2,1,C,7,L,6,S,8,0.778299,0.289265,0.225135
1,39,8,1,1,8,1,I,7,L,7,L,11,0.752533,0.513101,0.386125
1,40,2,8,1,9,1,C,6,S,8,L,9,0.276875,0.849138,0.235106
1,41,8,2,8,2,1,C,6,S,6,S,9,0.83426,0.289743,0.241721
1,42,1,9,8,2,1,I,8,L,6,S,12,0.497853,0.792527,0.394562
1,43,8,2,9,1,1,C,6,S,8,L,8,0.763916,0.297247,0.227072
1,44,1,8,9,1,1,I,7,L,8,L,11,0.5142,0.75191,0.386632
1,45,2,1,1,8,1,I,1,S,7,L,14,0.75865,0.590807,0.448216
1,46,9,8,2,9,0,I,1,S,7,L,14,0.518321,0.760187,0.394021
1,47,2,1,2,1,1,C,1,S,1,S,10,0.784157,0.364325,0.285688
1,48,1,8,8,9,1,C,7,L,1,S,9,0.355861,0.763207,0.271595
1,49,8,9,1,2,1,C,1,S,1,S,14,0.44224,0.784125,0.346771
1,50,9,1,9,8,1,C,8,L,1,S,9,0.825612,0.305748,0.252429
1,51,8,2,8,1,1,C,6,S,7,L,9,0.858484,0.272656,0.234071
1,52,1,2,9,8,1,I,1,S,1,S,17,0.506986,0.774313,0.392566
1,53,9,8,8,9,1,I,1,S,1,S,14,0.802847,0.422208,0.338968
1,54,1,8,1,9,1,C,7,L,8,L,8,0.280336,0.786518,0.220489
1,55,2,8,2,8,1,C,6,S,6,S,8,0.307175,0.751352,0.230796
1,56,2,1,8,2,1,C,1,S,6,S,9,0.790879,0.320812,0.253723
1,57,2,1,8,9,1,I,1,S,1,S,10,0.76566,0.380599,0.291409
1,58,9,8,9,8,1,C,1,S,1,S,14,0.786765,0.433881,0.341362
1,59,9,2,8,9,1,I,7,L,1,S,9,0.792837,0.330742,0.262225
1,60,8,1,1,2,1,I,7,L,1,S,10,0.801601,0.374987,0.30059
1,61,2,8,8,2,1,I,6,S,6,S,12,0.513896,0.76899,0.395181
1,62,9,8,1,2,1,I,1,S,1,S,19,0.750293,0.612541,0.459585
1,63,9,1,2,8,1,I,8,L,6,S,10,0.762295,0.463883,0.353615
1,64,9,2,1,9,1,I,7,L,8,L,11,0.779371,0.484746,0.377797
1,65,9,8,2,1,1,C,1,S,1,S,13,0.790061,0.420194,0.331979
1,66,9,1,8,1,1,C,8,L,7,L,8,0.832132,0.250335,0.208312
1,67,8,2,1,8,1,I,6,S,7,L,13,0.778222,0.554845,0.431792
1,68,9,1,1,2,1,I,8,L,1,S,9,0.780872,0.352597,0.275333
1,69,9,2,2,9,1,I,7,L,7,L,11,0.791384,0.471106,0.372826
1,70,8,1,1,9,1,I,7,L,8,L,11,0.769379,0.48975,0.376803
1,71,2,1,1,2,1,I,1,S,1,S,11,0.751461,0.445023,0.334418
1,72,9,8,9,2,1,C,1,S,7,L,10,0.763398,0.381763,0.291437
1,73,8,2,1,2,1,I,6,S,1,S,11,0.805525,0.40629,0.327277
1,74,8,2,2,9,1,I,6,S,7,L,12,0.76896,0.519946,0.399818
1,75,1,2,8,9,1,C,1,S,1,S,17,0.536367,0.753332,0.404062
1,76,8,2,9,8,1,C,6,S,1,S,10,0.810364,0.348011,0.282016
1,77,1,9,9,8,1,I,8,L,1,S,10,0.357658,0.805804,0.288202
1,78,1,9,1,2,1,C,8,L,1,S,9,0.331441,0.778868,0.258149
1,79,8,1,9,8,1,C,7,L,1,S,9,0.779996,0.336458,0.262436
1,80,9,2,2,1,1,C,7,L,1,S,9,0.805923,0.319048,0.257128
1,81,8,2,2,1,1,C,6,S,1,S,10,0.834081,0.328784,0.274233
1,82,1,9,2,8,1,C,8,L,6,S,8,0.296579,0.767986,0.227769
1,83,9,8,1,8,0,I,1,S,7,L,12,0.462608,0.765998,0.354357
1,84,2,1,9,8,1,C,1,S,1,S,10,0.76044,0.383551,0.291667
1,85,9,1,2,1,1,C,8,L,1,S,9,0.842601,0.292233,0.246236
1,86,2,1,8,1,1,C,1,S,7,L,9,0.815104,0.303725,0.247567
1,87,1,2,2,1,1,I,1,S,1,S,19,0.601194,0.751292,0.451672
1,88,2,1,1,9,1,I,1,S,8,L,14,0.77522,0.569285,0.441321
1,89,1,8,9,8,1,I,7,L,1,S,9,0.351958,0.765028,0.269258
1,90,9,8,1,9,0,I,1,S,8,L,13,0.49058,0.762087,0.373865
1,91,8,9,1,8,1,C,1,S,7,L,11,0.38612,0.803337,0.310184
1,92,9,1,8,9,1,I,8,L,1,S,9,0.829514,0.303927,0.252112
1,93,2,9,8,2,1,I,7,L,6,S,13,0.556558,0.750802,0.417865
1,94,2,9,1,9,1,C,7,L,8,L,9,0.309888,0.805349,0.249568
1,95,1,8,2,1,1,I,7,L,1,S,9,0.368947,0.751513,0.277268
1,96,9,8,9,1,1,C,1,S,8,L,10,0.785279,0.366465,0.287777
1,97,9,2,2,8,1,I,7,L,6,S,11,0.771696,0.498161,0.384428
1,98,8,2,2,8,1,I,6,S,6,S,13,0.786948,0.545769,0.429492
1,99,8,1,2,1,1,C,7,L,1,S,9,0.796985,0.322943,0.257381
1,100,8,9,8,9,1,C,1,S,1,S,26,0.640386,0.752059,0.481608
1,101,1,9,9,1,1,I,8,L,8,L,12,0.543698,0.757614,0.411913
1,102,2,1,9,2,1,C,1,S,7,L,9,0.811322,0.304843,0.247325
1,103,8,9,9,2,0,I,1,S,7,L,11,0.761934,0.421036,0.320801
1,104,8,1,8,2,1,C,7,L,6,S,8,0.770415,0.292375,0.22525
1,105,1,2,2,8,1,C,1,S,6,S,10,0.387728,0.765845,0.29694
1,106,2,8,9,2,1,I,6,S,7,L,12,0.537506,0.750292,0.403286
1,107,2,8,2,9,1,C,6,S,7,L,9,0.28767,0.837144,0.240821
1,108,2,9,8,9,1,C,7,L,1,S,11,0.397157,0.792924,0.314915
1,109,9,8,8,2,1,C,1,S,6,S,11,0.808099,0.37402,0.302245
1,110,1,9,1,8,1,C,8,L,7,L,8,0.288613,0.77632,0.224056
1,111,9,1,9,1,1,C,8,L,8,L,8,0.84685,0.238674,0.202121
1,112,2,9,8,1,1,I,7,L,7,L,14,0.579574,0.765968,0.443935
1,113,9,2,1,2,1,I,7,L,1,S,10,0.811228,0.370456,0.300524
1,114,9,2,9,2,1,C,7,L,7,L,8,0.795546,0.275395,0.219089
1,115,1,2,2,9,1,C,1,S,7,L,11,0.383392,0.804391,0.308397
1,116,2,8,1,2,1,C,6,S,1,S,9,0.344124,0.759093,0.261222
1,117,8,9,9,1,0,I,1,S,8,L,11,0.784341,0.40506,0.317705
1,118,2,9,2,9,1,C,7,L,7,L,9,0.320683,0.793355,0.254415
1,119,9,1,1,8,1,I,8,L,7,L,10,0.753223,0.473787,0.356867
1,120,8,2,9,2,1,C,6,S,7,L,9,0.854702,0.273774,0.233995
1,121,1,8,8,1,1,I,7,L,7,L,11,0.496228,0.766154,0.380187
1,122,2,8,1,8,1,C,6,S,7,L,8,0.299208,0.759686,0.227304
1,123,2,9,9,2,1,I,7,L,7,L,14,0.57495,0.768184,0.441667
1,124,8,2,1,9,1,I,6,S,8,L,12,0.756898,0.533483,0.403792
1,125,2,8,9,8,1,I,6,S,1,S,10,0.371966,0.783826,0.291556
1,126,1,8,2,8,1,C,7,L,6,S,8,0.275299,0.796672,0.219323
1,127,8,9,8,1,0,I,1,S,7,L,11,0.766368,0.419304,0.321341
1,128,9,1,8,2,1,C,8,L,6,S,8,0.811629,0.26495,0.215041
1,129,8,1,2,8,1,I,7,L,6,S,11,0.761704,0.503164,0.383262
1,130,9,2,1,8,1,I,7,L,7,L,11,0.762524,0.508098,0.387437
1,131,1,8,1,2,1,C,7,L,1,S,9,0.307218,0.811877,0.249424
1,132,1,9,2,1,1,I,8,L,1,S,10,0.381375,0.786577,0.299981
1,133,8,9,2,9,1,C,1,S,7,L,11,0.414979,0.766346,0.318018
1,134,2,9,1,2,1,C,7,L,1,S,10,0.347827,0.799339,0.278032
1,135,2,9,1,8,1,C,7,L,7,L,9,0.295052,0.826507,0.243862
1,136,1,8,9,2,1,I,7,L,7,L,11,0.491793,0.767886,0.377641
1,137,8,9,8,2,0,I,1,S,6,S,12,0.781411,0.429032,0.335251
1,138,2,1,2,8,1,I,1,S,6,S,14,0.766943,0.582411,0.446676
1,139,8,9,2,8,1,C,1,S,6,S,11,0.395291,0.7934,0.313624
1,140,9,1,9,2,1,C,8,L,7,L,8,0.828877,0.251079,0.208114
1,141,8,1,2,9,1,I,7,L,7,L,11,0.781392,0.47611,0.372028
1,142,1,2,8,2,0,I,1,S,6,S,13,0.761027,0.487138,0.370725
1,143,8,2,8,9,1,I,6,S,1,S,10,0.815585,0.345058,0.281424
1,144,2,9,9,8,1,I,7,L,1,S,11,0.390173,0.797381,0.311117
2,1,1,9,2,8,1,C,8,L,6,S,8,0.277362,0.788008,0.218563
2,2,8,1,9,2,1,C,7,L,7,L,8,0.751782,0.305968,0.230021
2,3,2,8,9,8,1,I,6,S,1,S,10,0.323715,0.833356,0.26977
2,4,2,1,8,1,1,C,1,S,7,L,10,0.791084,0.360996,0.285578
2,5,8,2,9,2,1,C,6,S,7,L,9,0.817624,0.301248,0.246308
2,6,2,9,1,9,1,C,7,L,8,L,9,0.277771,0.845549,0.234869
2,7,9,8,1,8,1,I,1,S,7,L,16,0.763211,0.621543,0.474369
2,8,8,2,2,9,1,I,6,S,7,L,13,0.788174,0.518852,0.408946
2,9,1,2,2,1,1,I,1,S,1,S,14,0.56064,0.756218,0.423966
2,10,9,8,2,8,1,I,1,S,6,S,15,0.750733,0.610248,0.458134
2,11,1,9,9,2,1,I,8,L,7,L,11,0.493142,0.760902,0.375232
2,12,1,8,2,1,1,I,7,L,1,S,11,0.457781,0.777389,0.355874
2,13,1,2,8,2,1,I,1,S,6,S,15,0.586345,0.764448,0.44823
2,14,2,9,8,2,1,I,7,L,6,S,12,0.516836,0.761854,0.393753
2,15,2,9,9,2,1,I,7,L,7,L,13,0.539241,0.783085,0.422272
2,16,2,8,9,1,1,I,6,S,8,L,14,0.590303,0.761736,0.449655
2,17,9,1,8,1,1,C,8,L,7,L,8,0.802113,0.269133,0.215875
2,18,8,9,2,1,0,I,1,S,1,S,14,0.76416,0.489668,0.374185
2,19,9,1,9,8,1,C,8,L,1,S,10,0.794508,0.392166,0.311579
2,20,1,2,2,9,1,C,1,S,7,L,10,0.331656,0.821769,0.272544
2,21,8,9,9,1,0,I,1,S,8,L,11,0.762688,0.426753,0.32548
2,22,8,1,9,1,1,C,7,L,8,L,8,0.77382,0.290513,0.224805
2,23,8,1,8,9,1,I,7,L,1,S,10,0.793978,0.369222,0.293154
2,24,2,9,2,8,1,C,7,L,6,S,9,0.274334,0.853377,0.23411
2,25,8,2,2,8,1,I,6,S,6,S,14,0.779233,0.572039,0.445752
2,26,9,1,1,8,1,I,8,L,7,L,12,0.790628,0.524723,0.414861
2,27,2,9,8,1,1,I,7,L,7,L,13,0.549618,0.77511,0.426014
2,28,9,8,2,9,1,I,1,S,7,L,14,0.760206,0.562381,0.427525
2,29,1,2,1,9,1,C,1,S,8,L,9,0.332778,0.772587,0.257099
2,30,9,2,8,1,1,C,7,L,7,L,8,0.772555,0.289924,0.223982
2,31,8,1,1,2,1,I,7,L,1,S,10,0.774152,0.387093,0.299669
2,32,1,9,1,8,1,C,8,L,7,L,8,0.257702,0.812599,0.209408
2,33,1,8,2,9,1,C,7,L,7,L,9,0.289653,0.833649,0.241469
2,34,8,2,2,1,1,C,6,S,1,S,9,0.773369,0.334281,0.258523
2,35,9,2,8,9,1,I,7,L,1,S,10,0.810006,0.35678,0.288994
2,36,2,9,9,1,1,I,7,L,8,L,13,0.565859,0.763012,0.431757
2,37,8,9,1,2,1,C,1,S,1,S,14,0.417653,0.80164,0.334807
2,38,8,1,8,2,1,C,7,L,6,S,9,0.842365,0.28291,0.238313
2,39,1,8,8,2,1,I,7,L,6,S,11,0.489406,0.753296,0.368668
2,40,1,8,1,9,1,C,7,L,8,L,8,0.295253,0.762487,0.225127
2,41,1,8,9,1,1,I,7,L,8,L,12,0.542341,0.758911,0.411589
2,42,1,9,9,1,1,I,8,L,8,L,12,0.5232,0.782504,0.409407
2,43,1,2,1,2,1,C,1,S,1,S,11,0.361196,0.813533,0.293845
2,44,2,8,1,9,1,C,6,S,8,L,9,0.301307,0.816239,0.245938
2,45,1,9,8,9,1,C,8,L,1,S,9,0.335968,0.777137,0.261093
2,46,9,1,2,1,1,C,8,L,1,S,8,0.757831,0.302763,0.229443
2,47,1,2,9,1,1,I,1,S,8,L,16,0.619547,0.762462,0.472381
2,48,9,1,9,1,1,C,8,L,8,L,8,0.815872,0.259715,0.211894
2,49,9,2,2,8,1,I,7,L,6,S,12,0.777078,0.5237,0.406956
2,50,8,1,1,8,1,I,7,L,7,L,13,0.77572,0.562553,0.436384
2,51,9,2,1,9,1,I,7,L,8,L,12,0.781925,0.514562,0.402349
2,52,9,1,2,8,1,I,8,L,6,S,11,0.772133,0.494365,0.381715
2,53,9,8,8,1,1,C,1,S,7,L,9,0.78502,0.324307,0.254587
2,54,2,1,2,8,1,I,1,S,6,S,20,0.753589,0.65916,0.496735
2,55,1,8,9,2,1,I,7,L,7,L,12,0.514906,0.779146,0.401187
2,56,2,9,2,9,1,C,7,L,7,L,9,0.310076,0.804866,0.24957
2,57,9,1,2,9,1,I,8,L,7,L,10,0.7647,0.433726,0.33167
2,58,8,9,2,8,1,C,1,S,6,S,10,0.392337,0.752991,0.295427
2,59,8,1,8,1,1,C,7,L,7,L,8,0.760061,0.299932,0.227967
2,60,8,1,2,9,1,I,7,L,7,L,11,0.761242,0.476378,0.362639
2,61,8,9,9,8,1,I,1,S,1,S,12,0.425974,0.7639,0.325401
2,62,9,1,1,9,1,I,8,L,8,L,11,0.776656,0.485391,0.376982
2,63,2,1,1,9,1,I,1,S,8,L,20,0.758093,0.651761,0.494095
2,64,1,2,8,1,1,I,1,S,7,L,16,0.605758,0.773283,0.468422
2,65,8,1,2,8,1,I,7,L,6,S,12,0.760499,0.536892,0.408306
2,66,8,2,8,1,1,C,6,S,7,L,9,0.827208,0.29433,0.243472
2,67,9,8,8,2,1,C,1,S,6,S,9,0.756022,0.344871,0.26073
2,68,2,9,8,9,1,C,7,L,1,S,10,0.348808,0.806109,0.281177
2,69,2,1,8,2,1,C,1,S,6,S,10,0.7591,0.383757,0.29131
2,70,2,9,1,2,1,C,7,L,1,S,10,0.328981,0.82398,0.271074
2,71,8,9,1,9,1,C,1,S,8,L,11,0.376048,0.805689,0.302978
2,72,9,2,2,9,1,I,7,L,7,L,11,0.777862,0.463369,0.360437
2,73,1,9,9,8,1,I,8,L,1,S,9,0.297085,0.821584,0.24408
2,74,1,2,2,8,1,C,1,S,6,S,9,0.32934,0.780414,0.257021
2,75,9,1,9,2,1,C,8,L,7,L,8,0.793833,0.275169,0.218438
2,76,2,9,9,8,1,I,7,L,1,S,9,0.334615,0.771197,0.258054
2,77,9,1,8,2,1,C,8,L,6,S,8,0.777563,0.286737,0.222956
2,78,2,8,9,2,1,I,6,S,7,L,14,0.564884,0.781306,0.441347
2,79,8,2,1,2,1,I,6,S,1,S,11,0.781808,0.412314,0.322351
2,80,2,8,8,1,1,I,6,S,7,L,14,0.57479,0.77353,0.444617
2,81,2,1,9,2,1,C,1,S,7,L,10,0.780697,0.368535,0.287714
2,82,9,2,1,8,1,I,7,L,7,L,12,0.753947,0.551821,0.416044
2,83,9,2,9,1,1,C,7,L,8,L,8,0.786314,0.280505,0.220565
2,84,9,2,9,2,1,C,7,L,7,L,8,0.764275,0.29596,0.226195
2,85,8,9,1,8,1,C,1,S,7,L,10,0.369543,0.781678,0.288863
2,86,8,1,2,1,1,C,7,L,1,S,9,0.817524,0.302297,0.247135
2,87,8,2,9,1,1,C,6,S,8,L,9,0.842772,0.283639,0.239042
2,88,8,1,1,9,1,I,7,L,8,L,12,0.765346,0.527755,0.403915
2,89,9,1,1,2,1,I,8,L,1,S,9,0.755797,0.362579,0.274036
2,90,1,9,8,2,1,I,8,L,6,S,11,0.470385,0.777155,0.365562
2,91,2,8,2,1,1,I,6,S,1,S,13,0.513601,0.78836,0.404902
2,92,1,2,9,2,1,I,1,S,7,L,16,0.597021,0.780393,0.465911
2,93,2,1,1,8,0,I,1,S,7,L,12,0.485272,0.754625,0.366198
2,94,9,2,1,2,1,I,7,L,1,S,10,0.79018,0.374651,0.296042
2,95,8,2,9,8,1,C,6,S,1,S,12,0.787154,0.466375,0.367109
2,96,2,8,2,9,1,C,6,S,7,L,9,0.333612,0.775556,0.258735
2,97,1,8,9,8,1,I,7,L,1,S,9,0.314191,0.799979,0.251346
2,98,2,1,9,8,1,C,1,S,1,S,18,0.758887,0.610737,0.46348
2,99,9,8,9,2,1,C,1,S,7,L,9,0.775436,0.331225,0.256844
2,100,9,8,2,1,1,C,1,S,1,S,10,0.821334,0.330659,0.271581
2,101,1,8,2,8,1,C,7,L,6,S,8,0.29256,0.769262,0.225055
2,102,8,9,9,2,0,I,1,S,7,L,12,0.770526,0.444549,0.342537
2,103,1,8,1,2,1,C,7,L,1,S,9,0.338099,0.767747,0.259575
2,104,1,2,9,8,1,I,1,S,1,S,10,0.361464,0.78021,0.282018
2,105,2,1,1,2,1,I,1,S,1,S,16,0.761313,0.541746,0.412438
2,106,2,8,8,9,1,C,6,S,1,S,10,0.375313,0.772356,0.289875
2,107,8,9,8,2,0,I,1,S,6,S,13,0.775662,0.461019,0.357595
2,108,1,9,8,1,1,I,8,L,7,L,11,0.50386,0.753002,0.379408
2,109,2,1,8,9,1,I,1,S,1,S,15,0.781655,0.483525,0.37795
2,110,1,8,1,8,1,C,7,L,7,L,8,0.2729,0.793853,0.216642
2,111,8,2,8,2,1,C,6,S,6,S,9,0.79821,0.314894,0.251351
2,112,2,1,9,1,1,C,1,S,8,L,10,0.807667,0.349435,0.282228
2,113,1,8,8,9,1,C,7,L,1,S,9,0.353075,0.755532,0.266759
2,114,1,2,8,9,1,C,1,S,1,S,11,0.386852,0.788432,0.305007
2,115,8,2,1,8,1,I,6,S,7,L,14,0.757552,0.597298,0.452484
2,116,1,9,2,1,1,I,8,L,1,S,10,0.436084,0.750959,0.327481
2,117,2,8,1,2,1,C,6,S,1,S,10,0.355487,0.790227,0.280915
2,118,8,1,9,8,1,C,7,L,1,S,11,0.795472,0.428362,0.34075
2,119,9,8,8,9,1,I,1,S,1,S,12,0.805733,0.409576,0.330009
2,120,8,2,1,9,1,I,6,S,8,L,14,0.784357,0.563071,0.441649
2,121,8,9,2,9,1,C,1,S,7,L,11,0.414232,0.75694,0.313549
2,122,9,2,8,2,1,C,7,L,6,S,9,0.857024,0.271468,0.232655
2,123,2,8,1,8,1,C,6,S,7,L,9,0.276243,0.851426,0.235201
2,124,9,1,8,9,1,I,8,L,1,S,9,0.770773,0.350364,0.270051
2,125,1,2,1,8,1,C,1,S,7,L,9,0.307714,0.807774,0.248563
2,126,1,9,2,9,1,C,8,L,7,L,9,0.272546,0.855253,0.233096
2,127,2,8,8,2,1,I,6,S,6,S,13,0.546425,0.762732,0.416776
2,128,2,8,2,8,1,C,6,S,6,S,9,0.297869,0.824067,0.245464
2,129,9,2,2,1,1,C,7,L,1,S,9,0.832183,0.290856,0.242045
2,130,9,2,9,8,1,C,7,L,1,S,10,0.758408,0.417779,0.316847
2,131,1,8,8,1,1,I,7,L,7,L,12,0.525584,0.771116,0.405286
2,132,1,9,1,2,1,C,8,L,1,S,9,0.320993,0.789352,0.253376
2,133,2,9,1,8,1,C,7,L,7,L,8,0.290279,0.769704,0.223429
2,134,9,8,9,1,1,C,1,S,8,L,9,0.800583,0.313615,0.251075
2,135,8,9,8,1,0,I,1,S,7,L,12,0.781205,0.436519,0.341011
2,136,2,1,2,1,1,C,1,S,1,S,11,0.802043,0.376987,0.30236
2,137,9,8,1,2,1,I,1,S,1,S,12,0.773431,0.443453,0.34298
2,138,2,9,2,1,1,I,7,L,1,S,12,0.483995,0.787086,0.380946
2,139,2,1,2,9,1,I,1,S,7,L,19,0.754534,0.639949,0.482864
2,140,1,9,1,9,1,C,8,L,8,L,8,0.280055,0.781233,0.218789
2,141,9,8,9,8,1,C,1,S,1,S,13,0.764594,0.509803,0.389793
2,142,8,9,8,9,1,C,1,S,1,S,15,0.429411,0.801402,0.344131
2,143,8,2,8,9,1,I,6,S,1,S,11,0.807464,0.387213,0.312661
2,144,9,8,1,9,1,I,1,S,8,L,15,0.755856,0.601504,0.454651
3,1,8,9,1,9,1,C,1,S,8,L,10,0.330504,0.82954,0.274166
3,2,2,1,9,1,1,C,1,S,8,L,11,0.814729,0.370171,0.301589
3,3,9,2,2,9,1,I,7,L,7,L,12,0.757296,0.512568,0.388166
3,4,8,2,1,8,1,I,6,S,7,L,12,0.754326,0.545783,0.411698
3,5,1,2,2,8,1,C,1,S,6,S,10,0.333791,0.812438,0.271184
3,6,1,9,2,1,1,I,8,L,1,S,9,0.344944,0.787068,0.271494
3,7,9,1,1,2,1,I,8,L,1,S,11,0.757347,0.468967,0.355171
3,8,9,1,8,2,1,C,8,L,6,S,9,0.846255,0.279213,0.236286
3,9,8,2,1,2,1,I,6,S,1,S,11,0.781072,0.449311,0.350944
3,10,1,2,8,9,1,C,1,S,1,S,12,0.445391,0.760541,0.338738
3,11,2,8,1,2,1,C,6,S,1,S,9,0.325158,0.782964,0.254587
3,12,2,9,2,9,1,C,7,L,7,L,8,0.297116,0.761642,0.226296
3,13,9,2,1,9,1,I,7,L,8,L,14,0.781635,0.573647,0.448382
3,14,1,8,8,9,1,C,7,L,1,S,9,0.364342,0.753842,0.274657
3,15,8,2,9,2,1,C,6,S,7,L,9,0.858894,0.267585,0.229827
3,16,2,1,2,1,1,C,1,S,1,S,13,0.794479,0.413962,0.328884
3,17,8,1,9,1,1,C,7,L,8,L,8,0.770199,0.292082,0.224962
3,18,1,9,2,9,1,C,8,L,7,L,8,0.268053,0.805448,0.215903
3,19,2,8,2,8,1,C,6,S,6,S,9,0.308739,0.802574,0.247786
3,20,2,9,2,8,1,C,7,L,6,S,8,0.29762,0.759526,0.226051
3,21,2,8,8,9,1,C,6,S,1,S,10,0.397918,0.75458,0.300261
3,22,9,1,2,8,1,I,8,L,6,S,12,0.780037,0.496918,0.387614
3,23,1,9,8,1,1,I,8,L,7,L,10,0.454656,0.767192,0.348809
3,24,2,1,1,8,0,I,1,S,7,L,11,0.438025,0.756531,0.331379
3,25,8,1,2,8,1,I,7,L,6,S,11,0.777685,0.465958,0.362368
3,26,9,2,9,1,1,C,7,L,8,L,9,0.831107,0.286002,0.237698
3,27,9,2,8,9,1,I,7,L,1,S,10,0.802004,0.347148,0.278414
3,28,8,9,9,2,1,I,1,S,7,L,19,0.630553,0.771275,0.48633
3,29,8,9,8,1,1,I,1,S,7,L,19,0.643175,0.760486,0.489125
3,30,1,2,9,2,1,I,1,S,7,L,16,0.60328,0.765003,0.461511
3,31,9,1,1,8,1,I,8,L,7,L,13,0.769063,0.563669,0.433497
3,32,2,1,9,2,1,C,1,S,7,L,11,0.803753,0.378532,0.304246
3,33,1,8,2,9,1,C,7,L,7,L,8,0.299625,0.760317,0.22781
3,34,8,9,8,2,1,I,1,S,6,S,19,0.636871,0.766035,0.487865
3,35,8,2,9,8,1,C,6,S,1,S,10,0.826481,0.333072,0.275278
3,36,1,9,1,9,1,C,8,L,8,L,8,0.23299,0.856239,0.199495
3,37,2,9,9,8,1,I,7,L,1,S,9,0.349492,0.765595,0.26757
3,38,2,1,9,8,1,C,1,S,1,S,15,0.797843,0.43455,0.346703
3,39,2,9,1,8,1,C,7,L,7,L,8,0.26246,0.810523,0.21273
3,40,1,9,9,2,1,I,8,L,7,L,10,0.436056,0.78088,0.340507
3,41,9,1,9,1,1,C,8,L,8,L,9,0.847725,0.277729,0.235438
3,42,9,2,8,1,1,C,7,L,7,L,9,0.838541,0.280752,0.235422
3,43,9,2,2,1,1,C,7,L,1,S,10,0.824348,0.325116,0.268009
3,44,8,2,1,9,1,I,6,S,8,L,12,0.753331,0.548236,0.413003
3,45,2,9,9,2,1,I,7,L,7,L,11,0.476172,0.778487,0.370694
3,46,1,2,1,2,1,C,1,S,1,S,10,0.352594,0.789184,0.278261
3,47,2,9,9,1,1,I,7,L,8,L,11,0.487148,0.770126,0.375166
3,48,1,8,2,1,1,I,7,L,1,S,10,0.369919,0.804799,0.297711
3,49,8,9,2,8,1,C,1,S,6,S,10,0.376538,0.761835,0.28686
3,50,9,8,2,1,1,C,1,S,1,S,15,0.779234,0.459067,0.357721
3,51,2,8,2,1,1,I,6,S,1,S,11,0.4117,0.789332,0.324968
3,52,9,8,8,9,1,I,1,S,1,S,17,0.781313,0.471588,0.368458
3,53,8,9,1,8,1,C,1,S,7,L,10,0.331261,0.827236,0.274031
3,54,2,9,8,2,1,I,7,L,6,S,11,0.485521,0.771723,0.374688
3,55,2,9,2,1,1,I,7,L,1,S,10,0.367353,0.806273,0.296187
3,56,8,2,8,1,1,C,6,S,7,L,8,0.76381,0.293134,0.223898
3,57,2,8,9,1,1,I,6,S,8,L,13,0.545917,0.773237,0.422123
3,58,2,9,8,9,1,C,7,L,1,S,9,0.361756,0.755309,0.273238
3,59,8,9,2,1,1,I,1,S,1,S,16,0.537679,0.779953,0.419364
3,60,8,1,1,9,1,I,7,L,8,L,12,0.7708,0.538525,0.415095
3,61,8,9,2,9,1,C,1,S,7,L,10,0.375425,0.764849,0.287144
3,62,1,9,8,2,1,I,8,L,6,S,10,0.444969,0.774513,0.344634
3,63,9,1,8,1,1,C,8,L,7,L,9,0.855159,0.272478,0.233012
3,64,1,2,1,9,1,C,1,S,8,L,9,0.323882,0.786926,0.254871
3,65,8,1,9,2,1,C,7,L,7,L,8,0.762158,0.298335,0.227379
3,66,1,9,2,8,1,C,8,L,6,S,8,0.268557,0.803333,0.215741
3,67,8,1,1,2,1,I,7,L,1,S,11,0.798221,0.440197,0.351375
3,68,1,2,2,1,1,I,1,S,1,S,13,0.48051,0.766981,0.368542
3,69,9,2,1,8,1,I,7,L,7,L,14,0.782758,0.571182,0.447097
3,70,9,1,1,9,1,I,8,L,8,L,13,0.767992,0.56614,0.434791
3,71,8,2,2,8,1,I,6,S,6,S,11,0.760535,0.475072,0.361309
3,72,2,8,9,8,1,I,6,S,1,S,10,0.38071,0.769264,0.292867
3,73,9,8,2,8,0,I,1,S,6,S,12,0.424692,0.778274,0.330527
3,74,2,1,2,9,0,I,1,S,7,L,14,0.506194,0.760241,0.384829
3,75,1,2,9,8,1,I,1,S,1,S,12,0.413022,0.788046,0.32548
3,76,1,9,9,8,1,I,8,L,1,S,9,0.316976,0.81402,0.258024
3,77,8,2,8,9,1,I,6,S,1,S,9,0.759259,0.347045,0.263497
3,78,9,2,2,8,1,I,7,L,6,S,12,0.758884,0.509032,0.386296
3,79,9,8,1,2,0,I,1,S,1,S,12,0.446265,0.751255,0.335259
3,80,9,2,9,8,1,C,7,L,1,S,10,0.784796,0.361832,0.283964
3,81,1,2,8,1,1,I,1,S,7,L,16,0.619231,0.751886,0.465591
3,82,1,2,2,9,1,C,1,S,7,L,10,0.332678,0.815453,0.271283
3,83,1,8,9,1,1,I,7,L,8,L,11,0.489617,0.768751,0.376394
3,84,9,2,8,2,1,C,7,L,6,S,9,0.829638,0.287487,0.23851
3,85,8,9,8,9,1,C,1,S,1,S,14,0.487672,0.761771,0.371494
3,86,8,9,9,1,1,I,1,S,8,L,19,0.637587,0.765092,0.487813
3,87,8,1,8,9,1,I,7,L,1,S,9,0.774119,0.340003,0.263203
3,88,9,8,1,9,0,I,1,S,8,L,10,0.401407,0.750624,0.301306
3,89,8,1,9,8,1,C,7,L,1,S,9,0.761855,0.350289,0.26687
3,90,1,8,8,2,1,I,7,L,6,S,11,0.48799,0.770348,0.375922
3,91,2,8,2,9,1,C,6,S,7,L,9,0.307925,0.80517,0.247932
3,92,1,9,8,9,1,C,8,L,1,S,9,0.329239,0.803734,0.264621
3,93,9,8,9,8,1,C,1,S,1,S,20,0.761613,0.493557,0.3759
3,94,2,8,8,2,1,I,6,S,6,S,13,0.544412,0.774767,0.421793
3,95,9,1,8,9,1,I,8,L,1,S,10,0.820896,0.337232,0.276833
3,96,9,2,9,2,1,C,7,L,7,L,9,0.821583,0.293231,0.240913
3,97,2,8,9,2,1,I,6,S,7,L,13,0.535168,0.781733,0.418359
3,98,9,2,1,2,1,I,7,L,1,S,12,0.780457,0.482012,0.37619
3,99,8,9,1,2,1,C,1,S,1,S,11,0.363358,0.814712,0.296033
3,100,1,9,1,8,1,C,8,L,7,L,8,0.233397,0.85433,0.199398
3,101,2,1,8,9,1,I,1,S,1,S,14,0.802562,0.421076,0.33794
3,102,2,8,1,8,1,C,6,S,7,L,8,0.30364,0.753692,0.228851
3,103,2,9,8,1,1,I,7,L,7,L,11,0.495537,0.764068,0.378624
3,104,1,2,8,2,1,I,1,S,6,S,16,0.611171,0.75869,0.46369
3,105,9,8,9,1,1,C,1,S,8,L,11,0.767004,0.41395,0.317502
3,106,1,9,1,2,1,C,8,L,1,S,8,0.282117,0.788057,0.222325
3,107,1,8,2,8,1,C,7,L,6,S,8,0.300129,0.758202,0.227558
3,108,8,1,8,1,1,C,7,L,7,L,8,0.776589,0.287532,0.223294
3,109,2,1,8,2,1,C,1,S,6,S,11,0.813103,0.371768,0.302285
3,110,9,1,2,1,1,C,8,L,1,S,9,0.75427,0.347751,0.262298
3,111,9,1,9,2,1,C,8,L,7,L,9,0.838201,0.284957,0.238851
3,112,1,2,9,1,1,I,1,S,8,L,16,0.612286,0.757431,0.463765
3,113,2,1,1,9,0,I,1,S,8,L,11,0.437134,0.758934,0.331756
3,114,1,2,1,8,1,C,1,S,7,L,9,0.324476,0.784783,0.254643
3,115,2,8,1,9,1,C,6,S,8,L,8,0.303234,0.755601,0.229124
3,116,2,8,8,1,1,I,6,S,7,L,13,0.554096,0.767072,0.425031
3,117,9,8,8,2,1,C,1,S,6,S,11,0.765377,0.415547,0.31805
3,118,1,8,9,8,1,I,7,L,1,S,9,0.352078,0.764128,0.269033
3,119,8,1,8,2,1,C,7,L,6,S,8,0.768946,0.293427,0.225629
3,120,1,8,8,1,1,I,7,L,7,L,11,0.498007,0.762693,0.379826
3,121,9,8,2,9,0,I,1,S,7,L,12,0.423104,0.781811,0.330788
3,122,2,9,1,9,1,C,7,L,8,L,8,0.262053,0.812432,0.212901
3,123,8,2,2,9,1,I,6,S,7,L,11,0.759161,0.478403,0.363185
3,124,2,1,2,8,0,I,1,S,6,S,14,0.50805,0.756568,0.384375
3,125,8,2,8,2,1,C,6,S,6,S,8,0.756167,0.299029,0.226116
3,126,8,2,9,1,1,C,6,S,8,L,8,0.75742,0.297684,0.225472
3,127,1,8,1,2,1,C,7,L,1,S,9,0.279816,0.848459,0.237412
3,128,8,1,2,9,1,I,7,L,7,L,11,0.77631,0.469289,0.364314
3,129,2,1,1,2,1,I,1,S,1,S,22,0.759288,0.648336,0.492274
3,130,9,1,2,9,1,I,8,L,7,L,12,0.778449,0.500454,0.389578
3,131,8,2,2,1,1,C,6,S,1,S,9,0.774963,0.330379,0.256031
3,132,8,9,9,8,1,I,1,S,1,S,13,0.454092,0.759193,0.344744
3,133,9,8,9,2,1,C,1,S,7,L,11,0.756028,0.422311,0.319279
3,134,8,1,2,1,1,C,7,L,1,S,9,0.789823,0.323338,0.25538
3,135,9,1,9,8,1,C,8,L,1,S,10,0.803688,0.351916,0.282831
3,136,1,8,9,2,1,I,7,L,7,L,11,0.478641,0.777112,0.371958
3,137,9,8,1,8,0,I,1,S,7,L,11,0.390299,0.80031,0.312361
3,138,1,9,9,1,1,I,8,L,8,L,10,0.446561,0.772945,0.345168
3,139,2,1,8,1,1,C,1,S,7,L,10,0.757847,0.387817,0.293906
3,140,1,8,1,9,1,C,7,L,8,L,8,0.264562,0.811108,0.214588
3,141,2,9,1,2,1,C,7,L,1,S,9,0.27723,0.849926,0.235624
3,142,1,8,1,8,1,C,7,L,7,L,8,0.264969,0.809199,0.214412
3,143,8,1,1,8,1,I,7,L,7,L,12,0.771794,0.536071,0.413737
3,144,9,8,8,1,1,C,1,S,7,L,11,0.775393,0.407892,0.316277
4,1,9,2,8,1,1,C,7,L,7,L,9,0.855704,0.268286,0.229573
4,2,2,9,8,9,1,C,7,L,1,S,9,0.33955,0.776191,0.263556
4,3,1,9,1,8,1,C,8,L,7,L,8,0.275666,0.790483,0.21791
4,4,9,8,1,2,1,I,1,S,1,S,18,0.772881,0.58351,0.450983
4,5,9,1,2,1,1,C,8,L,1,S,9,0.793832,0.322007,0.25562
4,6,1,9,9,2,1,I,8,L,7,L,11,0.468616,0.791376,0.370851
4,7,2,9,1,2,1,C,7,L,1,S,9,0.306872,0.811192,0.248932
4,8,2,9,1,9,1,C,7,L,8,L,8,0.286215,0.775475,0.221953
4,9,9,8,1,9,1,I,1,S,8,L,20,0.754008,0.649552,0.489768
4,10,1,8,1,2,1,C,7,L,1,S,9,0.325812,0.784855,0.255715
4,11,2,1,9,8,1,C,1,S,1,S,11,0.75106,0.412895,0.310109
4,12,9,8,8,2,1,C,1,S,6,S,11,0.800962,0.375424,0.3007
4,13,8,2,8,1,1,C,6,S,7,L,9,0.843834,0.279907,0.236195
4,14,8,1,9,2,1,C,7,L,7,L,8,0.77222,0.2928,0.226106
4,15,1,2,2,1,1,I,1,S,1,S,18,0.553404,0.769357,0.425765
4,16,2,8,2,8,1,C,6,S,6,S,9,0.29446,0.828209,0.243874
4,17,8,2,9,2,1,C,6,S,7,L,9,0.854288,0.273968,0.234047
4,18,1,2,9,1,0,I,1,S,8,L,12,0.750578,0.469068,0.352072
4,19,9,2,9,2,1,C,7,L,7,L,8,0.755549,0.29942,0.226226
4,20,9,8,2,8,1,I,1,S,6,S,20,0.763537,0.640542,0.489078
4,21,9,2,8,9,1,I,7,L,1,S,10,0.81545,0.345138,0.281442
4,22,1,2,1,9,1,C,1,S,8,L,11,0.363154,0.814284,0.29571
4,23,2,1,1,9,1,I,1,S,8,L,19,0.760105,0.638558,0.485371
4,24,9,2,9,1,1,C,7,L,8,L,8,0.770623,0.287418,0.221491
4,25,8,1,2,1,1,C,7,L,1,S,9,0.784059,0.331928,0.260252
4,26,8,9,2,8,1,C,1,S,6,S,10,0.358491,0.789836,0.283149
4,27,1,9,1,9,1,C,8,L,8,L,8,0.275768,0.788907,0.217555
4,28,9,1,9,2,1,C,8,L,7,L,8,0.780896,0.283601,0.221463
4,29,9,8,8,9,1,I,1,S,1,S,14,0.762604,0.465667,0.355119
4,30,9,1,8,1,1,C,8,L,7,L,8,0.772175,0.288394,0.222691
4,31,2,8,1,8,1,C,6,S,7,L,9,0.280902,0.844975,0.237355
4,32,1,2,9,2,0,I,1,S,7,L,13,0.750785,0.495134,0.371739
4,33,9,8,9,1,1,C,1,S,8,L,10,0.78691,0.361756,0.284669
4,34,1,2,2,8,1,C,1,S,6,S,11,0.378368,0.796605,0.30141
4,35,8,2,9,8,1,C,6,S,1,S,9,0.774928,0.335228,0.259778
4,36,1,9,8,9,1,C,8,L,1,S,9,0.327972,0.791238,0.259504
4,37,1,8,9,1,1,I,7,L,8,L,12,0.52487,0.77291,0.405677
4,38,1,2,8,9,1,C,1,S,1,S,14,0.445581,0.768209,0.342299
4,39,9,1,1,2,1,I,8,L,1,S,10,0.802448,0.374062,0.300165
4,40,9,1,1,8,1,I,8,L,7,L,11,0.778793,0.476637,0.371201
4,41,9,1,1,9,1,I,8,L,8,L,11,0.779468,0.474339,0.369732
4,42,8,2,1,8,1,I,6,S,7,L,12,0.775656,0.513331,0.398168
4,43,8,1,2,9,1,I,7,L,7,L,11,0.785183,0.464542,0.36475
4,44,9,2,2,9,1,I,7,L,7,L,11,0.763015,0.475686,0.362956
4,45,2,1,2,9,1,I,1,S,7,L,19,0.771882,0.62579,0.483036
4,46,2,1,9,2,1,C,1,S,7,L,10,0.782965,0.364153,0.285119
4,47,8,2,1,9,1,I,6,S,8,L,12,0.776481,0.510913,0.396714
4,48,8,9,2,1,1,I,1,S,1,S,13,0.476749,0.754913,0.359904
4,49,9,8,9,2,1,C,1,S,7,L,10,0.767803,0.376565,0.289128
4,50,8,9,8,1,1,I,1,S,7,L,17,0.622448,0.756732,0.471026
4,51,2,1,9,1,1,C,1,S,8,L,10,0.802072,0.349344,0.280199
4,52,8,1,8,9,1,I,7,L,1,S,9,0.759472,0.356597,0.270825
4,53,9,1,9,1,1,C,8,L,8,L,8,0.795971,0.271599,0.216185
4,54,2,9,2,8,1,C,7,L,6,S,8,0.297738,0.763242,0.227246
4,55,2,9,9,8,1,I,7,L,1,S,10,0.378772,0.800432,0.303181
4,56,2,8,1,2,1,C,6,S,1,S,9,0.340942,0.765304,0.260924
4,57,8,9,9,2,1,I,1,S,7,L,18,0.618632,0.780031,0.482552
4,58,9,8,9,8,1,C,1,S,1,S,12,0.797484,0.397136,0.316709
4,59,8,1,8,1,1,C,7,L,7,L,8,0.763498,0.297593,0.227212
4,60,2,8,9,8,1,I,6,S,1,S,10,0.415882,0.750518,0.312127
4,61,8,1,9,1,1,C,7,L,8,L,8,0.787295,0.280798,0.221071
4,62,8,9,8,2,1,I,1,S,6,S,17,0.599289,0.776618,0.465418
4,63,9,8,2,1,1,C,1,S,1,S,13,0.810548,0.400008,0.324226
4,64,1,2,1,8,1,C,1,S,7,L,11,0.362478,0.816581,0.295993
4,65,2,8,9,2,1,I,6,S,7,L,12,0.522956,0.766032,0.400601
4,66,2,1,8,9,1,I,1,S,1,S,13,0.751081,0.460786,0.346087
4,67,8,2,8,2,1,C,6,S,6,S,9,0.821258,0.297748,0.244528
4,68,9,8,1,8,1,I,1,S,7,L,20,0.752815,0.651953,0.4908
4,69,2,9,2,1,1,I,7,L,1,S,9,0.364138,0.751523,0.273658
4,70,2,8,8,9,1,C,6,S,1,S,10,0.350567,0.80811,0.283297
4,71,2,9,9,2,1,I,7,L,7,L,11,0.481211,0.77535,0.373107
4,72,2,8,1,9,1,C,6,S,8,L,9,0.281204,0.843104,0.237085
4,73,9,1,8,2,1,C,8,L,6,S,8,0.754111,0.303283,0.228709
4,74,1,8,1,8,1,C,7,L,7,L,8,0.302727,0.754131,0.228296
4,75,9,2,9,8,1,C,7,L,1,S,9,0.786797,0.323607,0.254613
4,76,9,2,2,8,1,I,7,L,6,S,11,0.762302,0.4781,0.364456
4,77,8,2,9,1,1,C,6,S,8,L,8,0.760498,0.29791,0.22656
4,78,2,1,8,2,1,C,1,S,6,S,11,0.821222,0.359278,0.295047
4,79,2,1,1,2,1,I,1,S,1,S,16,0.753457,0.567361,0.427482
4,80,2,9,2,9,1,C,7,L,7,L,8,0.297806,0.761695,0.226837
4,81,1,9,9,8,1,I,8,L,1,S,10,0.366491,0.816301,0.299167
4,82,9,8,2,9,1,I,1,S,7,L,20,0.764845,0.637989,0.487962
4,83,1,8,2,8,1,C,7,L,6,S,9,0.27933,0.84776,0.236805
4,84,9,2,8,2,1,C,7,L,6,S,9,0.833128,0.286127,0.23838
4,85,1,8,9,2,1,I,7,L,7,L,12,0.505239,0.788536,0.398399
4,86,1,8,9,8,1,I,7,L,1,S,10,0.399325,0.77205,0.308299
4,87,9,2,1,9,1,I,7,L,8,L,12,0.789391,0.498439,0.393463
4,88,2,1,8,1,1,C,1,S,7,L,10,0.771228,0.371034,0.286152
4,89,1,9,2,9,1,C,8,L,7,L,8,0.287359,0.775127,0.22274
4,90,8,2,8,9,1,I,6,S,1,S,10,0.802577,0.357441,0.286874
4,91,1,2,2,9,1,C,1,S,7,L,11,0.379082,0.794191,0.301063
4,92,2,8,9,1,1,I,6,S,8,L,12,0.542587,0.750406,0.407161
4,93,1,9,9,1,1,I,8,L,8,L,11,0.48835,0.775934,0.378928
4,94,8,1,9,8,1,C,7,L,1,S,9,0.806082,0.315155,0.254041
4,95,1,2,8,2,1,I,1,S,6,S,22,0.632502,0.777062,0.491494
4,96,1,8,8,9,1,C,7,L,1,S,10,0.33401,0.829642,0.277109
4,97,8,9,2,9,1,C,1,S,7,L,10,0.358999,0.787657,0.282768
4,98,1,9,8,1,1,I,8,L,7,L,10,0.451494,0.750071,0.338652
4,99,9,1,2,9,1,I,8,L,7,L,11,0.795396,0.454247,0.361307
4,100,1,2,9,8,1,I,1,S,1,S,20,0.609488,0.768343,0.468296
4,101,9,2,1,8,1,I,7,L,7,L,12,0.788566,0.500856,0.394958
4,102,1,8,8,2,1,I,7,L,6,S,11,0.461829,0.7756,0.358194
4,103,8,2,2,9,1,I,6,S,7,L,12,0.792827,0.490525,0.388901
4,104,2,8,2,1,1,I,6,S,1,S,10,0.385669,0.773575,0.298344
4,105,9,1,9,8,1,C,8,L,1,S,9,0.815854,0.305234,0.249026
4,106,8,2,1,2,1,I,6,S,1,S,10,0.758214,0.406614,0.3083
4,107,8,9,9,8,1,I,1,S,1,S,15,0.533044,0.7787,0.415082
4,108,8,2,2,1,1,C,6,S,1,S,9,0.752905,0.352002,0.265024
4,109,1,2,1,2,1,C,1,S,1,S,12,0.41788,0.764306,0.319389
4,110,1,8,8,1,1,I,7,L,7,L,11,0.49017,0.75375,0.369465
4,111,9,2,2,1,1,C,7,L,1,S,9,0.764775,0.340381,0.260315
4,112,1,8,2,9,1,C,7,L,7,L,9,0.279616,0.845879,0.236521
4,113,9,2,1,2,1,I,7,L,1,S,10,0.771087,0.39431,0.304047
4,114,2,9,9,1,1,I,7,L,8,L,11,0.500945,0.759908,0.380672
4,115,9,1,8,9,1,I,8,L,1,S,9,0.769244,0.346676,0.266678
4,116,8,9,1,8,1,C,1,S,7,L,10,0.343497,0.808694,0.277783
4,117,1,2,8,1,0,I,1,S,7,L,15,0.75294,0.540433,0.406913
4,118,1,9,8,2,1,I,8,L,6,S,10,0.425379,0.770278,0.32766
4,119,1,9,1,2,1,C,8,L,1,S,9,0.295293,0.826239,0.243983
4,120,8,1,8,2,1,C,7,L,6,S,9,0.852413,0.277674,0.236693
4,121,1,9,2,8,1,C,8,L,6,S,8,0.287291,0.776674,0.223131
4,122,9,8,8,1,1,C,1,S,7,L,10,0.756065,0.383446,0.28991
4,123,8,1,1,2,1,I,7,L,1,S,10,0.792196,0.384332,0.304466
4,124,2,8,2,9,1,C,6,S,7,L,9,0.294746,0.826328,0.243557
4,125,2,8,8,2,1,I,6,S,6,S,11,0.479229,0.753143,0.360928
4,126,8,9,9,1,1,I,1,S,8,L,18,0.631888,0.768188,0.485409
4,127,8,1,2,8,1,I,7,L,6,S,11,0.784469,0.466955,0.366312
4,128,2,1,1,8,1,I,1,S,7,L,19,0.75891,0.64099,0.486454
4,129,8,1,1,8,1,I,7,L,7,L,11,0.768579,0.486931,0.374245
4,130,2,9,8,2,1,I,7,L,6,S,10,0.43766,0.754409,0.330175
4,131,1,8,2,1,1,I,7,L,1,S,10,0.369112,0.795107,0.293484
4,132,8,9,8,9,1,C,1,S,1,S,12,0.418831,0.776372,0.325168
4,133,9,1,2,8,1,I,8,L,6,S,11,0.794683,0.456661,0.3629
4,134,2,9,1,8,1,C,7,L,7,L,8,0.286113,0.777051,0.222325
4,135,2,8,8,1,1,I,6,S,7,L,12,0.510126,0.77405,0.394863
4,136,2,1,2,1,1,C,1,S,1,S,12,0.772672,0.414762,0.320475
4,137,8,9,1,9,1,C,1,S,8,L,10,0.343995,0.806578,0.277459
4,138,2,1,2,8,1,I,1,S,6,S,19,0.770566,0.628389,0.484215
4,139,8,2,2,8,1,I,6,S,6,S,12,0.791937,0.4931,0.390504
4,140,1,8,1,9,1,C,7,L,8,L,8,0.302829,0.752555,0.227896
4,141,8,9,1,2,1,C,1,S,1,S,11,0.385598,0.784171,0.302375
4,142,1,9,2,1,1,I,8,L,1,S,9,0.352559,0.76657,0.270261
4,143,2,9,8,1,1,I,7,L,7,L,11,0.468699,0.782924,0.366956
4,144,8,1,1,9,1,I,7,L,8,L,11,0.769255,0.484634,0.372807
5,1,8,2,9,2,1,C,6,S,7,L,8,0.764977,0.29153,0.223014
5,2,8,1,8,2,1,C,7,L,6,S,8,0.757247,0.299809,0.227029
5,3,1,2,9,1,1,I,1,S,8,L,19,0.638712,0.767669,0.490319
5,4,8,1,8,1,1,C,7,L,7,L,8,0.774793,0.288078,0.223201
5,5,2,9,1,2,1,C,7,L,1,S,9,0.294237,0.826385,0.243153
5,6,9,1,1,8,1,I,8,L,7,L,12,0.770265,0.535366,0.412374
5,7,1,9,2,1,1,I,8,L,1,S,9,0.370554,0.756779,0.280428
5,8,1,9,1,2,1,C,8,L,1,S,8,0.299817,0.757267,0.227041
5,9,8,9,8,9,1,C,1,S,1,S,12,0.398049,0.790076,0.314489
5,10,1,2,8,1,1,I,1,S,7,L,19,0.62522,0.778603,0.486799
5,11,9,8,8,2,0,C,1,S,6,S,21,0.644675,0.765953,0.49379
5,12,2,8,9,2,1,I,6,S,7,L,12,0.509416,0.792357,0.40364
5,13,9,1,8,1,1,C,8,L,7,L,8,0.77126,0.292134,0.225311
5,14,2,9,9,1,1,I,7,L,8,L,12,0.517735,0.791073,0.409566
5,15,1,2,1,8,1,C,1,S,7,L,9,0.350237,0.750346,0.262799
5,16,9,1,9,1,1,C,8,L,8,L,8,0.787409,0.280932,0.221209
5,17,1,2,1,2,1,C,1,S,1,S,11,0.369727,0.797608,0.294897
5,18,8,9,1,9,1,C,1,S,8,L,10,0.332257,0.821664,0.273004
5,19,8,9,2,8,1,C,1,S,6,S,10,0.371811,0.763704,0.283953
5,20,8,2,9,8,1,C,6,S,1,S,9,0.761506,0.344293,0.262181
5,21,2,9,8,9,1,C,7,L,1,S,9,0.32063,0.798179,0.25592
5,22,2,8,8,2,1,I,6,S,6,S,11,0.48258,0.767583,0.37042
5,23,8,2,9,1,1,C,6,S,8,L,8,0.78064,0.281396,0.219669
5,24,2,8,2,1,1,I,6,S,1,S,10,0.404958,0.772792,0.312948
5,25,9,8,2,1,0,C,1,S,1,S,19,0.615441,0.7586,0.466874
5,26,1,2,9,2,1,I,1,S,7,L,19,0.624977,0.77824,0.486382
5,27,2,1,8,9,1,I,1,S,1,S,18,0.771073,0.578512,0.446075
5,28,8,2,2,8,1,I,6,S,6,S,11,0.756189,0.483584,0.365681
5,29,2,8,1,2,1,C,6,S,1,S,9,0.304942,0.8145,0.248375
5,30,1,9,1,9,1,C,8,L,8,L,8,0.238913,0.842073,0.201182
5,31,2,1,1,2,1,I,1,S,1,S,20,0.777974,0.615453,0.478806
5,32,2,1,1,9,0,I,1,S,8,L,12,0.467083,0.771082,0.360159
5,33,8,1,1,8,1,I,7,L,7,L,12,0.774413,0.530893,0.41113
5,34,2,8,8,1,1,I,6,S,7,L,11,0.506862,0.750919,0.380612
5,35,2,1,1,8,0,I,1,S,7,L,12,0.471478,0.76359,0.360016
5,36,8,9,9,8,1,I,1,S,1,S,15,0.484509,0.781191,0.378494
5,37,9,8,2,9,0,I,1,S,7,L,10,0.387326,0.755245,0.292526
5,38,2,1,2,1,1,C,1,S,1,S,12,0.800127,0.398615,0.318943
5,39,2,8,8,9,1,C,6,S,1,S,9,0.331334,0.786294,0.260526
5,40,8,2,2,1,1,C,6,S,1,S,9,0.796125,0.31365,0.249705
5,41,8,9,9,2,1,I,1,S,7,L,20,0.637172,0.7698,0.490495
5,42,9,2,1,9,1,I,7,L,8,L,12,0.751507,0.550904,0.414008
5,43,9,8,8,9,0,I,1,S,1,S,12,0.430621,0.756068,0.325579
5,44,1,8,9,8,1,I,7,L,1,S,9,0.34418,0.778583,0.267973
5,45,8,2,1,8,1,I,6,S,7,L,12,0.760411,0.538665,0.409607
5,46,8,1,9,2,1,C,7,L,7,L,8,0.77528,0.287012,0.222514
5,47,2,9,2,8,1,C,7,L,6,S,8,0.294606,0.764811,0.225318
5,48,2,9,9,2,1,I,7,L,7,L,11,0.495927,0.762636,0.378212
5,49,1,2,8,2,1,I,1,S,6,S,18,0.623274,0.762986,0.475549
5,50,8,9,9,1,1,I,1,S,8,L,20,0.650077,0.759863,0.49397
5,51,1,9,8,1,1,I,8,L,7,L,10,0.460715,0.752235,0.346566
5,52,2,9,1,9,1,C,7,L,8,L,8,0.263541,0.811006,0.213733
5,53,9,2,8,2,1,C,7,L,6,S,9,0.851571,0.272948,0.232434
5,54,2,1,9,8,1,C,1,S,1,S,13,0.778054,0.431461,0.3357
5,55,8,9,8,1,1,I,1,S,7,L,20,0.637499,0.770085,0.490928
5,56,9,1,2,1,1,C,8,L,1,S,9,0.804023,0.312381,0.251162
5,57,8,2,2,9,1,I,6,S,7,L,12,0.791722,0.497489,0.393873
5,58,9,8,2,8,0,I,1,S,6,S,11,0.366079,0.814729,0.298255
5,59,2,9,8,2,1,I,7,L,6,S,11,0.471108,0.780366,0.367636
5,60,2,1,8,2,1,C,1,S,6,S,11,0.817302,0.368627,0.301279
5,61,9,8,9,8,0,C,1,S,1,S,16,0.523484,0.75951,0.397591
5,62,9,1,8,9,1,I,8,L,1,S,10,0.794789,0.377455,0.299997
5,63,1,9,9,2,1,I,8,L,7,L,10,0.461287,0.751131,0.346487
5,64,2,8,2,9,1,C,6,S,7,L,8,0.300196,0.762031,0.228759
5,65,9,2,8,9,1,I,7,L,1,S,10,0.781397,0.384273,0.300269
5,66,2,9,2,9,1,C,7,L,7,L,8,0.290469,0.772454,0.224374
5,67,8,1,2,1,1,C,7,L,1,S,9,0.808078,0.30799,0.24888
5,68,1,2,1,9,1,C,1,S,8,L,9,0.346689,0.757247,0.262529
5,69,8,1,9,1,1,C,7,L,8,L,8,0.790943,0.276877,0.218994
5,70,2,9,1,8,1,C,7,L,7,L,8,0.266548,0.804813,0.214521
5,71,9,1,9,8,1,C,8,L,1,S,9,0.769404,0.343024,0.263924
5,72,8,9,8,2,1,I,1,S,6,S,19,0.638611,0.753311,0.481073
5,73,9,1,9,2,1,C,8,L,7,L,8,0.771746,0.291067,0.22463
5,74,8,9,2,9,1,C,1,S,7,L,10,0.36578,0.774109,0.283153
5,75,9,8,1,2,0,I,1,S,1,S,12,0.383325,0.814466,0.312205
5,76,1,8,1,9,1,C,7,L,8,L,8,0.246649,0.833956,0.205694
5,77,8,2,8,1,1,C,6,S,7,L,8,0.76449,0.292597,0.223688
5,78,8,1,2,9,1,I,7,L,7,L,11,0.763268,0.487429,0.372039
5,79,1,9,2,9,1,C,8,L,7,L,8,0.265841,0.803522,0.213609
5,80,2,8,9,1,1,I,6,S,8,L,12,0.529101,0.778614,0.411966
5,81,1,9,9,8,1,I,8,L,1,S,9,0.335935,0.787422,0.264522
5,82,9,8,9,1,1,C,1,S,8,L,12,0.754116,0.477149,0.359826
5,83,1,9,8,2,1,I,8,L,6,S,10,0.437638,0.767791,0.336015
5,84,9,8,1,8,0,I,1,S,7,L,10,0.357762,0.79548,0.284593
5,85,2,8,9,8,1,I,6,S,1,S,10,0.357316,0.813386,0.290635
5,86,1,8,1,8,1,C,7,L,7,L,8,0.249656,0.827764,0.206656
5,87,9,8,9,2,1,C,1,S,7,L,13,0.750758,0.505828,0.379754
5,88,8,1,1,2,1,I,7,L,1,S,10,0.76552,0.411039,0.314659
5,89,1,2,2,8,1,C,1,S,6,S,10,0.35691,0.782698,0.279353
5,90,2,1,2,9,1,I,1,S,7,L,21,0.761815,0.653452,0.497809
5,91,1,9,9,1,1,I,8,L,8,L,11,0.486587,0.785486,0.382207
5,92,8,2,1,9,1,I,6,S,8,L,12,0.756016,0.546157,0.412904
5,93,9,2,2,8,1,I,7,L,6,S,11,0.751534,0.488412,0.367058
5,94,8,2,1,2,1,I,6,S,1,S,10,0.752419,0.417637,0.314238
5,95,9,2,2,1,1,C,7,L,1,S,9,0.791848,0.318217,0.251979
5,96,9,2,1,8,1,I,7,L,7,L,12,0.755903,0.543412,0.410766
5,97,2,9,8,1,1,I,7,L,7,L,11,0.49539,0.763701,0.37833
5,98,9,1,2,8,1,I,8,L,6,S,11,0.765627,0.48086,0.368159
5,99,8,9,1,8,1,C,1,S,7,L,10,0.336215,0.814345,0.273795
5,100,9,1,8,2,1,C,8,L,6,S,8,0.753713,0.303864,0.229026
5,101,1,8,2,9,1,C,7,L,7,L,8,0.273577,0.795405,0.217604
5,102,2,1,9,1,1,C,1,S,8,L,10,0.790612,0.366154,0.289486
5,103,1,8,2,8,1,C,7,L,6,S,8,0.277714,0.787761,0.218772
5,104,1,8,8,1,1,I,7,L,7,L,11,0.474736,0.791083,0.375556
5,105,8,2,8,9,1,I,6,S,1,S,10,0.785993,0.379495,0.298281
5,106,1,2,9,8,1,I,1,S,1,S,14,0.464318,0.784872,0.36443
5,107,1,9,2,8,1,C,8,L,6,S,8,0.269978,0.795879,0.21487
5,108,8,1,8,9,1,I,7,L,1,S,10,0.799094,0.372897,0.29798
5,109,9,2,9,1,1,C,7,L,8,L,8,0.776965,0.285576,0.221883
5,110,1,9,1,8,1,C,8,L,7,L,8,0.24192,0.835881,0.202216
5,111,2,9,9,8,1,I,7,L,1,S,9,0.363003,0.752916,0.273311
5,112,2,1,8,1,1,C,1,S,7,L,10,0.770829,0.380038,0.292944
5,113,9,8,8,1,1,C,1,S,7,L,13,0.750385,0.506746,0.380255
5,114,1,8,1,2,1,C,7,L,1,S,9,0.275414,0.852052,0.234667
5,115,8,1,2,8,1,I,7,L,6,S,11,0.769943,0.476284,0.366711
5,116,1,9,8,9,1,C,8,L,1,S,9,0.293561,0.832685,0.244444
5,117,8,1,9,8,1,C,7,L,1,S,9,0.773459,0.338632,0.261918
5,118,9,2,9,8,1,C,7,L,1,S,9,0.757228,0.348859,0.264166
5,119,2,1,9,2,1,C,1,S,7,L,10,0.7714,0.378934,0.29231
5,120,1,8,8,2,1,I,7,L,6,S,10,0.446101,0.758722,0.338467
5,121,9,2,1,2,1,I,7,L,1,S,11,0.801082,0.420497,0.336852
5,122,9,2,8,1,1,C,7,L,7,L,8,0.760816,0.296777,0.225793
5,123,9,2,2,9,1,I,7,L,7,L,12,0.787213,0.502236,0.395367
5,124,9,1,1,9,1,I,8,L,8,L,12,0.76587,0.542858,0.415759
5,125,8,9,1,2,1,C,1,S,1,S,11,0.388681,0.772829,0.300384
5,126,1,8,9,2,1,I,7,L,7,L,11,0.475272,0.790018,0.375474
5,127,9,2,9,2,1,C,7,L,7,L,8,0.761302,0.29571,0.225125
5,128,9,8,1,9,0,I,1,S,8,L,10,0.353804,0.802799,0.284034
5,129,8,2,8,2,1,C,6,S,6,S,9,0.855848,0.268381,0.229693
5,130,2,8,2,8,1,C,6,S,6,S,8,0.304333,0.754388,0.229585
5,131,1,2,2,9,1,C,1,S,7,L,10,0.350879,0.793103,0.278283
5,132,1,2,2,1,1,I,1,S,1,S,16,0.564277,0.766468,0.4325
5,133,2,1,2,8,1,I,1,S,6,S,21,0.767425,0.64545,0.495335
5,134,1,8,2,1,1,I,7,L,1,S,10,0.373627,0.812505,0.303574
5,135,2,9,2,1,1,I,7,L,1,S,10,0.393684,0.785434,0.309213
5,136,9,1,1,2,1,I,8,L,1,S,10,0.761215,0.415598,0.316359
5,137,1,2,8,9,1,C,1,S,1,S,12,0.375101,0.820795,0.307881
5,138,9,1,2,9,1,I,8,L,7,L,11,0.758951,0.492005,0.373408
5,139,2,8,1,9,1,C,6,S,8,L,8,0.273268,0.800583,0.218773
5,140,8,9,2,1,1,I,1,S,1,S,17,0.589557,0.753716,0.444359
5,141,1,8,8,9,1,C,7,L,1,S,9,0.301806,0.823846,0.248642
5,142,8,1,1,9,1,I,7,L,8,L,12,0.770018,0.538385,0.414566
5,143,1,8,9,1,1,I,7,L,8,L,11,0.495026,0.776566,0.38442
5,144,2,8,1,8,1,C,6,S,7,L,8,0.276275,0.79439,0.21947
6,1,2,1,9,1,1,C,1,S,8,L,10,0.760609,0.387036,0.294383
6,2,1,2,9,2,1,I,1,S,7,L,18,0.639734,0.756276,0.483815
6,3,8,1,2,1,1,C,7,L,1,S,9,0.781818,0.327776,0.256261
6,4,2,8,8,9,1,C,6,S,1,S,9,0.330725,0.786361,0.26007
6,5,8,9,2,8,1,C,1,S,6,S,11,0.400341,0.778616,0.311712
6,6,8,1,2,8,1,I,7,L,6,S,11,0.756508,0.484475,0.366509
6,7,9,2,1,9,1,I,7,L,8,L,13,0.785168,0.539725,0.423775
6,8,9,1,9,1,1,C,8,L,8,L,8,0.784278,0.280036,0.219626
6,9,2,8,9,8,1,I,6,S,1,S,10,0.389105,0.780377,0.303648
6,10,8,2,8,2,1,C,6,S,6,S,9,0.810735,0.306938,0.248846
6,11,8,2,2,1,1,C,6,S,1,S,10,0.83693,0.320859,0.268536
6,12,9,2,1,2,1,I,7,L,1,S,10,0.779928,0.376095,0.293327
6,13,9,2,1,8,1,I,7,L,7,L,12,0.757166,0.524541,0.397165
6,14,9,8,2,9,0,I,1,S,7,L,11,0.411842,0.770926,0.3175
6,15,2,8,8,1,1,I,6,S,7,L,12,0.507702,0.790651,0.401415
6,16,2,1,8,9,1,I,1,S,1,S,24,0.76198,0.642672,0.489703
6,17,2,8,9,2,1,I,6,S,7,L,12,0.517461,0.782119,0.404716
6,18,1,9,8,2,1,I,8,L,6,S,11,0.461848,0.789744,0.364741
6,19,2,9,8,9,1,C,7,L,1,S,9,0.32814,0.790208,0.259299
6,20,1,8,9,2,1,I,7,L,7,L,11,0.50473,0.755164,0.381154
6,21,2,1,2,1,1,C,1,S,1,S,13,0.76187,0.441039,0.336014
6,22,8,1,9,2,1,C,7,L,7,L,8,0.765946,0.293766,0.225009
6,23,9,1,9,8,1,C,8,L,1,S,9,0.781648,0.326798,0.255441
6,24,9,2,9,8,1,C,7,L,1,S,10,0.836971,0.319672,0.267556
6,25,2,8,2,1,1,I,6,S,1,S,10,0.391629,0.778899,0.30504
6,26,2,8,1,2,1,C,6,S,1,S,9,0.357506,0.755871,0.270229
6,27,8,9,9,2,0,I,1,S,7,L,12,0.780292,0.442426,0.345222
6,28,2,8,8,2,1,I,6,S,6,S,11,0.475042,0.770348,0.365947
6,29,2,8,2,9,1,C,6,S,7,L,8,0.302371,0.757585,0.229072
6,30,9,8,9,8,1,C,1,S,1,S,15,0.751104,0.493187,0.370435
6,31,2,1,2,8,0,I,1,S,6,S,12,0.451089,0.75408,0.340158
6,32,2,9,2,9,1,C,7,L,7,L,8,0.30015,0.760895,0.228383
6,33,2,1,8,2,1,C,1,S,6,S,11,0.759287,0.413597,0.314039
6,34,2,8,1,9,1,C,6,S,8,L,8,0.299897,0.76403,0.229131
6,35,2,8,9,1,1,I,6,S,8,L,12,0.538234,0.766719,0.412674
6,36,8,9,1,8,1,C,1,S,7,L,11,0.395392,0.788426,0.311737
6,37,8,9,9,8,1,I,1,S,1,S,22,0.637478,0.752888,0.47995
6,38,8,9,8,2,0,I,1,S,6,S,13,0.768295,0.473306,0.363639
6,39,2,1,1,8,0,I,1,S,7,L,12,0.445671,0.764278,0.340616
6,40,1,2,8,2,1,I,1,S,6,S,17,0.624464,0.750633,0.468743
6,41,1,2,2,8,1,C,1,S,6,S,10,0.358026,0.785748,0.281318
6,42,8,1,2,9,1,I,7,L,7,L,12,0.788931,0.503356,0.397113
6,43,1,8,1,2,1,C,7,L,1,S,9,0.348607,0.769573,0.268279
6,44,8,9,8,1,0,I,1,S,7,L,12,0.770533,0.450958,0.347478
6,45,8,9,2,1,1,I,1,S,1,S,23,0.623645,0.779803,0.48632
6,46,1,9,1,2,1,C,8,L,1,S,9,0.346191,0.773189,0.267671
6,47,2,1,1,9,0,I,1,S,8,L,12,0.43576,0.78003,0.339906
6,48,8,2,8,1,1,C,6,S,7,L,9,0.835846,0.288689,0.2413
6,49,2,9,9,2,1,I,7,L,7,L,12,0.514367,0.786473,0.404535
6,50,8,9,2,9,1,C,1,S,7,L,11,0.39043,0.794921,0.310361
6,51,9,8,8,2,1,C,1,S,6,S,12,0.769178,0.440814,0.339065
6,52,9,1,2,1,1,C,8,L,1,S,9,0.783543,0.325775,0.255259
6,53,2,9,1,2,1,C,7,L,1,S,9,0.354921,0.759718,0.26964
6,54,1,2,2,9,1,C,1,S,7,L,10,0.349026,0.801017,0.279576
6,55,9,8,9,2,1,C,1,S,7,L,11,0.765976,0.42084,0.322353
6,56,9,2,8,9,1,I,7,L,1,S,11,0.799235,0.411574,0.328944
6,57,2,1,2,9,0,I,1,S,7,L,12,0.440593,0.770822,0.339619
6,58,1,9,1,9,1,C,8,L,8,L,8,0.290169,0.779044,0.226054
6,59,9,1,8,2,1,C,8,L,6,S,9,0.846151,0.279411,0.236424
6,60,8,1,8,9,1,I,7,L,1,S,10,0.777765,0.393432,0.305997
6,61,1,9,9,2,1,I,8,L,7,L,11,0.501953,0.759164,0.381065
6,62,1,2,1,9,1,C,1,S,8,L,10,0.345094,0.809458,0.279339
6,63,8,9,1,2,1,C,1,S,1,S,15,0.462645,0.769314,0.355919
6,64,8,9,8,9,1,C,1,S,1,S,13,0.43396,0.781737,0.339243
6,65,2,1,1,2,1,I,1,S,1,S,20,0.771004,0.542601,0.418347
6,66,1,2,9,8,1,I,1,S,1,S,15,0.52506,0.774222,0.406513
6,67,1,2,8,1,1,I,1,S,7,L,18,0.633687,0.762377,0.483108
6,68,8,9,1,9,1,C,1,S,8,L,11,0.385972,0.803885,0.310277
6,69,1,8,2,1,1,I,7,L,1,S,10,0.381799,0.793767,0.30306
6,70,9,8,1,9,0,I,1,S,8,L,11,0.407384,0.779891,0.317715
6,71,2,9,1,9,1,C,7,L,8,L,8,0.297677,0.76734,0.228419
6,72,2,9,9,8,1,I,7,L,1,S,10,0.386253,0.784566,0.303041
6,73,9,1,1,8,1,I,8,L,7,L,11,0.753405,0.492208,0.370832
6,74,9,8,8,9,0,I,1,S,1,S,14,0.451066,0.781149,0.352349
6,75,9,8,2,8,0,I,1,S,6,S,11,0.421753,0.754622,0.318264
6,76,8,1,1,2,1,I,7,L,1,S,10,0.814733,0.350616,0.285658
6,77,2,9,2,8,1,C,7,L,6,S,9,0.270177,0.858851,0.232042
6,78,8,1,9,1,1,C,7,L,8,L,8,0.78279,0.281886,0.220658
6,79,1,9,1,8,1,C,8,L,7,L,8,0.296299,0.767942,0.22754
6,80,8,2,2,9,1,I,6,S,7,L,13,0.787682,0.533159,0.41996
6,81,2,9,9,1,1,I,7,L,8,L,12,0.535139,0.771073,0.412632
6,82,9,1,1,2,1,I,8,L,1,S,10,0.816572,0.348543,0.28461
6,83,9,2,9,2,1,C,7,L,7,L,9,0.846971,0.278498,0.23588
6,84,1,9,9,1,1,I,8,L,8,L,12,0.524706,0.786119,0.412482
6,85,2,9,1,8,1,C,7,L,7,L,8,0.303807,0.756238,0.22975
6,86,9,2,2,8,1,I,7,L,6,S,12,0.762585,0.514343,0.39223
6,87,8,9,9,1,0,I,1,S,8,L,11,0.765528,0.429629,0.328893
6,88,1,8,9,1,1,I,7,L,8,L,12,0.527538,0.782137,0.412607
6,89,9,8,8,1,1,C,1,S,7,L,11,0.7561,0.429355,0.324635
6,90,9,8,9,1,1,C,1,S,8,L,11,0.78694,0.405635,0.31921
6,91,1,9,9,8,1,I,8,L,1,S,10,0.376633,0.799135,0.300981
6,92,9,2,8,1,1,C,7,L,7,L,9,0.838134,0.286201,0.239875
6,93,1,8,8,1,1,I,7,L,7,L,11,0.494854,0.763679,0.377909
6,94,2,1,8,1,1,C,1,S,7,L,11,0.789517,0.391532,0.309121
6,95,8,1,8,1,1,C,7,L,7,L,8,0.758389,0.300624,0.22799
6,96,1,2,1,8,1,C,1,S,7,L,10,0.353717,0.794834,0.281147
6,97,9,1,9,2,1,C,8,L,7,L,8,0.767434,0.291915,0.224026
6,98,9,8,1,8,0,I,1,S,7,L,11,0.416804,0.764432,0.318618
6,99,1,2,1,2,1,C,1,S,1,S,12,0.424615,0.769161,0.326597
6,100,1,9,8,9,1,C,8,L,1,S,9,0.31941,0.803679,0.256703
6,101,1,2,8,9,1,C,1,S,1,S,11,0.400107,0.76934,0.307818
6,102,2,8,2,8,1,C,6,S,6,S,9,0.272762,0.855004,0.233213
6,103,2,1,9,8,1,C,1,S,1,S,13,0.757186,0.444002,0.336192
6,104,1,8,2,8,1,C,7,L,6,S,8,0.301013,0.758141,0.22821
6,105,1,2,2,1,1,I,1,S,1,S,15,0.530583,0.770604,0.408869
6,106,1,8,2,9,1,C,7,L,7,L,8,0.294741,0.76944,0.226785
6,107,8,1,1,9,1,I,7,L,8,L,12,0.784099,0.512564,0.401901
6,108,8,1,9,8,1,C,7,L,1,S,9,0.779923,0.328799,0.256438
6,109,9,8,2,1,1,C,1,S,1,S,15,0.756626,0.489569,0.370421
6,110,2,8,1,8,1,C,6,S,7,L,8,0.306028,0.752928,0.230417
6,111,9,1,8,9,1,I,8,L,1,S,10,0.779605,0.391358,0.305105
6,112,8,2,1,2,1,I,6,S,1,S,10,0.777362,0.378761,0.294434
6,113,9,1,1,9,1,I,8,L,8,L,12,0.785867,0.510538,0.401215
6,114,1,2,9,1,1,I,1,S,8,L,19,0.636603,0.775138,0.493455
6,115,9,2,8,2,1,C,7,L,6,S,9,0.813023,0.304451,0.247525
6,116,2,9,8,2,1,I,7,L,6,S,11,0.472023,0.774694,0.365674
6,117,9,2,2,9,1,I,7,L,7,L,12,0.752088,0.531085,0.399423
6,118,1,9,2,1,1,I,8,L,1,S,10,0.379158,0.797657,0.302438
6,119,1,8,1,9,1,C,7,L,8,L,8,0.292267,0.775885,0.226766
6,120,9,1,8,1,1,C,8,L,7,L,8,0.759877,0.298773,0.227031
6,121,2,1,9,2,1,C,1,S,7,L,11,0.799393,0.383017,0.306181
6,122,8,2,9,2,1,C,6,S,7,L,9,0.844684,0.280986,0.237344
6,123,2,9,8,1,1,I,7,L,7,L,11,0.502253,0.752628,0.37801
6,124,1,8,8,9,1,C,7,L,1,S,9,0.321826,0.800063,0.257481
6,125,8,2,1,8,1,I,6,S,7,L,12,0.754495,0.527284,0.397833
6,126,8,2,8,9,1,I,6,S,1,S,11,0.796548,0.41432,0.330026
6,127,8,2,2,8,1,I,6,S,6,S,12,0.759913,0.517086,0.392941
6,128,1,9,2,8,1,C,8,L,6,S,8,0.298914,0.761301,0.227563
6,129,1,9,2,9,1,C,8,L,7,L,8,0.292642,0.772599,0.226095
6,130,9,1,2,8,1,I,8,L,6,S,11,0.758354,0.482398,0.365828
6,131,9,8,1,2,0,I,1,S,1,S,17,0.483327,0.759995,0.367326
6,132,8,2,9,8,1,C,6,S,1,S,10,0.834405,0.322337,0.26896
6,133,9,2,9,1,1,C,7,L,8,L,8,0.756388,0.301636,0.228154
6,134,8,1,1,8,1,I,7,L,7,L,11,0.751559,0.494286,0.371485
6,135,1,9,8,1,1,I,8,L,7,L,11,0.492078,0.767678,0.377757
6,136,1,8,9,8,1,I,7,L,1,S,10,0.379274,0.795246,0.301616
6,137,8,2,9,1,1,C,6,S,8,L,8,0.754522,0.303851,0.229262
6,138,9,1,2,9,1,I,8,L,7,L,12,0.7907,0.50133,0.396402
6,139,8,1,8,2,1,C,7,L,6,S,9,0.844426,0.281412,0.237632
6,140,1,8,1,8,1,C,7,L,7,L,8,0.298398,0.764782,0.228209
6,141,8,2,1,9,1,I,6,S,8,L,13,0.782615,0.542397,0.424488
6,142,9,2,2,1,1,C,7,L,1,S,9,0.750415,0.350815,0.263257
6,143,1,8,8,2,1,I,7,L,6,S,11,0.464624,0.785745,0.365076
6,144,2,9,2,1,1,I,7,L,1,S,10,0.388778,0.783088,0.304447
7,1,8,9,8,2,0,I,1,S,6,S,10,0.752055,0.387656,0.291539
7,2,8,2,2,1,1,C,6,S,1,S,9,0.768724,0.341383,0.262429
7,3,8,1,8,9,1,I,7,L,1,S,9,0.775362,0.3436,0.266414
7,4,2,8,9,8,1,I,6,S,1,S,11,0.470113,0.765068,0.359669
7,5,8,1,1,2,1,I,7,L,1,S,10,0.786036,0.394277,0.309916
7,6,1,2,1,8,1,C,1,S,7,L,10,0.333938,0.817179,0.272887
7,7,2,8,2,1,1,I,6,S,1,S,10,0.372793,0.788147,0.293815
7,8,8,2,2,9,1,I,6,S,7,L,11,0.753411,0.495083,0.373
7,9,9,1,8,1,1,C,8,L,7,L,8,0.782191,0.28203,0.220601
7,10,1,2,1,2,1,C,1,S,1,S,11,0.351238,0.824256,0.28951
7,11,2,1,2,1,1,C,1,S,1,S,13,0.765914,0.433916,0.332342
7,12,2,8,1,8,1,C,6,S,7,L,9,0.267821,0.857667,0.229701
7,13,9,2,2,1,1,C,7,L,1,S,9,0.761227,0.345827,0.263253
7,14,9,2,1,8,1,I,7,L,7,L,12,0.785066,0.504656,0.396188
7,15,8,9,8,9,0,C,1,S,1,S,13,0.781222,0.437998,0.342174
7,16,1,9,1,9,1,C,8,L,8,L,8,0.287756,0.776121,0.223333
7,17,9,8,9,1,1,C,1,S,8,L,10,0.786206,0.364673,0.286708
7,18,1,8,2,9,1,C,7,L,7,L,8,0.288512,0.771905,0.222704
7,19,9,1,9,1,1,C,8,L,8,L,8,0.81686,0.256417,0.209457
7,20,8,1,2,8,1,I,7,L,6,S,11,0.794803,0.4569,0.363146
7,21,9,8,8,2,1,C,1,S,6,S,11,0.75823,0.409197,0.310266
7,22,9,1,8,2,1,C,8,L,6,S,9,0.856299,0.271296,0.23231
7,23,1,9,9,1,1,I,8,L,8,L,12,0.541491,0.769773,0.416825
7,24,9,2,2,8,1,I,7,L,6,S,11,0.755405,0.485845,0.36701
7,25,1,9,8,1,1,I,8,L,7,L,11,0.497901,0.759374,0.378093
7,26,9,8,2,8,0,I,1,S,6,S,13,0.47751,0.758398,0.362143
7,27,1,8,2,8,1,C,7,L,6,S,8,0.295838,0.761959,0.225417
7,28,1,2,9,1,1,I,1,S,8,L,18,0.637398,0.767828,0.489413
7,29,9,1,2,9,1,I,8,L,7,L,11,0.776909,0.476015,0.369821
7,30,2,1,1,8,0,I,1,S,7,L,13,0.485288,0.757816,0.367758
7,31,1,2,2,8,1,C,1,S,6,S,10,0.346044,0.801852,0.277476
7,32,2,9,1,9,1,C,7,L,8,L,9,0.270134,0.859572,0.232199
7,33,9,1,9,2,1,C,8,L,7,L,8,0.792079,0.273264,0.216447
7,34,1,8,9,2,1,I,7,L,7,L,11,0.501984,0.755805,0.379402
7,35,2,9,2,1,1,I,7,L,1,S,10,0.383264,0.778473,0.298361
7,36,9,8,1,2,1,I,1,S,1,S,23,0.774698,0.628562,0.486946
7,37,2,9,9,8,1,I,7,L,1,S,11,0.480703,0.755226,0.36304
7,38,1,2,9,2,1,I,1,S,7,L,17,0.631721,0.753951,0.476286
7,39,1,8,1,9,1,C,7,L,8,L,8,0.27993,0.782284,0.218985
7,40,8,9,9,8,0,I,1,S,1,S,10,0.758666,0.382786,0.290407
7,41,2,1,2,9,0,I,1,S,7,L,13,0.487337,0.756416,0.36863
7,42,8,2,9,1,1,C,6,S,8,L,8,0.798162,0.271858,0.216987
7,43,1,9,2,9,1,C,8,L,7,L,8,0.296337,0.765743,0.226918
7,44,2,9,8,2,1,I,7,L,6,S,11,0.473395,0.760596,0.360063
7,45,9,8,1,8,0,I,1,S,7,L,13,0.464321,0.774605,0.359665
7,46,8,1,1,9,1,I,7,L,8,L,11,0.772922,0.485687,0.375398
7,47,8,1,1,8,1,I,7,L,7,L,11,0.781945,0.473175,0.369996
7,48,9,2,8,2,1,C,7,L,6,S,9,0.827352,0.293031,0.24244
7,49,2,9,8,1,1,I,7,L,7,L,12,0.525767,0.767097,0.403315
7,50,9,8,8,9,1,I,1,S,1,S,16,0.771417,0.469237,0.361978
7,51,9,2,8,1,1,C,7,L,7,L,8,0.757088,0.301176,0.228017
7,52,9,8,8,1,1,C,1,S,7,L,11,0.807835,0.373476,0.301707
7,53,1,2,2,1,1,I,1,S,1,S,13,0.467233,0.768805,0.359212
7,54,1,9,8,9,1,C,8,L,1,S,9,0.352258,0.764353,0.269249
7,55,2,9,8,9,1,C,7,L,1,S,10,0.352293,0.810545,0.285549
7,56,1,2,8,2,1,I,1,S,6,S,16,0.592374,0.764983,0.453156
7,57,2,8,1,9,1,C,6,S,8,L,8,0.297473,0.757491,0.225333
7,58,1,8,9,8,1,I,7,L,1,S,11,0.447198,0.796831,0.356341
7,59,2,1,8,9,1,I,1,S,1,S,15,0.76384,0.468365,0.357756
7,60,1,2,8,9,1,C,1,S,1,S,12,0.416209,0.783117,0.32594
7,61,8,9,2,1,0,I,1,S,1,S,12,0.789381,0.4042,0.319068
7,62,2,8,2,8,1,C,6,S,6,S,9,0.278738,0.844076,0.235276
7,63,2,9,1,8,1,C,7,L,7,L,9,0.277816,0.84874,0.235793
7,64,1,9,8,2,1,I,8,L,6,S,11,0.448296,0.795096,0.356438
7,65,1,9,1,2,1,C,8,L,1,S,9,0.300473,0.817711,0.2457
7,66,2,9,2,8,1,C,7,L,6,S,9,0.288733,0.835149,0.241135
7,67,1,9,9,8,1,I,8,L,1,S,11,0.455604,0.789726,0.359802
7,68,2,8,8,9,1,C,6,S,1,S,10,0.341821,0.820219,0.280368
7,69,9,1,9,8,1,C,8,L,1,S,8,0.753283,0.302952,0.228208
7,70,9,2,1,2,1,I,7,L,1,S,11,0.801417,0.419415,0.336126
7,71,2,1,1,9,0,I,1,S,8,L,13,0.476009,0.770161,0.366603
7,72,8,9,1,9,0,C,1,S,8,L,19,0.769114,0.636701,0.489696
7,73,2,1,2,8,0,I,1,S,6,S,14,0.510803,0.755643,0.385985
7,74,2,9,9,1,1,I,7,L,8,L,13,0.564645,0.773655,0.43684
7,75,9,2,1,9,1,I,7,L,8,L,12,0.775799,0.517258,0.401288
7,76,8,1,9,1,1,C,7,L,8,L,8,0.822666,0.253198,0.208297
7,77,2,9,1,2,1,C,7,L,1,S,9,0.322227,0.787184,0.253652
7,78,8,2,8,1,1,C,6,S,7,L,8,0.763493,0.297471,0.227117
7,79,1,9,2,1,1,I,8,L,1,S,10,0.359423,0.811745,0.29176
7,80,8,9,9,1,0,I,1,S,8,L,9,0.75866,0.351438,0.266622
7,81,8,1,8,2,1,C,7,L,6,S,8,0.754692,0.303141,0.228778
7,82,2,1,9,1,1,C,1,S,8,L,10,0.794807,0.357604,0.284226
7,83,2,8,9,2,1,I,6,S,7,L,12,0.527631,0.765988,0.404159
7,84,9,8,2,1,1,C,1,S,1,S,14,0.801634,0.417178,0.334424
7,85,1,2,1,9,1,C,1,S,8,L,10,0.325435,0.829132,0.269829
7,86,2,8,8,1,1,I,6,S,7,L,12,0.515356,0.776648,0.40025
7,87,9,2,9,8,1,C,7,L,1,S,9,0.832952,0.288832,0.240583
7,88,2,8,1,2,1,C,6,S,1,S,9,0.312232,0.796112,0.248572
7,89,1,8,2,1,1,I,7,L,1,S,10,0.350929,0.818972,0.287401
7,90,8,2,9,2,1,C,6,S,7,L,8,0.773382,0.288705,0.223279
7,91,2,1,9,8,1,C,1,S,1,S,11,0.777351,0.394087,0.306344
7,92,1,9,2,8,1,C,8,L,6,S,8,0.303664,0.755796,0.229508
7,93,9,1,1,8,1,I,8,L,7,L,11,0.774674,0.477638,0.370014
7,94,8,9,1,2,0,C,1,S,1,S,17,0.773629,0.582753,0.450835
7,95,8,2,8,2,1,C,6,S,6,S,9,0.834848,0.288587,0.240927
7,96,2,8,2,9,1,C,6,S,7,L,9,0.269988,0.856196,0.231162
7,97,2,1,1,2,1,I,1,S,1,S,21,0.756359,0.632906,0.478704
7,98,9,8,1,9,0,I,1,S,8,L,12,0.452454,0.761506,0.344547
7,99,1,2,8,1,1,I,1,S,7,L,17,0.62329,0.762189,0.475065
7,100,2,1,8,1,1,C,1,S,7,L,10,0.753458,0.388261,0.292538
7,101,1,8,8,1,1,I,7,L,7,L,11,0.489495,0.766479,0.375188
7,102,8,1,9,8,1,C,7,L,1,S,8,0.759089,0.299733,0.227524
7,103,8,2,1,8,1,I,6,S,7,L,11,0.751176,0.496705,0.373113
7,104,8,9,2,9,0,C,1,S,7,L,19,0.777129,0.62806,0.488083
7,105,8,1,9,2,1,C,7,L,7,L,8,0.797885,0.270045,0.215465
7,106,9,1,8,9,1,I,8,L,1,S,9,0.768778,0.347374,0.267054
7,107,9,1,1,9,1,I,8,L,8,L,11,0.765651,0.490151,0.375284
7,108,2,1,9,2,1,C,1,S,7,L,10,0.765697,0.377867,0.289332
7,109,9,2,2,9,1,I,7,L,7,L,12,0.787232,0.503111,0.396065
7,110,2,1,8,2,1,C,1,S,6,S,11,0.770043,0.399456,0.307599
7,111,1,8,8,9,1,C,7,L,1,S,9,0.343941,0.771292,0.265279
7,112,8,2,8,9,1,I,6,S,1,S,10,0.824782,0.342601,0.282571
7,113,9,1,2,8,1,I,8,L,6,S,11,0.787532,0.461364,0.363339
7,114,9,8,9,2,1,C,1,S,7,L,10,0.757096,0.384936,0.291433
7,115,9,1,1,2,1,I,8,L,1,S,10,0.778976,0.398467,0.310396
7,116,2,8,9,1,1,I,6,S,8,L,13,0.55464,0.782592,0.434057
7,117,1,8,1,8,1,C,7,L,7,L,8,0.286507,0.773122,0.221505
7,118,8,9,1,8,0,C,1,S,7,L,19,0.776096,0.628246,0.487579
7,119,9,8,9,8,1,C,1,S,1,S,11,0.765537,0.403828,0.309145
7,120,2,9,9,2,1,I,7,L,7,L,12,0.538042,0.756438,0.406995
7,121,8,1,2,9,1,I,7,L,7,L,11,0.78418,0.471552,0.369782
7,122,9,2,8,9,1,I,7,L,1,S,10,0.816544,0.347619,0.283847
7,123,8,2,2,8,1,I,6,S,6,S,11,0.764034,0.480431,0.367065
7,124,1,8,9,1,1,I,7,L,8,L,12,0.533377,0.776461,0.414146
7,125,8,1,2,1,1,C,7,L,1,S,9,0.796758,0.320317,0.255215
7,126,8,9,8,1,0,I,1,S,7,L,10,0.798308,0.354614,0.283091
7,127,8,9,9,2,0,I,1,S,7,L,10,0.810547,0.344219,0.279006
7,128,8,1,8,1,1,C,7,L,7,L,8,0.787996,0.278811,0.219702
7,129,8,9,2,8,0,C,1,S,6,S,18,0.75529,0.633774,0.478683
7,130,1,2,9,8,1,I,1,S,1,S,16,0.599213,0.759497,0.4551
7,131,8,2,9,8,1,C,6,S,1,S,9,0.840449,0.284388,0.239014
7,132,8,2,1,2,1,I,6,S,1,S,10,0.755965,0.416954,0.315203
7,133,1,9,9,2,1,I,8,L,7,L,12,0.512427,0.790939,0.405299
7,134,9,1,2,1,1,C,8,L,1,S,9,0.790174,0.324091,0.256089
7,135,1,2,2,9,1,C,1,S,7,L,10,0.336178,0.815573,0.274178
7,136,1,8,8,2,1,I,7,L,6,S,10,0.436911,0.752083,0.328593
7,137,2,9,2,9,1,C,7,L,7,L,9,0.279982,0.847268,0.23722
7,138,1,8,1,2,1,C,7,L,1,S,9,0.292156,0.824651,0.240927
7,139,1,9,1,8,1,C,8,L,7,L,8,0.294332,0.76696,0.225741
7,140,8,2,1,9,1,I,6,S,8,L,12,0.784529,0.511615,0.401377
7,141,9,8,2,9,0,I,1,S,7,L,13,0.466371,0.773205,0.3606
7,142,9,2,9,2,1,C,7,L,7,L,8,0.766977,0.29241,0.224272
7,143,2,8,8,2,1,I,6,S,6,S,11,0.462805,0.770438,0.356563
7,144,9,2,9,1,1,C,7,L,8,L,8,0.791757,0.275564,0.21818
8,1,1,2,1,2,1,C,1,S,1,S,10,0.348429,0.802144,0.27949
8,2,8,9,8,1,1,I,1,S,7,L,18,0.641022,0.751039,0.481433
8,3,2,8,2,8,1,C,6,S,6,S,8,0.296762,0.761963,0.226121
8,4,8,2,8,2,1,C,6,S,6,S,9,0.770797,0.334825,0.258082
8,5,2,1,9,1,1,C,1,S,8,L,10,0.794537,0.359529,0.285659
8,6,1,9,1,9,1,C,8,L,8,L,8,0.26759,0.804865,0.215373
8,7,9,8,2,8,0,I,1,S,6,S,11,0.419194,0.766953,0.321502
8,8,2,9,8,1,1,I,7,L,7,L,12,0.519902,0.775308,0.403084
8,9,8,2,1,2,1,I,6,S,1,S,11,0.792408,0.410065,0.324939
8,10,1,9,1,2,1,C,8,L,1,S,8,0.310209,0.75471,0.234118
8,11,1,9,1,8,1,C,8,L,7,L,8,0.247673,0.833802,0.20651
8,12,8,1,2,1,1,C,7,L,1,S,10,0.829605,0.325212,0.269798
8,13,2,8,1,9,1,C,6,S,8,L,9,0.293984,0.824023,0.242249
8,14,8,1,9,1,1,C,7,L,8,L,8,0.764574,0.293653,0.22452
8,15,9,2,9,8,1,C,7,L,1,S,10,0.816603,0.345298,0.281972
8,16,9,8,9,1,1,C,1,S,8,L,10,0.764647,0.38304,0.29289
8,17,2,9,8,9,1,C,7,L,1,S,10,0.335806,0.826767,0.277634
8,18,1,8,8,1,1,I,7,L,7,L,10,0.454637,0.759045,0.34509
8,19,2,8,9,8,1,I,6,S,1,S,10,0.356361,0.799751,0.285
8,20,8,9,9,8,1,I,1,S,1,S,13,0.421862,0.794944,0.335357
8,21,9,2,8,2,1,C,7,L,6,S,9,0.80899,0.308077,0.249231
8,22,8,1,8,1,1,C,7,L,7,L,9,0.846848,0.276597,0.234235
8,23,2,9,2,8,1,C,7,L,6,S,8,0.289825,0.774997,0.224613
8,24,1,8,2,1,1,I,7,L,1,S,9,0.342217,0.782902,0.267923
8,25,1,2,8,2,1,I,1,S,6,S,12,0.48726,0.769857,0.37512
8,26,8,9,8,2,1,I,1,S,6,S,17,0.592825,0.771814,0.457551
8,27,8,9,2,9,1,C,1,S,7,L,10,0.352602,0.793516,0.279795
8,28,1,8,9,2,1,I,7,L,7,L,10,0.436729,0.772926,0.337559
8,29,9,1,2,9,1,I,8,L,7,L,11,0.75578,0.492118,0.371933
8,30,2,8,2,1,1,I,6,S,1,S,10,0.394173,0.763597,0.30099
8,31,2,1,8,2,1,C,1,S,6,S,11,0.757286,0.411413,0.311557
8,32,8,9,8,9,1,C,1,S,1,S,12,0.42714,0.760197,0.32471
8,33,9,1,8,1,1,C,8,L,7,L,8,0.769352,0.290736,0.223678
8,34,2,1,2,1,1,C,1,S,1,S,13,0.80242,0.407429,0.326929
8,35,9,1,2,8,1,I,8,L,6,S,12,0.774263,0.528557,0.409242
8,36,2,9,1,2,1,C,7,L,1,S,9,0.340732,0.771617,0.262914
8,37,9,8,8,1,1,C,1,S,7,L,11,0.792108,0.3876,0.307021
8,38,8,9,1,9,1,C,1,S,8,L,10,0.36885,0.772188,0.284821
8,39,9,1,9,8,1,C,8,L,1,S,9,0.75247,0.357253,0.268822
8,40,2,1,9,2,1,C,1,S,7,L,11,0.81441,0.369301,0.300762
8,41,9,1,8,9,1,I,8,L,1,S,10,0.82029,0.343966,0.282152
8,42,2,9,9,8,1,I,7,L,1,S,10,0.346509,0.816908,0.283066
8,43,9,1,9,1,1,C,8,L,8,L,8,0.794566,0.272763,0.216728
8,44,9,8,1,8,0,I,1,S,7,L,11,0.431422,0.751229,0.324097
8,45,9,2,9,1,1,C,7,L,8,L,8,0.783229,0.281835,0.220742
8,46,1,8,9,8,1,I,7,L,1,S,9,0.315651,0.809142,0.255406
8,47,9,2,8,1,1,C,7,L,7,L,8,0.758015,0.299808,0.227259
8,48,1,9,2,9,1,C,8,L,7,L,8,0.255272,0.820272,0.209393
8,49,9,8,9,8,1,C,1,S,1,S,17,0.75383,0.482517,0.363736
8,50,1,2,1,8,1,C,1,S,7,L,9,0.297606,0.821818,0.244578
8,51,9,2,2,9,1,I,7,L,7,L,12,0.783674,0.506088,0.396608
8,52,9,1,1,9,1,I,8,L,8,L,11,0.773157,0.469353,0.362884
8,53,2,9,1,9,1,C,7,L,8,L,9,0.285437,0.839459,0.239613
8,54,1,8,1,8,1,C,7,L,7,L,8,0.252336,0.823839,0.207884
8,55,8,2,2,1,1,C,6,S,1,S,10,0.811492,0.339238,0.275289
8,56,1,2,9,1,1,I,1,S,8,L,14,0.589081,0.762397,0.449113
8,57,9,2,1,2,1,I,7,L,1,S,10,0.777777,0.389797,0.303175
8,58,9,8,9,2,1,C,1,S,7,L,11,0.773439,0.402171,0.311055
8,59,8,9,1,8,1,C,1,S,7,L,10,0.342134,0.811082,0.277498
8,60,9,1,1,2,1,I,8,L,1,S,10,0.792167,0.378604,0.299918
8,61,1,8,9,1,1,I,7,L,8,L,11,0.490837,0.784397,0.385011
8,62,8,1,1,2,1,I,7,L,1,S,10,0.752967,0.405865,0.305603
8,63,9,8,2,9,0,I,1,S,7,L,12,0.436742,0.771706,0.337036
8,64,2,8,8,2,1,I,6,S,6,S,11,0.452654,0.771269,0.349118
8,65,8,2,8,1,1,C,6,S,7,L,9,0.830907,0.289147,0.240254
8,66,8,1,2,9,1,I,7,L,7,L,12,0.756975,0.524191,0.3968
8,67,8,2,2,9,1,I,6,S,7,L,13,0.775758,0.539058,0.418178
8,68,1,8,2,9,1,C,7,L,7,L,8,0.259935,0.810309,0.210628
8,69,1,8,1,9,1,C,7,L,8,L,8,0.272252,0.794902,0.216414
8,70,2,1,2,9,0,I,1,S,7,L,14,0.521458,0.755881,0.39416
8,71,1,8,2,8,1,C,7,L,6,S,8,0.242522,0.836476,0.202864
8,72,8,2,9,2,1,C,6,S,7,L,9,0.814639,0.301854,0.245902
8,73,9,1,9,2,1,C,8,L,7,L,8,0.755595,0.301794,0.228034
8,74,1,9,9,1,1,I,8,L,8,L,11,0.48445,0.795988,0.385616
8,75,2,8,9,2,1,I,6,S,7,L,12,0.512606,0.77161,0.395532
8,76,9,2,2,1,1,C,7,L,1,S,9,0.765812,0.341342,0.261404
8,77,8,1,1,9,1,I,7,L,8,L,12,0.774924,0.500973,0.388216
8,78,9,8,1,9,0,I,1,S,8,L,13,0.448986,0.7813,0.350793
8,79,1,9,9,2,1,I,8,L,7,L,10,0.430725,0.784332,0.337831
8,80,1,2,1,9,1,C,1,S,8,L,9,0.321344,0.787086,0.252925
8,81,8,1,8,9,1,I,7,L,1,S,10,0.78109,0.371226,0.289961
8,82,2,8,1,8,1,C,6,S,7,L,9,0.270245,0.858755,0.232075
8,83,9,8,2,1,1,C,1,S,1,S,14,0.778402,0.438371,0.341229
8,84,1,9,2,1,1,I,8,L,1,S,9,0.336785,0.793796,0.267339
8,85,1,9,2,8,1,C,8,L,6,S,8,0.237859,0.846439,0.201333
8,86,8,2,9,8,1,C,6,S,1,S,10,0.77368,0.375393,0.290434
8,87,2,1,1,2,1,I,1,S,1,S,19,0.777813,0.585499,0.455409
8,88,2,9,9,2,1,I,7,L,7,L,12,0.501205,0.79013,0.396017
8,89,9,1,2,1,1,C,8,L,1,S,9,0.779037,0.331013,0.257872
8,90,1,2,9,2,1,I,1,S,7,L,13,0.547086,0.763642,0.417778
8,91,2,1,2,8,0,I,1,S,6,S,12,0.467838,0.761488,0.356253
8,92,9,8,1,2,1,I,1,S,1,S,25,0.776899,0.62963,0.489159
8,93,2,1,8,1,1,C,1,S,7,L,10,0.764171,0.381343,0.291411
8,94,9,2,2,8,1,I,7,L,6,S,12,0.759476,0.540362,0.410393
8,95,9,2,1,8,1,I,7,L,7,L,12,0.771773,0.52485,0.405065
8,96,1,8,8,2,1,I,7,L,6,S,10,0.385067,0.811118,0.312335
8,97,8,2,1,8,1,I,6,S,7,L,13,0.76363,0.557637,0.425828
8,98,8,1,2,8,1,I,7,L,6,S,13,0.771015,0.557039,0.429486
8,99,9,1,1,8,1,I,8,L,7,L,12,0.78656,0.513044,0.40354
8,100,8,2,2,8,1,I,6,S,6,S,13,0.75153,0.572581,0.430312
8,101,1,9,8,2,1,I,8,L,6,S,9,0.379964,0.76053,0.288974
8,102,1,2,2,8,1,C,1,S,6,S,9,0.286578,0.83623,0.239645
8,103,2,1,8,9,1,I,1,S,1,S,15,0.755166,0.486127,0.367107
8,104,8,9,2,8,1,C,1,S,6,S,10,0.330309,0.826493,0.272998
8,105,9,8,8,9,1,I,1,S,1,S,21,0.776607,0.543158,0.42182
8,106,8,9,9,2,1,I,1,S,7,L,18,0.628276,0.762415,0.479007
8,107,9,1,8,2,1,C,8,L,6,S,9,0.822215,0.297748,0.244813
8,108,2,9,8,2,1,I,7,L,6,S,11,0.441853,0.789421,0.348808
8,109,1,2,9,8,1,I,1,S,1,S,10,0.387255,0.757646,0.293402
8,110,2,9,2,9,1,C,7,L,7,L,9,0.270899,0.85828,0.232507
8,111,2,9,2,1,1,I,7,L,1,S,10,0.384321,0.780754,0.30006
8,112,9,2,1,9,1,I,7,L,8,L,11,0.758293,0.481023,0.364756
8,113,1,9,8,1,1,I,8,L,7,L,10,0.448633,0.77045,0.345649
8,114,1,2,8,1,1,I,1,S,7,L,14,0.560872,0.784406,0.439951
8,115,2,1,1,8,0,I,1,S,7,L,13,0.491934,0.764495,0.376081
8,116,2,8,1,2,1,C,6,S,1,S,9,0.349278,0.756181,0.264118
8,117,8,1,8,2,1,C,7,L,6,S,9,0.786737,0.322275,0.253546
8,118,1,9,9,8,1,I,8,L,1,S,9,0.310219,0.820036,0.25439
8,119,2,8,9,1,1,I,6,S,8,L,13,0.559854,0.77227,0.432358
8,120,1,2,2,1,1,I,1,S,1,S,11,0.41501,0.778627,0.323138
8,121,2,9,1,8,1,C,7,L,7,L,8,0.299639,0.76236,0.228433
8,122,2,8,8,1,1,I,6,S,7,L,12,0.531304,0.756787,0.402084
8,123,9,2,8,9,1,I,7,L,1,S,10,0.805901,0.355158,0.286222
8,124,8,2,8,9,1,I,6,S,1,S,10,0.762977,0.385252,0.293939
8,125,8,9,2,1,1,I,1,S,1,S,15,0.505522,0.784769,0.396718
8,126,8,1,9,8,1,C,7,L,1,S,10,0.791793,0.361367,0.286128
8,127,1,8,1,2,1,C,7,L,1,S,9,0.288039,0.840808,0.242185
8,128,8,2,1,9,1,I,6,S,8,L,12,0.755165,0.516453,0.390007
8,129,1,8,8,9,1,C,7,L,1,S,9,0.307955,0.815946,0.251274
8,130,8,1,9,2,1,C,7,L,7,L,9,0.83058,0.289304,0.24029
8,131,8,9,9,1,1,I,1,S,8,L,19,0.644108,0.76488,0.492665
8,132,9,2,9,2,1,C,7,L,7,L,9,0.852832,0.275106,0.234619
8,133,1,2,2,9,1,C,1,S,7,L,9,0.306806,0.805907,0.247257
8,134,2,1,9,8,1,C,1,S,1,S,14,0.753204,0.466057,0.351036
8,135,9,8,8,2,1,C,1,S,6,S,12,0.769076,0.42408,0.32615
8,136,2,1,1,9,1,I,1,S,8,L,21,0.754947,0.65201,0.492233
8,137,8,1,1,8,1,I,7,L,7,L,13,0.783115,0.542095,0.424523
8,138,8,2,9,1,1,C,6,S,8,L,8,0.75158,0.304284,0.228694
8,139,1,9,8,9,1,C,8,L,1,S,9,0.302522,0.82684,0.250138
8,140,1,2,8,9,1,C,1,S,1,S,10,0.376553,0.767506,0.289006
8,141,2,8,2,9,1,C,6,S,7,L,9,0.279446,0.842844,0.235529
8,142,2,9,9,1,1,I,7,L,8,L,12,0.55051,0.752426,0.414218
8,143,2,8,8,9,1,C,6,S,1,S,10,0.345659,0.809611,0.279849
8,144,8,9,1,2,1,C,1,S,1,S,11,0.412565,0.75072,0.309721
9,1,9,8,1,2,0,I,1,S,1,S,14,0.464253,0.772352,0.358567
9,2,9,1,2,8,1,I,8,L,6,S,11,0.796258,0.445483,0.354719
9,3,8,1,9,2,1,C,7,L,7,L,9,0.857014,0.268641,0.230229
9,4,1,2,1,9,1,C,1,S,8,L,10,0.342382,0.810072,0.277354
9,5,1,8,2,9,1,C,7,L,7,L,8,0.278228,0.793213,0.220694
9,6,8,2,1,9,1,I,6,S,8,L,11,0.757091,0.50592,0.383028
9,7,8,2,9,1,1,C,6,S,8,L,8,0.803657,0.266794,0.214411
9,8,8,2,8,9,1,I,6,S,1,S,9,0.756052,0.362217,0.273855
9,9,8,1,8,2,1,C,7,L,6,S,9,0.850268,0.27335,0.232421
9,10,2,9,2,9,1,C,7,L,7,L,9,0.301475,0.819021,0.246914
9,11,9,1,9,2,1,C,8,L,7,L,8,0.752333,0.301591,0.226897
9,12,1,2,9,1,1,I,1,S,8,L,20,0.642439,0.771977,0.495948
9,13,9,8,8,2,1,C,1,S,6,S,12,0.790394,0.412155,0.325765
9,14,8,9,9,8,1,I,1,S,1,S,19,0.545615,0.77654,0.423691
9,15,1,2,2,1,1,I,1,S,1,S,18,0.619529,0.758165,0.469705
9,16,2,8,8,2,1,I,6,S,6,S,12,0.507938,0.763754,0.38794
9,17,2,1,8,9,1,I,1,S,1,S,12,0.761955,0.450607,0.343343
9,18,2,8,2,1,1,I,6,S,1,S,12,0.490941,0.777523,0.381718
9,19,1,2,1,2,1,C,1,S,1,S,11,0.38251,0.782509,0.299317
9,20,2,1,9,8,1,C,1,S,1,S,11,0.773234,0.399758,0.309107
9,21,2,8,9,8,1,I,6,S,1,S,10,0.39419,0.761437,0.300151
9,22,9,2,8,2,1,C,7,L,6,S,8,0.761535,0.295813,0.225272
9,23,9,8,9,1,1,C,1,S,8,L,11,0.802929,0.38597,0.309906
9,24,1,9,2,8,1,C,8,L,6,S,8,0.283775,0.78592,0.223025
9,25,1,9,1,8,1,C,8,L,7,L,8,0.252642,0.825149,0.208467
9,26,8,1,8,9,1,I,7,L,1,S,10,0.809913,0.35904,0.290791
9,27,2,8,9,1,1,I,6,S,8,L,13,0.57117,0.756112,0.431868
9,28,8,1,8,1,1,C,7,L,7,L,8,0.784602,0.279361,0.219187
9,29,1,2,9,8,1,I,1,S,1,S,14,0.470275,0.772277,0.363183
9,30,1,9,9,8,1,I,8,L,1,S,9,0.330489,0.800033,0.264402
9,31,9,8,1,8,0,I,1,S,7,L,11,0.420916,0.763505,0.321371
9,32,2,1,2,9,1,I,1,S,7,L,15,0.753868,0.593819,0.447661
9,33,9,1,8,2,1,C,8,L,6,S,9,0.854644,0.270183,0.23091
9,34,9,1,9,8,1,C,8,L,1,S,9,0.774487,0.339373,0.26284
9,35,8,9,9,1,0,I,1,S,8,L,11,0.751397,0.438106,0.329192
9,36,1,2,8,2,1,I,1,S,6,S,19,0.61665,0.777289,0.479315
9,37,2,9,8,1,1,I,7,L,7,L,13,0.554573,0.774052,0.429269
9,38,9,1,9,1,1,C,8,L,8,L,8,0.792635,0.273815,0.217035
9,39,8,2,2,8,1,I,6,S,6,S,10,0.759623,0.433592,0.329366
9,40,1,9,1,9,1,C,8,L,8,L,8,0.245387,0.835125,0.204929
9,41,2,8,9,2,1,I,6,S,7,L,12,0.516899,0.757401,0.3915
9,42,8,2,1,2,1,I,6,S,1,S,10,0.778376,0.401015,0.31214
9,43,2,9,9,2,1,I,7,L,7,L,12,0.505377,0.771914,0.390107
9,44,8,9,2,8,1,C,1,S,6,S,11,0.4131,0.758359,0.313279
9,45,1,8,2,1,1,I,7,L,1,S,10,0.405652,0.794757,0.322395
9,46,9,2,8,1,1,C,7,L,7,L,8,0.803014,0.266966,0.214377
9,47,2,9,1,2,1,C,7,L,1,S,9,0.328933,0.775674,0.255144
9,48,8,2,2,9,1,I,6,S,7,L,11,0.794105,0.457608,0.363389
9,49,2,1,9,1,1,C,1,S,8,L,9,0.778669,0.330963,0.257711
9,50,8,1,2,9,1,I,7,L,7,L,11,0.77554,0.470444,0.364848
9,51,8,1,9,1,1,C,7,L,8,L,8,0.788811,0.276606,0.21819
9,52,1,8,9,1,1,I,7,L,8,L,11,0.486291,0.788609,0.383494
9,53,8,2,2,1,1,C,6,S,1,S,9,0.854968,0.272575,0.233043
9,54,9,1,8,9,1,I,8,L,1,S,10,0.814611,0.355616,0.289689
9,55,9,2,2,8,1,I,7,L,6,S,10,0.763865,0.430496,0.328841
9,56,1,9,2,9,1,C,8,L,7,L,8,0.273385,0.799204,0.218491
9,57,9,1,1,2,1,I,8,L,1,S,10,0.764974,0.40983,0.31351
9,58,9,2,2,1,1,C,7,L,1,S,8,0.7521,0.304447,0.228975
9,59,2,1,1,9,1,I,1,S,8,L,16,0.752377,0.624482,0.469846
9,60,2,8,2,9,1,C,6,S,7,L,9,0.310843,0.807321,0.25095
9,61,2,1,2,1,1,C,1,S,1,S,10,0.797391,0.348433,0.277837
9,62,8,2,8,2,1,C,6,S,6,S,8,0.757968,0.298396,0.226175
9,63,1,8,2,8,1,C,7,L,6,S,8,0.288617,0.779929,0.225101
9,64,1,9,8,9,1,C,8,L,1,S,9,0.299537,0.830945,0.248899
9,65,2,8,8,9,1,C,6,S,1,S,10,0.350572,0.805518,0.282392
9,66,9,2,1,2,1,I,7,L,1,S,10,0.782618,0.397919,0.311418
9,67,9,1,1,9,1,I,8,L,8,L,12,0.785282,0.517405,0.406308
9,68,9,2,9,2,1,C,7,L,7,L,8,0.766921,0.291987,0.223931
9,69,2,1,2,8,1,I,1,S,6,S,15,0.770375,0.573088,0.441493
9,70,1,9,2,1,1,I,8,L,1,S,10,0.400206,0.801476,0.320755
9,71,2,1,8,2,1,C,1,S,6,S,10,0.811928,0.336444,0.273168
9,72,9,2,9,8,1,C,7,L,1,S,9,0.791011,0.328411,0.259777
9,73,1,9,1,2,1,C,8,L,1,S,8,0.294524,0.765442,0.225441
9,74,8,9,8,2,0,I,1,S,6,S,14,0.764326,0.493845,0.377459
9,75,9,2,1,8,1,I,7,L,7,L,11,0.770595,0.490297,0.37782
9,76,2,9,1,9,1,C,7,L,8,L,8,0.305475,0.752097,0.229747
9,77,8,9,2,9,1,C,1,S,7,L,11,0.397199,0.779753,0.309717
9,78,1,8,8,1,1,I,7,L,7,L,11,0.48107,0.792203,0.381105
9,79,8,2,9,2,1,C,6,S,7,L,8,0.763354,0.29457,0.224861
9,80,1,2,2,9,1,C,1,S,7,L,10,0.377606,0.763681,0.288371
9,81,2,8,8,1,1,I,6,S,7,L,13,0.566126,0.759753,0.430116
9,82,9,8,9,2,1,C,1,S,7,L,12,0.799355,0.405802,0.32438
9,83,1,8,9,8,1,I,7,L,1,S,9,0.335726,0.793514,0.266404
9,84,9,8,9,8,1,C,1,S,1,S,16,0.772509,0.465403,0.359528
9,85,2,9,2,8,1,C,7,L,6,S,9,0.314138,0.802279,0.252027
9,86,1,8,9,2,1,I,7,L,7,L,10,0.428042,0.777316,0.332724
9,87,1,9,8,1,1,I,8,L,7,L,10,0.470141,0.751127,0.353136
9,88,8,1,1,9,1,I,7,L,8,L,12,0.780505,0.521016,0.406656
9,89,1,2,1,8,1,C,1,S,7,L,10,0.35123,0.797919,0.280253
9,90,8,1,2,8,1,I,7,L,6,S,11,0.791441,0.44905,0.355397
9,91,9,8,2,1,1,C,1,S,1,S,12,0.773397,0.425924,0.329408
9,92,9,1,2,1,1,C,8,L,1,S,9,0.842452,0.280643,0.236428
9,93,8,1,1,2,1,I,7,L,1,S,10,0.760276,0.413254,0.314187
9,94,8,9,1,2,1,C,1,S,1,S,12,0.410927,0.778349,0.319844
9,95,1,8,1,2,1,C,7,L,1,S,8,0.299366,0.759451,0.227354
9,96,2,1,1,2,1,I,1,S,1,S,14,0.765039,0.534414,0.408848
9,97,1,2,8,9,1,C,1,S,1,S,12,0.414446,0.774736,0.321087
9,98,1,2,8,1,1,I,1,S,7,L,20,0.63907,0.774592,0.495019
9,99,8,9,8,1,0,I,1,S,7,L,12,0.779782,0.441576,0.344333
9,100,1,2,9,2,1,I,1,S,7,L,19,0.623139,0.772067,0.481105
9,101,2,8,1,2,1,C,6,S,1,S,9,0.338301,0.763974,0.258453
9,102,8,1,1,8,1,I,7,L,7,L,12,0.789803,0.508718,0.401787
9,103,8,9,8,9,1,C,1,S,1,S,14,0.425272,0.797303,0.339071
9,104,2,9,1,8,1,C,7,L,7,L,9,0.277471,0.84992,0.235828
9,105,1,8,1,9,1,C,7,L,8,L,8,0.250229,0.829134,0.207474
9,106,1,9,9,1,1,I,8,L,8,L,11,0.480794,0.795278,0.382365
9,107,9,8,8,1,1,C,1,S,7,L,11,0.797707,0.389563,0.310757
9,108,9,2,8,9,1,I,7,L,1,S,9,0.760059,0.359323,0.273107
9,109,2,8,1,9,1,C,6,S,8,L,9,0.278633,0.84958,0.236721
9,110,1,8,8,9,1,C,7,L,1,S,9,0.304775,0.824427,0.251264
9,111,2,8,1,8,1,C,6,S,7,L,9,0.286839,0.83822,0.240434
9,112,9,1,8,1,1,C,8,L,7,L,8,0.788426,0.27657,0.218055
9,113,8,9,2,1,0,I,1,S,1,S,15,0.758728,0.519578,0.394219
9,114,1,9,9,2,1,I,8,L,7,L,10,0.422596,0.784035,0.33133
9,115,8,2,9,8,1,C,6,S,1,S,9,0.787004,0.331304,0.260738
9,116,9,1,2,9,1,I,8,L,7,L,11,0.780356,0.466877,0.36433
9,117,2,1,1,8,1,I,1,S,7,L,16,0.760526,0.614512,0.467353
9,118,9,8,1,9,0,I,1,S,8,L,11,0.411717,0.775929,0.319463
9,119,8,2,8,1,1,C,6,S,7,L,8,0.799448,0.269549,0.21549
9,120,8,9,1,9,1,C,1,S,8,L,10,0.382313,0.764847,0.292411
9,121,9,8,2,8,0,I,1,S,6,S,13,0.446092,0.784233,0.34984
9,122,2,9,2,1,1,I,7,L,1,S,12,0.479418,0.792035,0.379716
9,123,8,1,2,1,1,C,7,L,1,S,9,0.838076,0.28381,0.237854
9,124,9,8,8,9,1,I,1,S,1,S,26,0.753041,0.649965,0.489451
9,125,1,9,8,2,1,I,8,L,6,S,10,0.414742,0.789487,0.327433
9,126,2,1,9,2,1,C,1,S,7,L,10,0.819781,0.330992,0.271341
9,127,2,1,8,1,1,C,1,S,7,L,9,0.773896,0.334115,0.25857
9,128,9,8,2,9,0,I,1,S,7,L,12,0.43949,0.76961,0.338236
9,129,9,2,1,9,1,I,7,L,8,L,11,0.761395,0.502721,0.38277
9,130,2,9,8,9,1,C,7,L,1,S,10,0.340109,0.818826,0.27849
9,131,1,2,2,8,1,C,1,S,6,S,11,0.360276,0.820091,0.295459
9,132,2,9,8,2,1,I,7,L,6,S,12,0.496416,0.778266,0.386344
9,133,9,2,9,1,1,C,7,L,8,L,8,0.807223,0.264211,0.213277
9,134,8,9,1,8,1,C,1,S,7,L,10,0.391161,0.752694,0.294425
9,135,9,2,2,9,1,I,7,L,7,L,11,0.79841,0.454409,0.362804
9,136,8,2,1,8,1,I,6,S,7,L,11,0.76629,0.493496,0.378161
9,137,2,8,2,8,1,C,6,S,6,S,9,0.323506,0.79058,0.255758
9,138,8,1,9,8,1,C,7,L,1,S,9,0.770112,0.34254,0.263794
9,139,1,8,1,8,1,C,7,L,7,L,8,0.257484,0.819158,0.21092
9,140,8,9,9,2,0,I,1,S,7,L,13,0.755028,0.48065,0.362904
9,141,9,1,1,8,1,I,8,L,7,L,11,0.752541,0.502765,0.378351
9,142,2,9,9,8,1,I,7,L,1,S,10,0.383728,0.774744,0.297291
9,143,1,8,8,2,1,I,7,L,6,S,10,0.420188,0.782768,0.32891
9,144,2,9,9,1,1,I,7,L,8,L,13,0.559617,0.770411,0.431135
10,1,8,1,9,2,1,C,7,L,7,L,8,0.769185,0.291957,0.224569
10,2,8,1,1,8,1,I,7,L,7,L,12,0.773395,0.52962,0.409605
10,3,1,9,8,2,1,I,8,L,6,S,10,0.451386,0.764187,0.344943
10,4,9,2,8,9,1,I,7,L,1,S,9,0.762888,0.350181,0.267149
10,5,8,1,2,9,1,I,7,L,7,L,11,0.754589,0.495832,0.37415
10,6,2,1,2,9,0,I,1,S,7,L,12,0.44915,0.767364,0.344661
10,7,8,2,1,9,1,I,6,S,8,L,12,0.774661,0.527264,0.408451
10,8,1,2,1,2,1,C,1,S,1,S,10,0.378608,0.753955,0.285453
10,9,1,9,1,9,1,C,8,L,8,L,8,0.2454,0.836197,0.205203
10,10,1,8,8,2,1,I,7,L,6,S,10,0.456552,0.759803,0.346889
10,11,1,2,9,2,1,I,1,S,7,L,15,0.594592,0.762291,0.453252
10,12,1,2,2,8,1,C,1,S,6,S,9,0.338149,0.764539,0.258528
10,13,2,9,2,8,1,C,7,L,6,S,9,0.281256,0.847477,0.238358
10,14,2,8,2,8,1,C,6,S,6,S,9,0.28982,0.838995,0.243158
10,15,9,2,2,8,1,I,7,L,6,S,11,0.776057,0.473893,0.367768
10,16,8,9,8,1,0,I,1,S,7,L,11,0.760448,0.422158,0.321029
10,17,2,1,2,8,0,I,1,S,6,S,12,0.453236,0.762407,0.34555
10,18,9,8,8,9,1,I,1,S,1,S,13,0.753202,0.458139,0.345071
10,19,8,1,8,2,1,C,7,L,6,S,8,0.761843,0.298766,0.227612
10,20,1,9,1,2,1,C,8,L,1,S,9,0.289819,0.837791,0.242807
10,21,2,1,2,1,1,C,1,S,1,S,14,0.751586,0.466459,0.350584
10,22,9,8,8,2,1,C,1,S,6,S,10,0.7826,0.365482,0.286026
10,23,9,8,2,8,1,I,1,S,6,S,20,0.77766,0.633639,0.492755
10,24,8,1,9,8,1,C,7,L,1,S,9,0.772464,0.340242,0.262825
10,25,9,8,2,9,1,I,1,S,7,L,20,0.77503,0.636354,0.493194
10,26,1,9,2,1,1,I,8,L,1,S,9,0.332731,0.797147,0.265235
10,27,2,9,1,8,1,C,7,L,7,L,8,0.296018,0.766781,0.226981
10,28,2,8,9,2,1,I,6,S,7,L,12,0.537897,0.755567,0.406418
10,29,9,1,9,1,1,C,8,L,8,L,8,0.776845,0.285926,0.22212
10,30,2,1,8,2,1,C,1,S,6,S,11,0.795043,0.38984,0.30994
10,31,8,2,2,1,1,C,6,S,1,S,9,0.767825,0.34351,0.263756
10,32,1,8,2,9,1,C,7,L,7,L,8,0.270096,0.805884,0.217666
10,33,9,8,9,1,1,C,1,S,8,L,10,0.787578,0.361723,0.284885
10,34,9,1,8,1,1,C,8,L,7,L,8,0.769068,0.29314,0.225444
10,35,2,8,2,1,1,I,6,S,1,S,10,0.381603,0.782795,0.298717
10,36,1,9,2,8,1,C,8,L,6,S,8,0.268065,0.806602,0.216222
10,37,9,2,1,2,1,I,7,L,1,S,10,0.806198,0.361381,0.291344
10,38,9,8,8,1,1,C,1,S,7,L,10,0.777699,0.370359,0.288028
10,39,8,2,2,8,1,I,6,S,6,S,11,0.762842,0.485193,0.370126
10,40,1,8,9,1,1,I,7,L,8,L,10,0.461529,0.756044,0.348937
10,41,8,2,9,8,1,C,6,S,1,S,9,0.776547,0.334555,0.259798
10,42,9,2,8,1,1,C,7,L,7,L,8,0.772107,0.288254,0.222563
10,43,8,9,2,1,0,I,1,S,1,S,17,0.760968,0.495068,0.376731
10,44,8,9,1,9,1,C,1,S,8,L,11,0.398444,0.791261,0.315273
10,45,9,8,1,8,1,I,1,S,7,L,20,0.758898,0.655253,0.49727
10,46,9,8,1,2,1,I,1,S,1,S,16,0.769967,0.535427,0.412261
10,47,2,8,1,9,1,C,6,S,8,L,8,0.301427,0.762305,0.229779
10,48,9,1,9,2,1,C,8,L,7,L,8,0.780251,0.282148,0.220146
10,49,2,1,8,1,1,C,1,S,7,L,11,0.790034,0.394807,0.311911
10,50,9,2,1,8,1,I,7,L,7,L,12,0.790339,0.512834,0.405313
10,51,1,8,1,9,1,C,7,L,8,L,8,0.250382,0.832088,0.20834
10,52,9,1,1,8,1,I,8,L,7,L,12,0.787243,0.517618,0.407491
10,53,2,9,9,8,1,I,7,L,1,S,10,0.38498,0.780009,0.300288
10,54,9,2,2,1,1,C,7,L,1,S,9,0.779954,0.333127,0.259824
10,55,1,9,8,1,1,I,8,L,7,L,10,0.446486,0.769064,0.343376
10,56,1,9,9,1,1,I,8,L,8,L,10,0.456364,0.760428,0.347032
10,57,8,9,8,2,0,I,1,S,6,S,11,0.765457,0.417191,0.319342
10,58,9,1,8,2,1,C,8,L,6,S,8,0.772909,0.288956,0.223337
10,59,2,1,9,1,1,C,1,S,8,L,11,0.800186,0.385912,0.308801
10,60,9,2,9,2,1,C,7,L,7,L,8,0.78329,0.277262,0.217176
10,61,8,9,9,8,0,I,1,S,1,S,16,0.775576,0.476489,0.369553
10,62,9,8,1,9,1,I,1,S,8,L,20,0.757266,0.65686,0.497417
10,63,9,1,1,2,1,I,8,L,1,S,10,0.802668,0.366534,0.294205
10,64,2,8,9,1,1,I,6,S,8,L,12,0.533878,0.759778,0.405629
10,65,1,8,2,8,1,C,7,L,6,S,8,0.273047,0.802493,0.219119
10,66,8,2,9,1,1,C,6,S,8,L,8,0.769308,0.29039,0.2234
10,67,9,1,1,9,1,I,8,L,8,L,12,0.784529,0.520777,0.408565
10,68,9,2,1,9,1,I,7,L,8,L,12,0.787626,0.515994,0.40641
10,69,2,9,2,9,1,C,7,L,7,L,9,0.277824,0.8516,0.236595
10,70,9,2,2,9,1,I,7,L,7,L,11,0.772057,0.478797,0.369659
10,71,1,8,2,1,1,I,7,L,1,S,9,0.337892,0.792766,0.267869
10,72,8,1,9,1,1,C,7,L,8,L,8,0.765779,0.295735,0.226468
10,73,1,8,8,9,1,C,7,L,1,S,9,0.320826,0.80982,0.259811
10,74,2,9,9,1,1,I,7,L,8,L,12,0.524604,0.769204,0.403528
10,75,1,8,9,8,1,I,7,L,1,S,9,0.346614,0.783811,0.27168
10,76,9,8,9,8,1,C,1,S,1,S,12,0.776137,0.414396,0.321628
10,77,2,8,8,1,1,I,6,S,7,L,12,0.523859,0.768677,0.402678
10,78,2,1,1,8,0,I,1,S,7,L,11,0.430757,0.760678,0.327667
10,79,9,8,2,1,1,C,1,S,1,S,12,0.753215,0.434392,0.327191
10,80,8,1,1,2,1,I,7,L,1,S,10,0.788901,0.378211,0.298371
10,81,1,2,8,9,1,C,1,S,1,S,11,0.39215,0.785059,0.307861
10,82,2,9,9,2,1,I,7,L,7,L,12,0.528624,0.764994,0.404394
10,83,9,2,8,2,1,C,7,L,6,S,8,0.775948,0.284071,0.220424
10,84,2,8,2,9,1,C,6,S,7,L,9,0.286387,0.843118,0.241458
10,85,8,2,8,2,1,C,6,S,6,S,8,0.765372,0.293421,0.224576
10,86,8,2,1,2,1,I,6,S,1,S,10,0.793213,0.372404,0.295396
10,87,8,9,1,8,1,C,1,S,7,L,11,0.401171,0.788029,0.316134
10,88,2,8,8,9,1,C,6,S,1,S,10,0.357122,0.806746,0.288107
10,89,9,2,9,1,1,C,7,L,8,L,8,0.779884,0.28104,0.219179
10,90,2,8,8,2,1,I,6,S,6,S,12,0.528757,0.763761,0.403844
10,91,9,2,9,8,1,C,7,L,1,S,9,0.788676,0.324172,0.255667
10,92,1,8,1,2,1,C,7,L,1,S,9,0.29498,0.833409,0.245839
10,93,2,1,1,2,1,I,1,S,1,S,23,0.759832,0.630997,0.479451
10,94,9,8,9,2,1,C,1,S,7,L,10,0.79173,0.357455,0.283008
10,95,8,9,2,8,1,C,1,S,6,S,11,0.428438,0.751769,0.322087
10,96,1,2,2,9,1,C,1,S,7,L,9,0.334716,0.768662,0.257284
10,97,1,2,1,9,1,C,1,S,8,L,9,0.312043,0.799257,0.249402
10,98,8,9,1,2,1,C,1,S,1,S,15,0.471789,0.762341,0.359664
10,99,2,1,9,8,1,C,1,S,1,S,14,0.786678,0.438134,0.34467
10,100,9,1,8,9,1,I,8,L,1,S,9,0.759462,0.355298,0.269835
10,101,8,2,2,9,1,I,6,S,7,L,11,0.758842,0.490098,0.371907
10,102,8,2,1,8,1,I,6,S,7,L,12,0.777374,0.524105,0.407425
10,103,1,2,8,1,1,I,1,S,7,L,15,0.58325,0.77374,0.451284
10,104,2,9,8,2,1,I,7,L,6,S,12,0.519483,0.773187,0.401658
10,105,8,1,1,9,1,I,7,L,8,L,12,0.770682,0.532779,0.410603
10,106,2,9,8,1,1,I,7,L,7,L,12,0.514585,0.778103,0.4004
10,107,2,1,9,2,1,C,1,S,7,L,11,0.804357,0.381616,0.306956
10,108,9,1,2,8,1,I,8,L,6,S,11,0.77266,0.478921,0.370043
10,109,1,2,9,8,1,I,1,S,1,S,12,0.43427,0.786053,0.341359
10,110,2,8,9,8,1,I,6,S,1,S,10,0.394084,0.770715,0.303726
10,111,9,1,2,1,1,C,8,L,1,S,9,0.776528,0.338244,0.262656
10,112,8,2,8,1,1,C,6,S,7,L,8,0.761531,0.297604,0.226635
10,113,2,8,1,2,1,C,6,S,1,S,9,0.352713,0.754012,0.26595
10,114,1,2,1,8,1,C,1,S,7,L,9,0.314565,0.796245,0.250471
10,115,1,9,2,9,1,C,8,L,7,L,8,0.265114,0.809993,0.214741
10,116,1,9,9,2,1,I,8,L,7,L,10,0.460516,0.75616,0.348224
10,117,8,9,8,9,1,C,1,S,1,S,23,0.482871,0.774232,0.373854
10,118,9,1,9,8,1,C,8,L,1,S,9,0.78525,0.329289,0.258575
10,119,8,9,2,9,1,C,1,S,7,L,11,0.424439,0.756673,0.321161
10,120,2,9,8,9,1,C,7,L,1,S,10,0.348018,0.816039,0.283996
10,121,2,9,1,9,1,C,7,L,8,L,8,0.293737,0.769438,0.226013
10,122,1,9,8,9,1,C,8,L,1,S,9,0.315665,0.814201,0.257014
10,123,8,1,2,1,1,C,7,L,1,S,9,0.763742,0.349197,0.266696
10,124,8,1,2,8,1,I,7,L,6,S,11,0.758589,0.490928,0.372412
10,125,1,2,9,1,1,I,1,S,8,L,15,0.591547,0.765834,0.453027
10,126,1,2,8,2,1,I,1,S,6,S,15,0.587105,0.769513,0.451785
10,127,1,8,8,1,1,I,7,L,7,L,10,0.451651,0.76468,0.345368
10,128,8,1,8,9,1,I,7,L,1,S,10,0.824209,0.344079,0.283593
10,129,1,9,1,8,1,C,8,L,7,L,8,0.24768,0.83354,0.206451
10,130,8,2,8,9,1,I,6,S,1,S,9,0.750758,0.360564,0.270697
10,131,1,8,1,8,1,C,7,L,7,L,8,0.252663,0.829431,0.209566
10,132,1,9,9,8,1,I,8,L,1,S,9,0.341453,0.788192,0.269131
10,133,2,9,2,1,1,I,7,L,1,S,10,0.372499,0.792089,0.295052
10,134,2,1,1,9,0,I,1,S,8,L,11,0.42803,0.76391,0.326976
10,135,1,8,9,2,1,I,7,L,7,L,10,0.465682,0.751776,0.350088
10,136,8,1,8,1,1,C,7,L,7,L,8,0.758002,0.302949,0.229636
10,137,2,8,1,8,1,C,6,S,7,L,8,0.303708,0.759647,0.230711
10,138,1,2,2,1,1,I,1,S,1,S,11,0.426586,0.752079,0.320826
10,139,8,9,9,1,0,I,1,S,8,L,11,0.7706,0.413263,0.31846
10,140,2,9,1,2,1,C,7,L,1,S,9,0.344149,0.762494,0.262412
10,141,8,2,9,2,1,C,6,S,7,L,8,0.772714,0.286613,0.22147
10,142,9,1,2,9,1,I,8,L,7,L,11,0.76866,0.483825,0.371897
10,143,8,9,9,2,0,I,1,S,7,L,11,0.774771,0.408967,0.316856
10,144,2,1,8,9,1,I,1,S,1,S,17,0.761249,0.487998,0.371488
11,1,1,8,8,9,1,C,7,L,1,S,10,0.356941,0.801735,0.286172
11,2,1,9,9,1,1,I,8,L,8,L,12,0.529103,0.783169,0.414378
11,3,9,8,2,1,1,C,1,S,1,S,12,0.784925,0.422725,0.331807
11,4,2,1,9,1,1,C,1,S,8,L,9,0.768209,0.343804,0.264113
11,5,1,8,1,2,1,C,7,L,1,S,9,0.352793,0.754207,0.266079
11,6,2,8,1,8,1,C,6,S,7,L,9,0.31806,0.795608,0.253051
11,7,8,1,1,2,1,I,7,L,1,S,10,0.788936,0.386075,0.304589
11,8,1,8,2,1,1,I,7,L,1,S,10,0.354629,0.804015,0.285127
11,9,8,9,1,8,1,C,1,S,7,L,10,0.382995,0.764921,0.292961
11,10,1,9,9,2,1,I,8,L,7,L,12,0.52262,0.788202,0.41193
11,11,1,9,1,2,1,C,8,L,1,S,9,0.317814,0.801576,0.254752
11,12,9,8,8,1,1,C,1,S,7,L,9,0.762675,0.346322,0.264131
11,13,9,2,2,1,1,C,7,L,1,S,9,0.754679,0.360058,0.271728
11,14,8,9,1,9,1,C,1,S,8,L,10,0.371817,0.78143,0.290549
11,15,9,8,9,2,1,C,1,S,7,L,9,0.779217,0.335159,0.261161
11,16,8,1,9,8,1,C,7,L,1,S,9,0.819152,0.303186,0.248355
11,17,2,1,2,9,1,I,1,S,7,L,18,0.777546,0.626028,0.486765
11,18,8,2,9,2,1,C,6,S,7,L,8,0.778026,0.288817,0.224707
11,19,2,1,8,2,1,C,1,S,6,S,10,0.822973,0.335012,0.275706
11,20,2,9,1,2,1,C,7,L,1,S,9,0.348169,0.757749,0.263824
11,21,9,2,1,8,1,I,7,L,7,L,11,0.7544,0.503183,0.379601
11,22,1,8,8,2,1,I,7,L,6,S,12,0.537077,0.753801,0.404849
11,23,9,8,8,9,1,I,1,S,1,S,12,0.789235,0.418255,0.330102
11,24,2,1,2,1,1,C,1,S,1,S,12,0.75232,0.446441,0.335866
11,25,2,9,2,8,1,C,7,L,6,S,9,0.278406,0.847258,0.235881
11,26,2,8,2,1,1,I,6,S,1,S,11,0.375078,0.809023,0.303447
11,27,1,2,1,2,1,C,1,S,1,S,13,0.431144,0.77908,0.335896
11,28,1,9,8,2,1,I,8,L,6,S,11,0.49391,0.765411,0.378045
11,29,2,9,1,8,1,C,7,L,7,L,9,0.272832,0.855222,0.233332
11,30,8,9,8,2,0,I,1,S,6,S,13,0.763135,0.492315,0.375703
11,31,2,1,9,8,1,C,1,S,1,S,11,0.830649,0.35208,0.292455
11,32,9,8,2,8,1,I,1,S,6,S,16,0.76123,0.61302,0.466649
11,33,8,9,9,1,0,I,1,S,8,L,12,0.77688,0.456963,0.355005
11,34,8,2,2,9,1,I,6,S,7,L,12,0.766591,0.53244,0.408164
11,35,1,9,8,9,1,C,8,L,1,S,9,0.344607,0.771935,0.266014
11,36,8,2,1,2,1,I,6,S,1,S,10,0.773176,0.395714,0.305957
11,37,2,8,8,2,1,I,6,S,6,S,14,0.587649,0.752802,0.442383
11,38,2,1,2,8,1,I,1,S,6,S,17,0.757301,0.627555,0.475248
11,39,2,9,8,9,1,C,7,L,1,S,10,0.352095,0.805649,0.283665
11,40,1,2,1,8,1,C,1,S,7,L,11,0.375863,0.810893,0.304784
11,41,1,2,8,2,0,I,1,S,6,S,12,0.768958,0.451378,0.34709
11,42,1,2,1,9,1,C,1,S,8,L,10,0.385608,0.765341,0.295122
11,43,1,8,2,9,1,C,7,L,7,L,8,0.308347,0.750745,0.23149
11,44,2,1,1,2,1,I,1,S,1,S,14,0.767953,0.511788,0.393029
11,45,9,2,1,9,1,I,7,L,8,L,12,0.784869,0.522062,0.40975
11,46,9,1,8,1,1,C,8,L,7,L,8,0.793346,0.278672,0.221083
11,47,9,1,9,2,1,C,8,L,7,L,8,0.807908,0.268897,0.217244
11,48,9,8,9,1,1,C,1,S,8,L,9,0.785475,0.330541,0.259631
11,49,1,8,9,8,1,I,7,L,1,S,11,0.453121,0.769668,0.348753
11,50,2,8,8,9,1,C,6,S,1,S,11,0.378258,0.805806,0.304803
11,51,1,9,1,9,1,C,8,L,8,L,8,0.273755,0.797331,0.218273
11,52,8,9,1,2,1,C,1,S,1,S,12,0.433656,0.754746,0.3273
11,53,9,8,9,8,1,C,1,S,1,S,10,0.772036,0.370662,0.286164
11,54,1,2,2,1,1,I,1,S,1,S,15,0.45252,0.776917,0.351571
11,55,9,1,8,2,1,C,8,L,6,S,8,0.786665,0.283705,0.223181
11,56,9,1,2,8,1,I,8,L,6,S,11,0.775435,0.485089,0.376155
11,57,8,1,8,2,1,C,7,L,6,S,8,0.769119,0.296475,0.228025
11,58,2,8,9,8,1,I,6,S,1,S,13,0.505945,0.780145,0.394711
11,59,9,8,8,2,1,C,1,S,6,S,9,0.754914,0.35208,0.26579
11,60,1,2,2,8,1,C,1,S,6,S,11,0.382331,0.801857,0.306575
11,61,8,9,2,9,1,C,1,S,7,L,10,0.37707,0.773952,0.291834
11,62,9,8,1,9,1,I,1,S,8,L,17,0.776642,0.620443,0.481862
11,63,9,2,1,2,1,I,7,L,1,S,10,0.796303,0.378894,0.301714
11,64,8,1,2,1,1,C,7,L,1,S,10,0.82353,0.346653,0.28548
11,65,2,8,9,1,1,I,6,S,8,L,15,0.609085,0.763564,0.465076
11,66,9,2,9,1,1,C,7,L,8,L,8,0.802021,0.271223,0.217527
11,67,8,1,9,2,1,C,7,L,7,L,8,0.790363,0.281667,0.222619
11,68,2,8,9,2,1,I,6,S,7,L,15,0.603555,0.768118,0.463602
11,69,2,8,2,9,1,C,6,S,7,L,9,0.312681,0.803961,0.251384
11,70,1,2,9,8,1,I,1,S,1,S,23,0.647551,0.762101,0.4935
11,71,9,1,2,1,1,C,8,L,1,S,9,0.767806,0.352419,0.27059
11,72,2,9,8,1,1,I,7,L,7,L,12,0.54095,0.751049,0.40628
11,73,8,1,2,8,1,I,7,L,6,S,11,0.753438,0.501408,0.37778
11,74,2,8,8,1,1,I,6,S,7,L,15,0.587707,0.780204,0.458531
11,75,8,2,2,1,1,C,6,S,1,S,10,0.807771,0.356292,0.287802
11,76,9,8,2,9,1,I,1,S,7,L,17,0.781285,0.614638,0.480207
11,77,9,2,9,2,1,C,7,L,7,L,8,0.796392,0.275387,0.219316
11,78,8,2,8,2,1,C,6,S,6,S,8,0.756782,0.303626,0.229778
11,79,8,1,8,9,1,I,7,L,1,S,10,0.825842,0.344373,0.284398
11,80,2,1,8,1,1,C,1,S,7,L,10,0.831401,0.328747,0.273321
11,81,8,9,2,8,1,C,1,S,6,S,10,0.389122,0.756224,0.294263
11,82,8,2,1,9,1,I,6,S,8,L,12,0.761047,0.540001,0.410967
11,83,8,1,1,8,1,I,7,L,7,L,12,0.78964,0.512316,0.404545
11,84,1,9,9,8,1,I,8,L,1,S,10,0.414362,0.770241,0.319158
11,85,2,9,2,1,1,I,7,L,1,S,10,0.349783,0.807929,0.2826
11,86,2,9,9,2,1,I,7,L,7,L,13,0.55721,0.776413,0.432626
11,87,1,9,2,9,1,C,8,L,7,L,8,0.278042,0.791143,0.219971
11,88,9,8,1,2,1,I,1,S,1,S,13,0.766843,0.489452,0.375333
11,89,1,9,1,8,1,C,8,L,7,L,8,0.282673,0.783879,0.221582
11,90,9,2,8,9,1,I,7,L,1,S,9,0.756332,0.358473,0.271125
11,91,8,9,9,2,0,I,1,S,7,L,12,0.770396,0.461995,0.355919
11,92,9,1,2,9,1,I,8,L,7,L,11,0.762698,0.503456,0.383985
11,93,2,1,1,9,1,I,1,S,8,L,18,0.773177,0.631445,0.488219
11,94,8,9,8,1,0,I,1,S,7,L,12,0.752411,0.474895,0.357316
11,95,2,9,1,9,1,C,7,L,8,L,8,0.299842,0.75984,0.227832
11,96,8,1,8,1,1,C,7,L,7,L,8,0.775801,0.291442,0.226101
11,97,9,1,9,8,1,C,8,L,1,S,9,0.839196,0.288684,0.242262
11,98,9,1,8,9,1,I,8,L,1,S,9,0.769459,0.350834,0.269953
11,99,1,8,1,9,1,C,7,L,8,L,8,0.30406,0.756932,0.230153
11,100,9,2,2,9,1,I,7,L,7,L,12,0.790412,0.5145,0.406667
11,101,8,2,9,1,1,C,6,S,8,L,8,0.783655,0.284654,0.22307
11,102,8,9,8,9,1,C,1,S,1,S,14,0.450239,0.77132,0.347278
11,103,2,8,1,9,1,C,6,S,8,L,9,0.30782,0.810971,0.249633
11,104,1,2,9,1,0,I,1,S,8,L,11,0.767806,0.428086,0.328687
11,105,9,1,1,2,1,I,8,L,1,S,10,0.810425,0.370399,0.30018
11,106,8,2,8,9,1,I,6,S,1,S,10,0.810083,0.354012,0.286779
11,107,8,1,9,1,1,C,7,L,8,L,8,0.795992,0.277503,0.22089
11,108,2,8,1,2,1,C,6,S,1,S,10,0.367033,0.777903,0.285516
11,109,9,1,1,9,1,I,8,L,8,L,11,0.757225,0.511092,0.387012
11,110,2,1,1,8,1,I,1,S,7,L,17,0.751651,0.634592,0.476991
11,111,2,9,9,8,1,I,7,L,1,S,11,0.448227,0.773686,0.346787
11,112,8,1,2,9,1,I,7,L,7,L,12,0.783209,0.52165,0.408561
11,113,9,1,9,1,1,C,8,L,8,L,8,0.813538,0.264733,0.21537
11,114,9,2,8,1,1,C,7,L,7,L,8,0.78183,0.285162,0.222948
11,115,1,2,8,1,0,I,1,S,7,L,12,0.777629,0.444723,0.345829
11,116,2,1,9,2,1,C,1,S,7,L,9,0.761951,0.348421,0.26548
11,117,1,8,9,2,1,I,7,L,7,L,13,0.561801,0.772784,0.434151
11,118,9,8,1,8,1,I,1,S,7,L,16,0.75526,0.620557,0.468682
11,119,2,1,8,9,1,I,1,S,1,S,12,0.75663,0.441971,0.334408
11,120,1,2,9,2,0,I,1,S,7,L,11,0.761186,0.433117,0.329683
11,121,2,9,2,9,1,C,7,L,7,L,8,0.304129,0.753652,0.229208
11,122,9,2,2,8,1,I,7,L,6,S,11,0.760869,0.494146,0.375981
11,123,1,8,9,1,1,I,7,L,8,L,13,0.568026,0.767848,0.436158
11,124,1,9,2,8,1,C,8,L,6,S,8,0.287486,0.777054,0.223392
11,125,1,9,8,1,1,I,8,L,7,L,11,0.502615,0.758856,0.381413
11,126,8,1,1,9,1,I,7,L,8,L,12,0.777665,0.529211,0.411549
11,127,8,2,8,1,1,C,6,S,7,L,8,0.763464,0.298592,0.227964
11,128,8,2,1,8,1,I,6,S,7,L,12,0.773021,0.523107,0.404373
11,129,1,9,2,1,1,I,8,L,1,S,9,0.342954,0.77352,0.265282
11,130,1,2,2,9,1,C,1,S,7,L,10,0.390862,0.757863,0.29622
11,131,8,2,2,8,1,I,6,S,6,S,12,0.77964,0.514052,0.400776
11,132,9,2,8,2,1,C,7,L,6,S,8,0.775148,0.290196,0.224945
11,133,2,9,9,1,1,I,7,L,8,L,13,0.563435,0.771477,0.434677
11,134,1,8,8,1,1,I,7,L,7,L,13,0.544329,0.785607,0.427629
11,135,1,2,8,9,1,C,1,S,1,S,15,0.462236,0.765906,0.354029
11,136,1,8,1,8,1,C,7,L,7,L,9,0.277456,0.85168,0.236304
11,137,8,9,9,8,1,I,1,S,1,S,21,0.626514,0.776038,0.486199
11,138,9,1,1,8,1,I,8,L,7,L,11,0.768966,0.494125,0.379966
11,139,8,9,2,1,1,I,1,S,1,S,14,0.442686,0.779603,0.34512
11,140,8,2,9,8,1,C,6,S,1,S,9,0.804763,0.311741,0.250878
11,141,2,9,8,2,1,I,7,L,6,S,12,0.532279,0.757704,0.40331
11,142,1,8,2,8,1,C,7,L,6,S,9,0.28303,0.843716,0.238797
11,143,9,2,9,8,1,C,7,L,1,S,9,0.826069,0.296322,0.244783
11,144,2,8,2,8,1,C,6,S,6,S,9,0.323634,0.787644,0.254908
12,1,1,9,8,9,1,C,8,L,1,S,9,0.330329,0.79031,0.261063
12,2,8,1,9,2,1,C,7,L,7,L,9,0.8538,0.275733,0.235421
12,3,2,1,9,2,1,C,1,S,7,L,11,0.780105,0.39627,0.309132
12,4,1,9,2,1,1,I,8,L,1,S,10,0.392266,0.793977,0.31145
12,5,1,8,1,2,1,C,7,L,1,S,9,0.281933,0.841514,0.237251
12,6,8,1,1,2,1,I,7,L,1,S,10,0.767125,0.410696,0.315055
12,7,8,9,1,9,1,C,1,S,8,L,12,0.435984,0.777019,0.338768
12,8,1,2,2,1,1,I,1,S,1,S,13,0.502675,0.774645,0.389395
12,9,1,2,2,8,1,C,1,S,6,S,10,0.322776,0.829725,0.267815
12,10,8,9,8,9,0,C,1,S,1,S,20,0.774462,0.524166,0.405947
12,11,9,8,2,8,0,I,1,S,6,S,14,0.503256,0.753768,0.379338
12,12,2,1,2,8,1,I,1,S,6,S,22,0.761428,0.646866,0.492541
12,13,1,2,8,1,1,I,1,S,7,L,15,0.584383,0.775244,0.45304
12,14,1,8,2,1,1,I,7,L,1,S,10,0.390694,0.793706,0.310096
12,15,8,2,8,1,1,C,6,S,7,L,9,0.846306,0.278115,0.23537
12,16,8,2,9,2,1,C,6,S,7,L,9,0.816716,0.300735,0.245615
12,17,8,9,8,1,0,I,1,S,7,L,11,0.788702,0.393561,0.310402
12,18,9,1,8,2,1,C,8,L,6,S,9,0.843768,0.285978,0.241299
12,19,2,8,2,1,1,I,6,S,1,S,11,0.427816,0.791772,0.338733
12,20,1,9,8,1,1,I,8,L,7,L,11,0.476067,0.785181,0.373799
12,21,9,8,1,8,0,I,1,S,7,L,12,0.462427,0.750781,0.347181
12,22,9,2,9,2,1,C,7,L,7,L,9,0.829486,0.294153,0.243995
12,23,8,2,1,8,1,I,6,S,7,L,12,0.763794,0.517728,0.395438
12,24,9,2,1,9,1,I,7,L,8,L,12,0.775244,0.515322,0.3995
12,25,2,8,8,9,1,C,6,S,1,S,10,0.340379,0.817963,0.278417
12,26,2,9,1,9,1,C,7,L,8,L,9,0.272312,0.85371,0.232475
12,27,9,1,2,9,1,I,8,L,7,L,10,0.751003,0.444227,0.333616
12,28,1,2,1,8,1,C,1,S,7,L,9,0.332529,0.770244,0.256129
12,29,1,8,1,8,1,C,7,L,7,L,8,0.277505,0.785084,0.217865
12,30,9,8,1,9,0,I,1,S,8,L,12,0.458205,0.757581,0.347127
12,31,8,2,8,2,1,C,6,S,6,S,9,0.795404,0.316544,0.251781
12,32,8,2,1,9,1,I,6,S,8,L,12,0.759573,0.524527,0.398417
12,33,8,1,2,1,1,C,7,L,1,S,9,0.816722,0.30227,0.24687
12,34,9,1,1,9,1,I,8,L,8,L,11,0.772581,0.485089,0.37477
12,35,2,9,9,8,1,I,7,L,1,S,10,0.388839,0.773316,0.300695
12,36,1,8,9,1,1,I,7,L,8,L,11,0.491298,0.772875,0.379712
12,37,1,2,1,2,1,C,1,S,1,S,10,0.346195,0.797764,0.276182
12,38,1,9,9,8,1,I,8,L,1,S,9,0.362752,0.758608,0.275187
12,39,9,1,1,8,1,I,8,L,7,L,11,0.776572,0.478451,0.371552
12,40,2,1,1,9,0,I,1,S,8,L,13,0.479616,0.766909,0.367822
12,41,8,1,9,1,1,C,7,L,8,L,8,0.783164,0.282906,0.221562
12,42,9,2,9,1,1,C,7,L,8,L,8,0.76236,0.298974,0.227926
12,43,8,1,9,8,1,C,7,L,1,S,9,0.784949,0.329348,0.258522
12,44,2,9,2,9,1,C,7,L,7,L,9,0.296315,0.822438,0.243701
12,45,9,2,9,8,1,C,7,L,1,S,9,0.760635,0.347768,0.264525
12,46,1,8,2,8,1,C,7,L,6,S,8,0.298239,0.759172,0.226415
12,47,2,8,8,2,1,I,6,S,6,S,11,0.450945,0.776133,0.349993
12,48,2,8,9,1,1,I,6,S,8,L,12,0.534194,0.758726,0.405307
12,49,9,8,9,8,1,C,1,S,1,S,13,0.761838,0.44245,0.337075
12,50,1,2,9,2,1,I,1,S,7,L,14,0.557703,0.768754,0.428737
12,51,2,9,8,9,1,C,7,L,1,S,10,0.342765,0.817361,0.280162
12,52,9,8,1,2,1,I,1,S,1,S,23,0.77499,0.633023,0.490587
12,53,9,2,1,8,1,I,7,L,7,L,12,0.779465,0.508522,0.396375
12,54,9,2,8,1,1,C,7,L,7,L,9,0.859076,0.271532,0.233267
12,55,2,1,8,9,1,I,1,S,1,S,16,0.769871,0.483213,0.372012
12,56,9,1,8,1,1,C,8,L,7,L,8,0.780128,0.287364,0.224181
12,57,8,9,2,8,1,C,1,S,6,S,13,0.467187,0.760543,0.355316
12,58,1,9,2,9,1,C,8,L,7,L,8,0.296895,0.764463,0.226965
12,59,9,8,2,9,0,I,1,S,7,L,14,0.496651,0.763501,0.379193
12,60,1,2,2,9,1,C,1,S,7,L,10,0.317835,0.837685,0.266246
12,61,1,8,9,8,1,I,7,L,1,S,9,0.361044,0.758462,0.273838
12,62,1,9,1,8,1,C,8,L,7,L,8,0.279289,0.785163,0.219287
12,63,9,8,9,1,1,C,1,S,8,L,10,0.758831,0.388957,0.295153
12,64,2,1,8,2,1,C,1,S,6,S,11,0.751614,0.41695,0.313385
12,65,1,2,9,8,1,I,1,S,1,S,12,0.438596,0.784874,0.344243
12,66,8,1,8,1,1,C,7,L,7,L,8,0.7703,0.29189,0.224843
12,67,2,9,2,1,1,I,7,L,1,S,11,0.430069,0.791287,0.340308
12,68,9,2,8,2,1,C,7,L,6,S,9,0.808175,0.309961,0.250503
12,69,8,9,9,2,0,I,1,S,7,L,11,0.753288,0.420447,0.316717
12,70,8,1,8,9,1,I,7,L,1,S,9,0.752527,0.361051,0.2717
12,71,8,9,1,2,1,C,1,S,1,S,15,0.495533,0.764358,0.378765
12,72,2,8,8,1,1,I,6,S,7,L,12,0.517597,0.770834,0.398982
12,73,2,8,9,8,1,I,6,S,1,S,10,0.386453,0.773918,0.299083
12,74,8,9,9,8,0,I,1,S,1,S,14,0.781098,0.440797,0.344305
12,75,2,1,2,1,1,C,1,S,1,S,12,0.789288,0.405527,0.320077
12,76,2,9,9,1,1,I,7,L,8,L,12,0.536259,0.758426,0.406713
12,77,8,1,1,9,1,I,7,L,8,L,11,0.759843,0.492075,0.3739
12,78,2,8,2,9,1,C,6,S,7,L,9,0.293876,0.823059,0.241877
12,79,9,8,2,1,1,C,1,S,1,S,12,0.774738,0.418592,0.324299
12,80,9,2,1,2,1,I,7,L,1,S,11,0.794137,0.428359,0.340176
12,81,1,9,1,9,1,C,8,L,8,L,8,0.276737,0.789836,0.218577
12,82,1,9,8,2,1,I,8,L,6,S,10,0.411983,0.780633,0.321607
12,83,9,8,8,9,1,I,1,S,1,S,17,0.767971,0.495193,0.380294
12,84,8,2,2,8,1,I,6,S,6,S,11,0.751886,0.474283,0.356607
12,85,8,1,1,8,1,I,7,L,7,L,11,0.763835,0.485437,0.370794
12,86,2,9,1,2,1,C,7,L,1,S,9,0.319629,0.79014,0.252552
12,87,1,8,8,1,1,I,7,L,7,L,11,0.47467,0.784747,0.372496
12,88,1,2,8,9,1,C,1,S,1,S,11,0.383809,0.79497,0.305117
12,89,8,2,9,1,1,C,6,S,8,L,8,0.751664,0.304171,0.228634
12,90,8,9,9,1,0,I,1,S,8,L,11,0.805329,0.38169,0.307386
12,91,8,2,2,9,1,I,6,S,7,L,12,0.789819,0.485013,0.383072
12,92,1,2,9,1,1,I,1,S,8,L,15,0.599038,0.763857,0.457579
12,93,8,2,9,8,1,C,6,S,1,S,10,0.834506,0.323595,0.270042
12,94,2,1,1,8,0,I,1,S,7,L,13,0.483953,0.760131,0.367867
12,95,9,2,8,9,1,I,7,L,1,S,10,0.802745,0.359898,0.288906
12,96,8,2,1,2,1,I,6,S,1,S,11,0.778879,0.436978,0.340353
12,97,2,8,9,2,1,I,6,S,7,L,11,0.479435,0.755453,0.362191
12,98,2,1,2,9,1,I,1,S,7,L,22,0.75673,0.65315,0.494258
12,99,2,9,8,2,1,I,7,L,6,S,11,0.453198,0.775647,0.351522
12,100,8,9,2,9,1,C,1,S,7,L,13,0.460718,0.770321,0.354901
12,101,1,9,9,2,1,I,8,L,7,L,10,0.437449,0.762078,0.33337
12,102,2,8,1,2,1,C,6,S,1,S,9,0.317191,0.790761,0.250822
12,103,8,1,8,2,1,C,7,L,6,S,9,0.832489,0.291542,0.242705
12,104,2,8,2,8,1,C,6,S,6,S,9,0.297953,0.816396,0.243247
12,105,9,8,8,1,1,C,1,S,7,L,11,0.804897,0.379276,0.305278
12,106,1,9,2,8,1,C,8,L,6,S,8,0.300024,0.75925,0.227793
12,107,8,9,2,1,0,I,1,S,1,S,12,0.752517,0.438031,0.329626
12,108,9,1,9,2,1,C,8,L,7,L,8,0.755722,0.3066,0.231704
12,109,9,1,1,2,1,I,8,L,1,S,10,0.779363,0.404306,0.315101
12,110,2,1,1,2,1,I,1,S,1,S,21,0.753202,0.639363,0.481569
12,111,8,9,8,2,0,I,1,S,6,S,12,0.778114,0.420598,0.327273
12,112,9,2,2,9,1,I,7,L,7,L,11,0.761499,0.474605,0.361411
12,113,9,1,2,1,1,C,8,L,1,S,9,0.828001,0.296706,0.245673
12,114,2,9,1,8,1,C,7,L,7,L,9,0.275458,0.848133,0.233625
12,115,2,9,2,8,1,C,7,L,6,S,9,0.300391,0.815774,0.245051
12,116,8,2,8,9,1,I,6,S,1,S,10,0.788432,0.36764,0.289859
12,117,9,1,9,8,1,C,8,L,1,S,9,0.796229,0.323784,0.257807
12,118,9,1,9,1,1,C,8,L,8,L,8,0.792992,0.278381,0.220754
12,119,9,8,9,2,1,C,1,S,7,L,11,0.769483,0.406162,0.312534
12,120,2,8,1,8,1,C,6,S,7,L,9,0.273019,0.848754,0.231726
12,121,1,8,2,9,1,C,7,L,7,L,8,0.295111,0.764385,0.225578
12,122,2,9,9,2,1,I,7,L,7,L,11,0.481689,0.754967,0.363659
12,123,2,9,8,1,1,I,7,L,7,L,12,0.519663,0.770535,0.400418
12,124,2,8,1,9,1,C,6,S,8,L,9,0.269873,0.854331,0.230561
12,125,1,8,1,9,1,C,7,L,8,L,8,0.274953,0.789758,0.217146
12,126,1,2,1,9,1,C,1,S,8,L,9,0.329383,0.775821,0.255542
12,127,8,2,2,1,1,C,6,S,1,S,9,0.779637,0.327272,0.255154
12,128,9,8,8,2,1,C,1,S,6,S,12,0.800335,0.40116,0.321062
12,129,1,8,8,9,1,C,7,L,1,S,9,0.328621,0.790165,0.259665
12,130,9,2,2,1,1,C,7,L,1,S,9,0.792407,0.320689,0.254117
12,131,1,9,1,2,1,C,8,L,1,S,9,0.283642,0.84166,0.23873
12,132,9,2,2,8,1,I,7,L,6,S,11,0.767144,0.465665,0.357232
12,133,1,8,8,2,1,I,7,L,6,S,10,0.410411,0.780362,0.320269
12,134,2,1,9,1,1,C,1,S,8,L,10,0.76641,0.381653,0.292503
12,135,8,1,2,8,1,I,7,L,6,S,11,0.794606,0.444653,0.353324
12,136,2,1,8,1,1,C,1,S,7,L,10,0.750312,0.392946,0.294832
12,137,2,1,9,8,1,C,1,S,1,S,13,0.781241,0.42568,0.332559
12,138,9,1,8,9,1,I,8,L,1,S,9,0.763806,0.355487,0.271523
12,139,8,1,2,9,1,I,7,L,7,L,11,0.788961,0.453593,0.357867
12,140,1,9,9,1,1,I,8,L,8,L,11,0.492695,0.77331,0.381006
12,141,8,9,1,8,1,C,1,S,7,L,12,0.440206,0.77022,0.339055
12,142,1,8,9,2,1,I,7,L,7,L,10,0.435877,0.761807,0.332054
12,143,9,1,2,8,1,I,8,L,6,S,10,0.755943,0.436266,0.329793
12,144,1,2,8,2,1,I,1,S,6,S,13,0.529658,0.755997,0.40042
13,1,8,9,8,1,0,I,1,S,7,L,12,0.790056,0.419356,0.331314
13,2,9,8,8,2,1,C,1,S,6,S,11,0.801937,0.374603,0.300408
13,3,8,2,2,9,1,I,6,S,7,L,13,0.787022,0.520087,0.40932
13,4,9,1,8,9,1,I,8,L,1,S,9,0.784934,0.338397,0.265619
13,5,8,9,2,8,1,C,1,S,6,S,12,0.419405,0.778738,0.326606
13,6,2,1,8,2,1,C,1,S,6,S,11,0.770287,0.403874,0.311099
13,7,1,9,1,8,1,C,8,L,7,L,8,0.276612,0.789063,0.218264
13,8,1,2,1,8,1,C,1,S,7,L,9,0.337561,0.769827,0.259864
13,9,8,1,9,8,1,C,7,L,1,S,9,0.808736,0.308931,0.249843
13,10,8,9,8,2,0,I,1,S,6,S,12,0.751646,0.447721,0.336528
13,11,1,2,2,9,1,C,1,S,7,L,10,0.342578,0.80506,0.275796
13,12,2,8,9,2,1,I,6,S,7,L,11,0.486018,0.76637,0.37247
13,13,2,1,8,1,1,C,1,S,7,L,11,0.807805,0.376592,0.304213
13,14,1,8,2,8,1,C,7,L,6,S,9,0.27373,0.856487,0.234446
13,15,9,2,8,1,1,C,7,L,7,L,8,0.756691,0.300222,0.227176
13,16,2,1,1,8,0,I,1,S,7,L,11,0.441361,0.751444,0.331658
13,17,2,1,2,9,0,I,1,S,7,L,14,0.49926,0.766092,0.382479
13,18,9,2,1,9,1,I,7,L,8,L,12,0.75718,0.544347,0.412169
13,19,2,8,8,1,1,I,6,S,7,L,11,0.491097,0.763266,0.374837
13,20,9,2,9,1,1,C,7,L,8,L,8,0.774949,0.286609,0.222108
13,21,2,9,8,2,1,I,7,L,6,S,11,0.465553,0.772004,0.359409
13,22,9,1,2,8,1,I,8,L,6,S,10,0.781346,0.41836,0.326884
13,23,8,9,1,9,1,C,1,S,8,L,10,0.390374,0.755772,0.295033
13,24,8,1,8,9,1,I,7,L,1,S,10,0.82308,0.343928,0.28308
13,25,8,9,8,9,1,C,1,S,1,S,17,0.446819,0.792885,0.354276
13,26,8,9,9,1,0,I,1,S,8,L,11,0.771409,0.411377,0.31734
13,27,2,1,2,8,0,I,1,S,6,S,15,0.528935,0.757016,0.400412
13,28,2,8,1,8,1,C,6,S,7,L,8,0.274105,0.795269,0.217987
13,29,1,2,8,2,1,I,1,S,6,S,16,0.58717,0.774201,0.454587
13,30,9,2,1,2,1,I,7,L,1,S,11,0.768473,0.467557,0.359305
13,31,8,2,9,8,1,C,6,S,1,S,10,0.840176,0.316427,0.265854
13,32,8,9,1,8,1,C,1,S,7,L,11,0.381552,0.803768,0.306679
13,33,1,8,9,1,1,I,7,L,8,L,11,0.507387,0.755106,0.383131
13,34,8,9,9,8,0,I,1,S,1,S,14,0.753171,0.479442,0.361102
13,35,8,1,9,1,1,C,7,L,8,L,8,0.785629,0.279135,0.219297
13,36,8,1,8,2,1,C,7,L,6,S,9,0.849053,0.276782,0.235003
13,37,8,2,2,1,1,C,6,S,1,S,10,0.830555,0.322392,0.267764
13,38,1,9,2,8,1,C,8,L,6,S,9,0.283312,0.840716,0.238185
13,39,2,8,1,9,1,C,6,S,8,L,8,0.268019,0.802155,0.214992
13,40,9,1,9,1,1,C,8,L,8,L,8,0.818409,0.257058,0.210378
13,41,1,8,8,9,1,C,7,L,1,S,9,0.336194,0.779884,0.262193
13,42,9,8,1,2,1,I,1,S,1,S,20,0.760766,0.63708,0.484669
13,43,8,1,9,2,1,C,7,L,7,L,8,0.763715,0.294789,0.225135
13,44,2,8,9,8,1,I,6,S,1,S,10,0.400161,0.779253,0.311826
13,45,1,9,8,2,1,I,8,L,6,S,11,0.457717,0.782392,0.358114
13,46,9,8,1,8,0,I,1,S,7,L,13,0.50243,0.760497,0.382096
13,47,2,9,1,9,1,C,7,L,8,L,8,0.276598,0.787895,0.21793
13,48,8,2,8,9,1,I,6,S,1,S,10,0.755678,0.391077,0.295528
13,49,9,8,2,9,1,I,1,S,7,L,20,0.755868,0.644344,0.487038
13,50,9,8,9,8,1,C,1,S,1,S,12,0.812327,0.385634,0.31326
13,51,2,8,2,8,1,C,6,S,6,S,9,0.280139,0.847862,0.237519
13,52,8,2,8,2,1,C,6,S,6,S,9,0.788636,0.318926,0.251516
13,53,2,1,8,9,1,I,1,S,1,S,17,0.758972,0.516283,0.391844
13,54,9,1,1,9,1,I,8,L,8,L,11,0.769123,0.504013,0.387649
13,55,2,9,9,1,1,I,7,L,8,L,12,0.528834,0.769311,0.406838
13,56,8,1,2,9,1,I,7,L,7,L,11,0.777612,0.466257,0.362567
13,57,1,8,2,9,1,C,7,L,7,L,8,0.298727,0.760301,0.227122
13,58,8,2,9,2,1,C,6,S,7,L,9,0.815205,0.298963,0.243716
13,59,1,2,9,1,1,I,1,S,8,L,17,0.624993,0.764547,0.477836
13,60,1,9,2,9,1,C,8,L,7,L,9,0.271419,0.854661,0.231971
13,61,2,8,9,1,1,I,6,S,8,L,12,0.516469,0.787935,0.406944
13,62,8,9,2,1,0,I,1,S,1,S,15,0.763221,0.483045,0.36867
13,63,1,2,2,8,1,C,1,S,6,S,10,0.356095,0.788642,0.280832
13,64,1,8,8,2,1,I,7,L,6,S,11,0.446456,0.799927,0.357132
13,65,9,2,2,9,1,I,7,L,7,L,11,0.763684,0.476212,0.363675
13,66,1,8,1,9,1,C,7,L,8,L,8,0.262321,0.809748,0.212414
13,67,8,9,2,9,1,C,1,S,7,L,12,0.404101,0.79754,0.322287
13,68,8,1,1,9,1,I,7,L,8,L,12,0.771098,0.534183,0.411908
13,69,1,8,8,1,1,I,7,L,7,L,11,0.483974,0.772645,0.37394
13,70,9,8,2,8,1,I,1,S,6,S,20,0.766376,0.633364,0.485395
13,71,8,1,2,8,1,I,7,L,6,S,11,0.792272,0.448206,0.355101
13,72,1,9,9,2,1,I,8,L,7,L,11,0.490157,0.758213,0.371643
13,73,2,8,8,2,1,I,6,S,6,S,11,0.453579,0.790549,0.358576
13,74,9,8,9,2,1,C,1,S,7,L,10,0.762076,0.379618,0.289298
13,75,9,2,9,8,1,C,7,L,1,S,9,0.796349,0.317557,0.252886
13,76,1,9,8,9,1,C,8,L,1,S,9,0.345777,0.764113,0.264212
13,77,1,2,1,9,1,C,1,S,8,L,9,0.330951,0.777467,0.257304
13,78,2,9,2,1,1,I,7,L,1,S,10,0.401767,0.767344,0.308294
13,79,9,8,2,1,1,C,1,S,1,S,12,0.798343,0.394557,0.314991
13,80,2,8,2,9,1,C,6,S,7,L,8,0.304424,0.752707,0.229142
13,81,9,1,8,2,1,C,8,L,6,S,8,0.774825,0.289484,0.2243
13,82,2,9,9,2,1,I,7,L,7,L,12,0.500386,0.790352,0.395481
13,83,9,1,1,8,1,I,8,L,7,L,11,0.776087,0.496059,0.384985
13,84,8,2,1,2,1,I,6,S,1,S,12,0.753784,0.511027,0.385204
13,85,2,9,1,2,1,C,7,L,1,S,9,0.281721,0.83863,0.23626
13,86,9,8,8,9,1,I,1,S,1,S,15,0.777618,0.47329,0.368039
13,87,1,9,1,9,1,C,8,L,8,L,8,0.270526,0.795949,0.215325
13,88,9,2,2,1,1,C,7,L,1,S,9,0.788977,0.321973,0.25403
13,89,2,1,9,1,1,C,1,S,8,L,10,0.766858,0.382076,0.292998
13,90,8,9,1,2,1,C,1,S,1,S,12,0.409357,0.788408,0.32274
13,91,9,8,8,1,1,C,1,S,7,L,10,0.766881,0.376771,0.288939
13,92,2,1,2,1,1,C,1,S,1,S,12,0.755762,0.432145,0.326599
13,93,9,1,1,2,1,I,8,L,1,S,10,0.771984,0.426936,0.329588
13,94,9,2,8,2,1,C,7,L,6,S,9,0.836666,0.285409,0.238792
