ANN,trial,N1,N2,P1,P2,Succ.,Cong,Ndist,Ndist,Pdist,Pdist,rt,a1,a2,x_acc
1,1,2,8,1,9,1,C,6,S,8,L,10,0.325541,0.835255,0.27191
1,2,1,9,1,9,1,C,8,L,8,L,10,0.346172,0.810531,0.280583
1,3,8,9,2,9,1,C,1,S,7,L,11,0.397361,0.783508,0.311336
1,4,8,9,8,1,0,I,1,S,7,L,13,0.759129,0.484217,0.367584
1,5,8,1,8,2,1,C,7,L,6,S,10,0.834109,0.323987,0.270241
1,6,1,8,8,2,1,I,7,L,6,S,12,0.470888,0.785574,0.369918
1,7,8,9,1,8,1,C,1,S,7,L,12,0.400438,0.805419,0.32252
1,8,1,8,8,1,1,I,7,L,7,L,13,0.533112,0.779715,0.415676
1,9,8,1,1,8,1,I,7,L,7,L,12,0.757937,0.504435,0.38233
1,10,2,1,9,2,1,C,1,S,7,L,10,0.826398,0.331154,0.273665
1,11,9,1,9,1,1,C,8,L,8,L,8,0.758796,0.306063,0.23224
1,12,2,1,2,1,1,C,1,S,1,S,11,0.804401,0.382102,0.307364
1,13,2,8,8,1,1,I,6,S,7,L,14,0.573822,0.756409,0.434044
1,14,8,2,8,9,1,I,6,S,1,S,12,0.780069,0.433337,0.338033
1,15,2,8,1,2,1,C,6,S,1,S,11,0.36183,0.822483,0.297599
1,16,8,2,2,1,1,C,6,S,1,S,11,0.757917,0.41645,0.315635
1,17,8,1,2,1,1,C,7,L,1,S,10,0.760306,0.387716,0.294782
1,18,1,8,9,8,1,I,7,L,1,S,11,0.411354,0.790424,0.325144
1,19,8,2,9,1,1,C,6,S,8,L,10,0.833035,0.328746,0.273857
1,20,2,9,2,1,1,I,7,L,1,S,14,0.45003,0.790946,0.355949
1,21,2,9,8,2,1,I,7,L,6,S,18,0.599877,0.77588,0.465433
1,22,2,9,1,9,1,C,7,L,8,L,11,0.364925,0.822584,0.300181
1,23,2,1,8,1,1,C,1,S,7,L,9,0.763188,0.345818,0.263925
1,24,1,9,2,8,1,C,8,L,6,S,10,0.345329,0.808776,0.279294
1,25,1,9,8,9,1,C,8,L,1,S,11,0.405245,0.772557,0.313075
1,26,8,9,8,2,1,I,1,S,6,S,22,0.650727,0.751873,0.489264
1,27,2,9,1,2,1,C,7,L,1,S,12,0.41885,0.774695,0.324481
1,28,9,1,2,9,1,I,8,L,7,L,11,0.774215,0.477449,0.369648
1,29,8,1,2,8,1,I,7,L,6,S,13,0.779075,0.525831,0.409662
1,30,9,1,2,1,1,C,8,L,1,S,9,0.76275,0.354385,0.270307
1,31,9,8,9,8,1,C,1,S,1,S,14,0.797638,0.4317,0.34434
1,32,1,2,2,8,1,C,1,S,6,S,14,0.502026,0.766249,0.384677
1,33,9,8,8,1,1,C,1,S,7,L,11,0.771619,0.408995,0.315588
1,34,2,1,2,8,1,I,1,S,6,S,14,0.784115,0.54721,0.429076
1,35,9,8,9,1,1,C,1,S,8,L,11,0.785498,0.399305,0.313654
1,36,8,9,1,9,1,C,1,S,8,L,11,0.411237,0.766916,0.315384
1,37,8,1,1,9,1,I,7,L,8,L,13,0.779152,0.528314,0.411637
1,38,8,1,2,9,1,I,7,L,7,L,13,0.764761,0.545231,0.416971
1,39,8,2,8,1,1,C,6,S,7,L,10,0.82011,0.337659,0.276917
1,40,1,2,1,8,1,C,1,S,7,L,15,0.532062,0.756076,0.40228
1,41,1,2,2,9,1,C,1,S,7,L,13,0.480808,0.767419,0.368981
1,42,2,8,8,9,1,C,6,S,1,S,11,0.381624,0.801802,0.305987
1,43,1,9,9,2,1,I,8,L,7,L,14,0.562006,0.751153,0.422153
1,44,2,9,1,8,1,C,7,L,7,L,11,0.380983,0.800407,0.304942
1,45,1,8,1,8,1,C,7,L,7,L,9,0.343453,0.766315,0.263193
1,46,9,1,1,8,1,I,8,L,7,L,10,0.752637,0.437697,0.329427
1,47,9,8,8,2,1,C,1,S,6,S,12,0.768686,0.427568,0.328666
1,48,9,2,2,1,1,C,7,L,1,S,10,0.802663,0.359371,0.288454
1,49,1,9,8,1,1,I,8,L,7,L,15,0.595409,0.756069,0.45017
1,50,1,9,2,1,1,I,8,L,1,S,12,0.415182,0.79646,0.330676
1,51,8,2,1,2,1,I,6,S,1,S,12,0.754461,0.461474,0.348164
1,52,1,2,2,1,0,I,1,S,1,S,15,0.78151,0.455783,0.356199
1,53,9,8,1,2,1,I,1,S,1,S,22,0.777312,0.609223,0.473557
1,54,2,9,9,2,1,I,7,L,7,L,18,0.620276,0.759575,0.471146
1,55,1,2,8,9,0,C,1,S,1,S,18,0.757182,0.552686,0.418484
1,56,8,9,2,1,1,I,1,S,1,S,17,0.497198,0.772944,0.384306
1,57,9,1,8,1,1,C,8,L,7,L,9,0.858367,0.276484,0.237325
1,58,8,2,1,9,1,I,6,S,8,L,15,0.763092,0.585677,0.446925
1,59,9,2,9,1,1,C,7,L,8,L,9,0.832315,0.296405,0.246703
1,60,1,8,2,8,1,C,7,L,6,S,9,0.330366,0.781119,0.258055
1,61,8,2,2,9,1,I,6,S,7,L,16,0.781793,0.591819,0.46268
1,62,2,8,8,2,1,I,6,S,6,S,13,0.512337,0.767276,0.393104
1,63,8,1,1,2,1,I,7,L,1,S,11,0.781645,0.414442,0.323947
1,64,8,2,8,2,1,C,6,S,6,S,10,0.769173,0.373678,0.287423
1,65,8,1,8,1,1,C,7,L,7,L,9,0.784264,0.328657,0.257754
1,66,2,8,9,2,1,I,6,S,7,L,14,0.534345,0.785487,0.419721
1,67,9,2,1,8,1,I,7,L,7,L,11,0.761121,0.470913,0.358422
1,68,2,1,9,8,1,C,1,S,1,S,10,0.761877,0.384734,0.29312
1,69,9,2,1,9,1,I,7,L,8,L,12,0.788429,0.495056,0.390317
1,70,2,1,1,9,1,I,1,S,8,L,14,0.783953,0.549872,0.431074
1,71,8,9,9,8,1,I,1,S,1,S,20,0.612793,0.752147,0.460911
1,72,1,9,1,8,1,C,8,L,7,L,10,0.360461,0.790866,0.285077
1,73,9,8,8,9,1,I,1,S,1,S,20,0.774081,0.566559,0.438563
1,74,1,2,8,2,0,I,1,S,6,S,12,0.780396,0.42081,0.328399
1,75,9,2,1,2,1,I,7,L,1,S,10,0.765485,0.398391,0.304962
1,76,8,1,9,8,1,C,7,L,1,S,10,0.787249,0.364737,0.287139
1,77,8,1,9,2,1,C,7,L,7,L,9,0.756321,0.348276,0.263408
1,78,9,2,2,8,1,I,7,L,6,S,12,0.788095,0.492787,0.388363
1,79,9,2,2,9,1,I,7,L,7,L,12,0.774089,0.512142,0.396443
1,80,2,9,9,8,1,I,7,L,1,S,15,0.52986,0.756722,0.400957
1,81,1,9,8,2,1,I,8,L,6,S,14,0.537549,0.769196,0.413481
1,82,1,8,8,9,1,C,7,L,1,S,10,0.374072,0.778964,0.291389
1,83,9,2,9,8,1,C,7,L,1,S,10,0.829606,0.336393,0.279074
1,84,2,1,8,9,1,I,1,S,1,S,11,0.772952,0.415909,0.321477
1,85,9,1,1,2,1,I,8,L,1,S,10,0.806689,0.367863,0.296751
1,86,1,2,9,8,0,I,1,S,1,S,13,0.758533,0.453919,0.344313
1,87,2,9,8,1,1,I,7,L,7,L,19,0.635566,0.765861,0.486755
1,88,9,8,2,1,1,C,1,S,1,S,15,0.756584,0.472434,0.357436
1,89,1,8,2,9,1,C,7,L,7,L,9,0.319885,0.795776,0.254557
1,90,1,9,1,2,1,C,8,L,1,S,11,0.385451,0.793238,0.305754
1,91,8,9,1,2,1,C,1,S,1,S,13,0.453507,0.751236,0.340691
1,92,2,9,2,9,1,C,7,L,7,L,10,0.383529,0.762409,0.292406
1,93,1,2,9,2,0,I,1,S,7,L,12,0.80337,0.404307,0.324808
1,94,9,8,2,9,0,I,1,S,7,L,13,0.465461,0.777042,0.361683
1,95,1,9,9,1,1,I,8,L,8,L,16,0.598894,0.778511,0.466245
1,96,1,2,8,1,0,I,1,S,7,L,11,0.780513,0.404537,0.315747
1,97,2,9,9,1,1,I,7,L,8,L,19,0.645601,0.757812,0.489244
1,98,9,8,2,8,0,I,1,S,6,S,13,0.479775,0.757643,0.363498
1,99,9,1,8,2,1,C,8,L,6,S,9,0.816373,0.306526,0.25024
1,100,9,2,8,9,1,I,7,L,1,S,10,0.780368,0.383659,0.299395
1,101,8,9,9,2,0,I,1,S,7,L,16,0.751247,0.552046,0.414723
1,102,8,9,8,9,1,C,1,S,1,S,14,0.457705,0.762778,0.349127
1,103,1,9,9,8,1,I,8,L,1,S,12,0.465505,0.754376,0.351166
1,104,9,1,2,8,1,I,8,L,6,S,11,0.787495,0.458835,0.36133
1,105,2,1,1,2,1,I,1,S,1,S,11,0.753157,0.436589,0.32882
1,106,8,9,9,1,0,I,1,S,8,L,13,0.773294,0.473916,0.366477
1,107,9,1,1,9,1,I,8,L,8,L,11,0.788091,0.460857,0.363197
1,108,2,1,1,8,1,I,1,S,7,L,13,0.766378,0.528327,0.404899
1,109,1,8,2,1,1,I,7,L,1,S,10,0.396367,0.754676,0.299129
1,110,1,8,1,9,1,C,7,L,8,L,9,0.331415,0.782611,0.259369
1,111,2,8,2,1,1,I,6,S,1,S,11,0.413074,0.767996,0.317239
1,112,9,1,9,8,1,C,8,L,1,S,9,0.78188,0.338184,0.264419
1,113,1,8,9,1,1,I,7,L,8,L,13,0.547277,0.769414,0.421083
1,114,9,1,8,9,1,I,8,L,1,S,10,0.821573,0.353131,0.290123
1,115,8,2,2,8,1,I,6,S,6,S,15,0.763469,0.582868,0.445002
1,116,1,9,2,9,1,C,8,L,7,L,10,0.333231,0.825821,0.275189
1,117,9,2,8,2,1,C,7,L,6,S,9,0.778973,0.334256,0.260377
1,118,2,8,9,1,1,I,6,S,8,L,15,0.581071,0.779607,0.453007
1,119,9,2,9,2,1,C,7,L,7,L,9,0.793024,0.323832,0.256807
1,120,1,2,1,2,0,C,1,S,1,S,20,0.759844,0.605575,0.460143
1,121,2,8,2,8,1,C,6,S,6,S,10,0.324698,0.8335,0.270636
1,122,9,2,8,1,1,C,7,L,7,L,9,0.820967,0.304214,0.24975
1,123,8,9,2,8,1,C,1,S,6,S,11,0.410641,0.764893,0.314097
1,124,2,1,8,2,1,C,1,S,6,S,10,0.808737,0.343984,0.278193
1,125,1,2,9,1,0,I,1,S,8,L,11,0.794392,0.394848,0.313664
1,126,9,8,9,2,1,C,1,S,7,L,12,0.79166,0.411065,0.325424
1,127,2,9,8,9,1,C,7,L,1,S,13,0.411724,0.807856,0.332614
1,128,2,8,2,9,1,C,6,S,7,L,9,0.34918,0.755965,0.263968
1,129,2,9,2,8,1,C,7,L,6,S,11,0.364329,0.820562,0.298954
1,130,9,8,1,9,0,I,1,S,8,L,13,0.479853,0.760126,0.364748
1,131,8,2,1,8,1,I,6,S,7,L,15,0.780871,0.562649,0.439356
1,132,8,1,8,9,1,I,7,L,1,S,11,0.801439,0.393762,0.315576
1,133,2,8,9,8,1,I,6,S,1,S,12,0.439685,0.786801,0.345944
1,134,2,1,2,9,1,I,1,S,7,L,14,0.769844,0.56614,0.435839
1,135,1,8,1,2,1,C,7,L,1,S,10,0.359189,0.793695,0.285086
1,136,1,2,1,9,1,C,1,S,8,L,13,0.495199,0.750503,0.371649
1,137,9,1,9,2,1,C,8,L,7,L,9,0.830424,0.296102,0.24589
1,138,1,8,9,2,1,I,7,L,7,L,12,0.493862,0.769071,0.379815
1,139,9,8,1,8,0,I,1,S,7,L,14,0.500079,0.758039,0.37908
1,140,8,2,9,2,1,C,6,S,7,L,10,0.786834,0.360849,0.283928
1,141,8,1,9,1,1,C,7,L,8,L,9,0.795612,0.320849,0.255271
1,142,8,2,9,8,1,C,6,S,1,S,11,0.795144,0.384865,0.306023
1,143,2,8,1,8,1,C,6,S,7,L,10,0.339831,0.81559,0.277162
1,144,2,1,9,1,1,C,1,S,8,L,9,0.774536,0.33801,0.261801
2,1,8,1,8,9,1,I,7,L,1,S,15,0.75608,0.573857,0.433882
2,2,9,8,9,8,0,C,1,S,1,S,12,0.428504,0.768731,0.329404
2,3,2,1,2,9,1,I,1,S,7,L,18,0.763184,0.623509,0.475852
2,4,1,9,2,8,1,C,8,L,6,S,10,0.352903,0.790827,0.279086
2,5,9,1,1,2,1,I,8,L,1,S,12,0.784202,0.464791,0.36449
2,6,1,2,8,9,1,C,1,S,1,S,11,0.405686,0.761906,0.309095
2,7,2,8,1,9,1,C,6,S,8,L,9,0.341202,0.761037,0.259667
2,8,8,2,8,1,1,C,6,S,7,L,10,0.770419,0.374078,0.288197
2,9,2,8,1,2,1,C,6,S,1,S,10,0.365316,0.776098,0.283521
2,10,8,1,1,2,1,I,7,L,1,S,14,0.752277,0.538459,0.40507
2,11,2,8,2,1,1,I,6,S,1,S,13,0.502873,0.768812,0.386615
2,12,2,9,8,1,0,I,7,L,7,L,14,0.760504,0.501487,0.381383
2,13,2,8,2,9,1,C,6,S,7,L,10,0.320157,0.835922,0.267626
2,14,1,8,1,2,1,C,7,L,1,S,9,0.345507,0.753824,0.260452
2,15,8,1,9,8,1,C,7,L,1,S,15,0.781251,0.542559,0.423874
2,16,1,8,8,1,1,I,7,L,7,L,12,0.49316,0.773389,0.381405
2,17,9,8,2,9,0,I,1,S,7,L,11,0.403454,0.775893,0.313037
2,18,9,2,2,1,1,C,7,L,1,S,10,0.813702,0.343466,0.279479
2,19,8,9,9,1,0,I,1,S,8,L,12,0.771556,0.431747,0.333117
2,20,2,9,8,2,1,I,7,L,6,S,19,0.570965,0.758244,0.432931
2,21,1,8,2,8,1,C,7,L,6,S,9,0.324785,0.78059,0.253524
2,22,2,8,9,1,1,I,6,S,8,L,14,0.548198,0.770002,0.422113
2,23,9,1,8,9,1,I,8,L,1,S,12,0.757641,0.500872,0.379482
2,24,8,1,9,2,1,C,7,L,7,L,12,0.798802,0.403859,0.322603
2,25,2,1,8,2,1,C,1,S,6,S,12,0.773146,0.419592,0.324406
2,26,8,9,9,8,1,I,1,S,1,S,14,0.480015,0.761812,0.365682
2,27,2,9,8,9,1,C,7,L,1,S,12,0.406553,0.795846,0.323554
2,28,8,9,8,9,1,C,1,S,1,S,13,0.464192,0.762039,0.353733
2,29,2,1,1,9,1,I,1,S,8,L,18,0.750016,0.638114,0.478596
2,30,9,1,2,8,1,I,8,L,6,S,12,0.751235,0.5096,0.382829
2,31,9,2,1,2,1,I,7,L,1,S,12,0.775202,0.473968,0.367421
2,32,1,9,2,1,1,I,8,L,1,S,14,0.519956,0.777448,0.404239
2,33,8,2,1,8,1,I,6,S,7,L,17,0.771905,0.60677,0.468369
2,34,9,2,2,9,1,I,7,L,7,L,13,0.758116,0.548891,0.416123
2,35,1,2,1,8,1,C,1,S,7,L,11,0.378778,0.796759,0.301795
2,36,2,1,2,1,1,C,1,S,1,S,11,0.780838,0.389273,0.303959
2,37,9,2,8,9,1,I,7,L,1,S,13,0.788306,0.509322,0.401501
2,38,9,8,9,1,1,C,1,S,8,L,15,0.759752,0.52513,0.398969
2,39,1,8,1,8,1,C,7,L,7,L,9,0.308137,0.800916,0.246792
2,40,9,2,9,8,1,C,7,L,1,S,12,0.771922,0.480259,0.370723
2,41,8,2,8,9,1,I,6,S,1,S,16,0.76758,0.585301,0.449265
2,42,9,2,9,1,1,C,7,L,8,L,9,0.752312,0.355825,0.267691
2,43,8,1,8,1,1,C,7,L,7,L,10,0.782611,0.361443,0.282869
2,44,8,9,1,9,1,C,1,S,8,L,12,0.427291,0.785947,0.335828
2,45,1,9,1,8,1,C,8,L,7,L,10,0.333744,0.81497,0.271991
2,46,1,8,1,9,1,C,7,L,8,L,9,0.293987,0.819659,0.240969
2,47,8,2,2,1,1,C,6,S,1,S,11,0.806211,0.371922,0.299848
2,48,9,8,2,1,0,C,1,S,1,S,22,0.646773,0.755791,0.488825
2,49,1,2,8,1,1,I,1,S,7,L,21,0.638814,0.767203,0.4901
2,50,9,1,2,9,1,I,8,L,7,L,13,0.766995,0.539782,0.41401
2,51,8,2,1,2,1,I,6,S,1,S,15,0.764976,0.553463,0.423385
2,52,9,1,9,8,1,C,8,L,1,S,12,0.780923,0.471082,0.367879
2,53,9,2,8,1,1,C,7,L,7,L,9,0.758718,0.350513,0.26594
2,54,2,9,9,1,0,I,7,L,8,L,14,0.751069,0.509095,0.382365
2,55,1,2,2,9,1,C,1,S,7,L,11,0.378122,0.798733,0.302018
2,56,8,1,1,8,1,I,7,L,7,L,16,0.760035,0.600357,0.456292
2,57,8,1,2,1,1,C,7,L,1,S,11,0.821592,0.357166,0.293445
2,58,8,9,1,2,1,C,1,S,1,S,14,0.484195,0.754481,0.365316
2,59,8,2,9,1,1,C,6,S,8,L,10,0.762635,0.3803,0.29003
2,60,9,2,1,8,1,I,7,L,7,L,13,0.759025,0.546704,0.414962
2,61,8,1,8,2,1,C,7,L,6,S,11,0.753512,0.414521,0.312347
2,62,2,9,2,8,1,C,7,L,6,S,12,0.400147,0.804573,0.321948
2,63,2,9,2,1,1,I,7,L,1,S,23,0.633215,0.777826,0.492531
2,64,9,1,8,1,1,C,8,L,7,L,9,0.7653,0.34288,0.262406
2,65,2,1,9,8,1,C,1,S,1,S,16,0.752251,0.583844,0.439197
2,66,1,9,8,2,1,I,8,L,6,S,12,0.435052,0.774089,0.336769
2,67,9,2,1,9,1,I,7,L,8,L,14,0.77751,0.565192,0.439442
2,68,1,2,1,9,1,C,1,S,8,L,10,0.388344,0.750533,0.291465
2,69,8,2,1,9,1,I,6,S,8,L,17,0.756666,0.624922,0.472857
2,70,2,1,8,1,1,C,1,S,7,L,10,0.750558,0.387635,0.290942
2,71,1,8,8,9,1,C,7,L,1,S,9,0.329116,0.77488,0.255025
2,72,1,9,8,1,1,I,8,L,7,L,15,0.572777,0.767683,0.439711
2,73,2,1,9,2,1,C,1,S,7,L,12,0.75002,0.441303,0.330986
2,74,2,8,9,8,1,I,6,S,1,S,10,0.363326,0.780542,0.283592
2,75,1,2,1,2,1,C,1,S,1,S,12,0.399596,0.793978,0.31727
2,76,2,8,2,8,1,C,6,S,6,S,10,0.339806,0.810001,0.275244
2,77,8,1,1,9,1,I,7,L,8,L,17,0.775453,0.607583,0.471152
2,78,8,9,2,9,1,C,1,S,7,L,12,0.444099,0.764886,0.339685
2,79,8,2,9,2,1,C,6,S,7,L,12,0.780738,0.420342,0.328177
2,80,9,1,1,8,1,I,8,L,7,L,13,0.767905,0.537595,0.412821
2,81,2,1,1,8,1,I,1,S,7,L,18,0.764291,0.621377,0.474913
2,82,9,2,8,2,1,C,7,L,6,S,10,0.762459,0.388318,0.296077
2,83,9,8,2,8,0,I,1,S,6,S,12,0.398817,0.807249,0.321944
2,84,9,2,2,8,1,I,7,L,6,S,13,0.781608,0.518339,0.405137
2,85,9,8,9,2,0,C,1,S,7,L,17,0.493926,0.777029,0.383795
2,86,1,9,9,1,1,I,8,L,8,L,15,0.56372,0.775135,0.436959
2,87,9,2,9,2,1,C,7,L,7,L,10,0.750696,0.400028,0.300299
2,88,1,9,9,2,1,I,8,L,7,L,12,0.411926,0.7958,0.32781
2,89,1,2,2,1,1,I,1,S,1,S,20,0.616591,0.770534,0.475104
2,90,8,1,2,9,1,I,7,L,7,L,16,0.75895,0.602562,0.457314
2,91,9,1,9,2,1,C,8,L,7,L,10,0.758571,0.391568,0.297032
2,92,2,9,1,8,1,C,7,L,7,L,11,0.404942,0.771863,0.31256
2,93,1,8,8,2,1,I,7,L,6,S,10,0.392491,0.758995,0.297899
2,94,8,1,2,8,1,I,7,L,6,S,16,0.781013,0.575571,0.449529
2,95,2,8,9,2,1,I,6,S,7,L,11,0.418061,0.760846,0.31808
2,96,8,9,2,8,1,C,1,S,6,S,13,0.457494,0.771056,0.352753
2,97,8,9,8,2,0,I,1,S,6,S,16,0.789294,0.455513,0.359534
2,98,9,1,2,1,1,C,8,L,1,S,10,0.821577,0.335007,0.275234
2,99,1,2,2,8,1,C,1,S,6,S,11,0.399783,0.769967,0.30782
2,100,1,8,2,1,1,I,7,L,1,S,11,0.442133,0.766031,0.338687
2,101,2,8,1,8,1,C,6,S,7,L,10,0.320647,0.834144,0.267465
2,102,8,9,8,1,0,I,1,S,7,L,12,0.780955,0.42437,0.331414
2,103,1,9,1,9,1,C,8,L,8,L,10,0.317882,0.836213,0.265817
2,104,8,9,2,1,0,I,1,S,1,S,13,0.774894,0.442399,0.342812
2,105,2,1,9,1,1,C,1,S,8,L,11,0.820465,0.36071,0.29595
2,106,1,8,9,2,1,I,7,L,7,L,10,0.380728,0.770705,0.293429
2,107,1,8,2,9,1,C,7,L,7,L,9,0.307829,0.802444,0.247015
2,108,2,8,8,9,1,C,6,S,1,S,10,0.345002,0.802981,0.27703
2,109,9,8,1,9,0,I,1,S,8,L,11,0.387102,0.79661,0.308369
2,110,8,2,8,2,1,C,6,S,6,S,12,0.803864,0.398631,0.320445
2,111,1,9,2,9,1,C,8,L,7,L,10,0.333254,0.816747,0.272184
2,112,1,8,9,1,1,I,7,L,8,L,12,0.483761,0.780767,0.377705
2,113,1,2,9,8,1,I,1,S,1,S,12,0.396316,0.800269,0.31716
2,114,2,9,1,9,1,C,7,L,8,L,11,0.387935,0.794554,0.308235
2,115,2,9,9,8,1,I,7,L,1,S,12,0.429835,0.766056,0.329277
2,116,2,1,1,2,1,I,1,S,1,S,16,0.756816,0.576379,0.436213
2,117,2,8,8,2,1,I,6,S,6,S,12,0.417571,0.799651,0.333911
2,118,9,8,8,9,0,I,1,S,1,S,12,0.405222,0.798522,0.323579
2,119,2,8,8,1,1,I,6,S,7,L,14,0.557633,0.762394,0.425136
2,120,9,8,1,2,0,I,1,S,1,S,12,0.431783,0.76244,0.329209
2,121,2,9,2,9,1,C,7,L,7,L,11,0.404286,0.773837,0.312852
2,122,2,9,9,2,1,I,7,L,7,L,17,0.498838,0.769416,0.383814
2,123,9,1,9,1,1,C,8,L,8,L,9,0.758895,0.348192,0.264241
2,124,1,9,9,8,1,I,8,L,1,S,10,0.376423,0.761368,0.286597
2,125,9,8,8,2,0,C,1,S,6,S,19,0.565149,0.766952,0.433442
2,126,9,1,1,9,1,I,8,L,8,L,13,0.75018,0.560481,0.420462
2,127,1,2,9,1,1,I,1,S,8,L,21,0.633366,0.772224,0.4891
2,128,2,1,2,8,1,I,1,S,6,S,17,0.752707,0.612291,0.460875
2,129,1,9,1,2,1,C,8,L,1,S,10,0.378414,0.756924,0.28643
2,130,1,8,9,8,1,I,7,L,1,S,9,0.344173,0.757301,0.260643
2,131,1,9,8,9,1,C,8,L,1,S,10,0.358099,0.783806,0.280681
2,132,9,8,8,1,1,C,1,S,7,L,14,0.757827,0.505937,0.383413
2,133,1,2,9,2,1,I,1,S,7,L,15,0.471501,0.773118,0.364526
2,134,8,2,2,9,1,I,6,S,7,L,17,0.770802,0.608942,0.469373
2,135,8,2,9,8,1,C,6,S,1,S,15,0.760543,0.560954,0.42663
2,136,8,2,2,8,1,I,6,S,6,S,16,0.761026,0.593613,0.451755
2,137,2,9,1,2,1,C,7,L,1,S,12,0.433114,0.759764,0.329065
2,138,2,1,8,9,1,I,1,S,1,S,17,0.758984,0.604487,0.458796
2,139,9,1,8,2,1,C,8,L,6,S,10,0.770334,0.379859,0.292618
2,140,9,8,1,8,0,I,1,S,7,L,11,0.40411,0.773919,0.312748
2,141,8,9,1,8,1,C,1,S,7,L,12,0.444896,0.762778,0.339357
2,142,8,1,9,1,1,C,7,L,8,L,10,0.774827,0.367665,0.284877
2,143,1,2,8,2,1,I,1,S,6,S,16,0.51865,0.758529,0.393411
2,144,8,9,9,2,0,I,1,S,7,L,17,0.760183,0.483676,0.367683
3,1,1,8,8,2,1,I,7,L,6,S,12,0.482862,0.763422,0.368627
3,2,1,8,2,1,1,I,7,L,1,S,11,0.425434,0.764162,0.325101
3,3,9,2,2,1,1,C,7,L,1,S,10,0.815081,0.340005,0.277132
3,4,1,9,2,1,1,I,8,L,1,S,12,0.432167,0.789514,0.341202
3,5,9,1,2,8,1,I,8,L,6,S,12,0.772593,0.47897,0.370049
3,6,8,2,2,1,1,C,6,S,1,S,9,0.751426,0.353775,0.265835
3,7,1,2,8,2,1,I,1,S,6,S,24,0.637693,0.776691,0.495291
3,8,2,1,8,1,1,C,1,S,7,L,16,0.756031,0.528144,0.399293
3,9,8,9,2,1,0,I,1,S,1,S,10,0.750651,0.387877,0.29116
3,10,8,2,1,8,1,I,6,S,7,L,11,0.761844,0.473811,0.36097
3,11,8,2,1,9,1,I,6,S,8,L,11,0.767297,0.464988,0.356784
3,12,8,1,1,8,1,I,7,L,7,L,12,0.768665,0.505222,0.388346
3,13,2,8,8,2,1,I,6,S,6,S,14,0.542181,0.756449,0.410132
3,14,8,9,1,8,0,C,1,S,7,L,14,0.780393,0.547768,0.427474
3,15,9,1,1,8,1,I,8,L,7,L,13,0.777071,0.528009,0.4103
3,16,1,9,8,2,1,I,8,L,6,S,13,0.502507,0.774835,0.38936
3,17,1,9,2,8,1,C,8,L,6,S,10,0.35701,0.790968,0.282383
3,18,2,1,2,8,0,I,1,S,6,S,12,0.445742,0.752319,0.33534
3,19,1,9,9,2,1,I,8,L,7,L,14,0.538389,0.781924,0.420979
3,20,8,9,1,2,0,C,1,S,1,S,11,0.783801,0.398092,0.312025
3,21,9,2,8,2,1,C,7,L,6,S,9,0.765208,0.340683,0.260693
3,22,2,8,2,8,1,C,6,S,6,S,10,0.3869,0.753193,0.29141
3,23,9,8,2,9,1,I,1,S,7,L,15,0.772769,0.545313,0.421401
3,24,8,2,1,2,1,I,6,S,1,S,10,0.805082,0.355688,0.286358
3,25,1,2,9,1,0,I,1,S,8,L,15,0.763729,0.510172,0.389633
3,26,2,8,8,1,1,I,6,S,7,L,14,0.524932,0.770283,0.404346
3,27,1,2,1,9,1,C,1,S,8,L,12,0.404996,0.800293,0.324116
3,28,9,1,8,1,1,C,8,L,7,L,10,0.810511,0.344416,0.279153
3,29,2,1,1,2,0,I,1,S,1,S,17,0.47403,0.776969,0.368306
3,30,1,2,8,9,1,C,1,S,1,S,14,0.424299,0.804579,0.341382
3,31,2,9,8,1,1,I,7,L,7,L,15,0.560287,0.75242,0.421571
3,32,9,1,2,1,1,C,8,L,1,S,10,0.776141,0.371187,0.288093
3,33,2,9,9,8,1,I,7,L,1,S,12,0.424841,0.77319,0.328483
3,34,2,1,1,9,0,I,1,S,8,L,12,0.417573,0.791727,0.330604
3,35,9,2,8,1,1,C,7,L,7,L,9,0.757419,0.347977,0.263565
3,36,2,1,2,9,0,I,1,S,7,L,13,0.428953,0.791707,0.339605
3,37,1,2,2,8,1,C,1,S,6,S,12,0.433165,0.760885,0.329589
3,38,8,1,1,2,1,I,7,L,1,S,10,0.771071,0.382941,0.295275
3,39,1,9,1,2,1,C,8,L,1,S,11,0.400485,0.780444,0.312556
3,40,9,8,8,9,1,I,1,S,1,S,14,0.786191,0.488892,0.384362
3,41,9,2,2,8,1,I,7,L,6,S,11,0.77004,0.445985,0.343426
3,42,1,9,8,9,1,C,8,L,1,S,10,0.389242,0.752203,0.292789
3,43,1,8,1,2,1,C,7,L,1,S,11,0.381275,0.80679,0.307608
3,44,9,1,1,2,1,I,8,L,1,S,11,0.812709,0.378988,0.308007
3,45,2,9,1,8,1,C,7,L,7,L,10,0.382892,0.762864,0.292094
3,46,9,1,9,1,1,C,8,L,8,L,10,0.839832,0.321378,0.269903
3,47,8,2,8,1,1,C,6,S,7,L,9,0.776553,0.333987,0.259358
3,48,9,8,2,8,1,I,1,S,6,S,15,0.762367,0.560264,0.427127
3,49,1,8,2,9,1,C,7,L,7,L,10,0.34605,0.804827,0.27851
3,50,9,2,9,8,1,C,7,L,1,S,10,0.77489,0.382109,0.296092
3,51,8,9,8,9,0,C,1,S,1,S,12,0.7885,0.439596,0.346621
3,52,9,1,9,8,1,C,8,L,1,S,11,0.80018,0.393869,0.315166
3,53,9,8,1,8,1,I,1,S,7,L,16,0.757347,0.603064,0.456729
3,54,8,2,2,8,1,I,6,S,6,S,11,0.792763,0.429293,0.340328
3,55,2,9,2,1,1,I,7,L,1,S,14,0.487646,0.774802,0.377829
3,56,9,2,2,9,1,I,7,L,7,L,11,0.777393,0.434775,0.337991
3,57,1,8,9,1,1,I,7,L,8,L,13,0.507888,0.78447,0.398423
3,58,2,1,9,2,1,C,1,S,7,L,13,0.752828,0.480319,0.361598
3,59,9,2,9,1,1,C,7,L,8,L,9,0.780043,0.329517,0.257038
3,60,9,8,9,2,1,C,1,S,7,L,10,0.763369,0.37706,0.287836
3,61,9,2,1,9,1,I,7,L,8,L,12,0.788195,0.483371,0.380991
3,62,9,1,8,2,1,C,8,L,6,S,10,0.820889,0.33531,0.275252
3,63,8,2,2,9,1,I,6,S,7,L,11,0.800116,0.418083,0.334515
3,64,2,8,9,1,1,I,6,S,8,L,15,0.565697,0.769582,0.43535
3,65,2,8,9,2,1,I,6,S,7,L,15,0.576241,0.760665,0.438327
3,66,1,8,9,2,1,I,7,L,7,L,13,0.518908,0.775445,0.402385
3,67,1,8,8,9,1,C,7,L,1,S,10,0.372315,0.775209,0.288622
3,68,1,9,1,9,1,C,8,L,8,L,10,0.335093,0.821419,0.275251
3,69,1,9,8,1,1,I,8,L,7,L,13,0.485969,0.788082,0.382983
3,70,8,1,2,8,1,I,7,L,6,S,11,0.756661,0.458199,0.346702
3,71,8,9,8,2,0,I,1,S,6,S,10,0.7954,0.351999,0.27998
3,72,8,9,9,8,0,I,1,S,1,S,11,0.771272,0.412973,0.318515
3,73,8,1,9,2,1,C,7,L,7,L,9,0.77587,0.334,0.259141
3,74,8,9,2,8,0,C,1,S,6,S,13,0.781365,0.498809,0.389752
3,75,8,9,2,9,0,C,1,S,7,L,12,0.750097,0.486873,0.365202
3,76,2,9,9,1,1,I,7,L,8,L,16,0.598401,0.750083,0.44885
3,77,8,1,8,9,1,I,7,L,1,S,11,0.796522,0.408462,0.325348
3,78,8,1,8,1,1,C,7,L,7,L,10,0.836892,0.324866,0.271878
3,79,2,1,9,1,1,C,1,S,8,L,14,0.767876,0.486683,0.373712
3,80,2,1,8,2,1,C,1,S,6,S,15,0.759883,0.508198,0.386171
3,81,2,9,8,9,1,C,7,L,1,S,11,0.417887,0.750061,0.313441
3,82,9,1,1,9,1,I,8,L,8,L,13,0.783398,0.518297,0.406033
3,83,1,8,2,8,1,C,7,L,6,S,10,0.340083,0.813974,0.276819
3,84,2,8,8,9,1,C,6,S,1,S,11,0.390161,0.786159,0.306728
3,85,1,9,9,1,1,I,8,L,8,L,13,0.529647,0.755114,0.399943
3,86,2,9,8,2,1,I,7,L,6,S,16,0.571896,0.770419,0.4406
3,87,8,2,8,9,1,I,6,S,1,S,10,0.771957,0.392433,0.302941
3,88,2,8,1,9,1,C,6,S,8,L,10,0.364983,0.783644,0.286017
3,89,1,2,1,2,1,C,1,S,1,S,16,0.475054,0.764086,0.362983
3,90,8,1,2,9,1,I,7,L,7,L,11,0.764014,0.44699,0.341506
3,91,2,1,9,8,0,C,1,S,1,S,15,0.482146,0.750442,0.361823
3,92,8,1,2,1,1,C,7,L,1,S,10,0.802521,0.351637,0.282196
3,93,8,1,8,2,1,C,7,L,6,S,9,0.754187,0.351307,0.264952
3,94,2,8,1,2,1,C,6,S,1,S,12,0.41014,0.795655,0.32633
3,95,2,8,9,8,1,I,6,S,1,S,11,0.422794,0.750119,0.317145
3,96,2,9,1,9,1,C,7,L,8,L,10,0.387615,0.755044,0.292666
3,97,1,2,9,2,0,I,1,S,7,L,14,0.759339,0.49464,0.375599
3,98,9,8,9,1,1,C,1,S,8,L,10,0.754851,0.384303,0.290091
3,99,8,9,9,1,0,I,1,S,8,L,10,0.814342,0.338068,0.275303
3,100,1,2,2,9,1,C,1,S,7,L,13,0.413201,0.804037,0.332229
3,101,1,8,1,9,1,C,7,L,8,L,9,0.354592,0.750037,0.265957
3,102,1,2,2,1,1,I,1,S,1,S,22,0.608088,0.773829,0.470556
3,103,2,8,1,8,1,C,6,S,7,L,10,0.36026,0.791464,0.285133
3,104,2,1,8,9,0,I,1,S,1,S,14,0.443775,0.787545,0.349493
3,105,9,2,1,2,1,I,7,L,1,S,10,0.78363,0.371309,0.290969
3,106,9,1,8,9,1,I,8,L,1,S,11,0.767547,0.429909,0.329975
3,107,1,2,8,1,1,I,1,S,7,L,23,0.649713,0.754582,0.490261
3,108,8,9,1,9,0,C,1,S,8,L,13,0.75144,0.540213,0.405938
3,109,9,2,1,8,1,I,7,L,7,L,12,0.782204,0.492819,0.385485
3,110,2,8,2,9,1,C,6,S,7,L,11,0.357654,0.824687,0.294952
3,111,8,1,9,1,1,C,7,L,8,L,9,0.769022,0.340142,0.261577
3,112,1,9,2,9,1,C,8,L,7,L,10,0.362976,0.781821,0.283782
3,113,9,1,9,2,1,C,8,L,7,L,9,0.753366,0.350951,0.264395
3,114,1,9,9,8,1,I,8,L,1,S,11,0.387956,0.795325,0.308551
3,115,8,9,9,2,0,I,1,S,7,L,10,0.82286,0.330825,0.272222
3,116,9,1,2,9,1,I,8,L,7,L,12,0.781146,0.466021,0.36403
3,117,9,8,2,1,1,C,1,S,1,S,11,0.756468,0.409708,0.309931
3,118,8,2,8,2,1,C,6,S,6,S,9,0.784342,0.326692,0.256238
3,119,2,1,2,1,0,C,1,S,1,S,23,0.629036,0.76242,0.47959
3,120,9,8,1,2,1,I,1,S,1,S,12,0.767654,0.431281,0.331075
3,121,1,8,9,8,1,I,7,L,1,S,11,0.368745,0.821671,0.302987
3,122,2,9,1,2,1,C,7,L,1,S,12,0.442383,0.752825,0.333037
3,123,8,2,9,1,1,C,6,S,8,L,9,0.799176,0.315527,0.252161
3,124,1,8,1,8,1,C,7,L,7,L,9,0.350754,0.756547,0.265362
3,125,1,9,1,8,1,C,8,L,7,L,10,0.330369,0.829239,0.273955
3,126,9,8,8,1,1,C,1,S,7,L,11,0.801589,0.37521,0.300764
3,127,9,8,1,9,1,I,1,S,8,L,16,0.763718,0.593981,0.453634
3,128,9,2,8,9,1,I,7,L,1,S,10,0.750505,0.408054,0.306247
3,129,2,9,2,9,1,C,7,L,7,L,11,0.38538,0.788589,0.303906
3,130,9,8,9,8,1,C,1,S,1,S,12,0.750112,0.451647,0.338786
3,131,2,9,2,8,1,C,7,L,6,S,11,0.378027,0.799799,0.302345
3,132,1,2,9,8,1,I,1,S,1,S,15,0.458551,0.773038,0.354478
3,133,8,9,8,1,0,I,1,S,7,L,10,0.785021,0.361106,0.283476
3,134,2,9,9,2,1,I,7,L,7,L,17,0.598339,0.772992,0.462512
3,135,9,2,9,2,1,C,7,L,7,L,9,0.786891,0.323375,0.254461
3,136,1,8,8,1,1,I,7,L,7,L,12,0.467788,0.775649,0.36284
3,137,2,1,1,8,0,I,1,S,7,L,12,0.411583,0.801175,0.32975
3,138,8,2,9,2,1,C,6,S,7,L,9,0.806024,0.309385,0.249372
3,139,8,1,1,9,1,I,7,L,8,L,12,0.774655,0.495774,0.384054
3,140,2,8,2,1,1,I,6,S,1,S,13,0.460194,0.783591,0.360603
3,141,9,8,8,2,1,C,1,S,6,S,11,0.814521,0.364399,0.296811
3,142,1,2,1,8,1,C,1,S,7,L,11,0.423806,0.751486,0.318484
3,143,8,2,9,8,1,C,6,S,1,S,10,0.796342,0.366488,0.291849
3,144,8,1,9,8,1,C,7,L,1,S,10,0.76233,0.393741,0.300161
4,1,9,8,1,8,1,I,1,S,7,L,14,0.753498,0.553154,0.4168
4,2,1,8,9,2,1,I,7,L,7,L,11,0.421245,0.800452,0.337187
4,3,8,2,1,9,1,I,6,S,8,L,10,0.765176,0.428931,0.328208
4,4,8,1,8,2,1,C,7,L,6,S,9,0.760837,0.344068,0.26178
4,5,1,9,8,1,1,I,8,L,7,L,11,0.454014,0.772129,0.350558
4,6,2,1,2,8,0,I,1,S,6,S,11,0.400182,0.767719,0.307227
4,7,1,9,9,1,1,I,8,L,8,L,11,0.445604,0.780505,0.347796
4,8,2,9,2,9,1,C,7,L,7,L,10,0.362227,0.787039,0.285087
4,9,9,2,9,8,1,C,7,L,1,S,9,0.765797,0.349707,0.267805
4,10,8,2,8,9,1,I,6,S,1,S,9,0.777634,0.341508,0.265568
4,11,9,1,1,9,1,I,8,L,8,L,12,0.758184,0.505249,0.383072
4,12,9,8,9,8,1,C,1,S,1,S,11,0.762178,0.409834,0.312366
4,13,2,9,9,1,1,I,7,L,8,L,13,0.523075,0.757634,0.3963
4,14,9,2,9,1,1,C,7,L,8,L,9,0.816985,0.307188,0.250968
4,15,2,8,9,8,1,I,6,S,1,S,11,0.4168,0.764372,0.31859
4,16,1,8,1,2,1,C,7,L,1,S,9,0.352165,0.758355,0.267066
4,17,9,8,2,8,1,I,1,S,6,S,14,0.783818,0.512745,0.401899
4,18,8,9,9,8,0,I,1,S,1,S,11,0.817929,0.369961,0.302601
4,19,9,8,8,2,1,C,1,S,6,S,10,0.761122,0.378229,0.287879
4,20,9,1,9,8,1,C,8,L,1,S,10,0.768556,0.379194,0.291432
4,21,2,9,1,2,1,C,7,L,1,S,11,0.360117,0.826504,0.297638
4,22,8,9,1,8,0,C,1,S,7,L,13,0.782967,0.507546,0.397392
4,23,1,8,9,8,1,I,7,L,1,S,10,0.369955,0.791907,0.29297
4,24,2,1,1,2,0,I,1,S,1,S,12,0.391873,0.807171,0.316308
4,25,2,8,1,2,1,C,6,S,1,S,10,0.383432,0.75902,0.291033
4,26,8,1,8,1,1,C,7,L,7,L,9,0.771603,0.335903,0.259184
4,27,9,2,8,1,1,C,7,L,7,L,9,0.822466,0.300736,0.247345
4,28,2,9,1,8,1,C,7,L,7,L,10,0.353515,0.796243,0.281484
4,29,2,1,1,9,0,I,1,S,8,L,11,0.365385,0.816574,0.298364
4,30,2,9,1,9,1,C,7,L,8,L,10,0.34405,0.811193,0.279091
4,31,9,1,2,9,1,I,8,L,7,L,12,0.78138,0.473868,0.370271
4,32,8,2,9,1,1,C,6,S,8,L,9,0.831592,0.296651,0.246693
4,33,8,1,2,8,1,I,7,L,6,S,11,0.775792,0.435064,0.337519
4,34,9,1,1,2,1,I,8,L,1,S,11,0.775575,0.424254,0.32904
4,35,9,2,2,1,1,C,7,L,1,S,9,0.762369,0.355363,0.270918
4,36,2,1,2,1,0,C,1,S,1,S,13,0.453167,0.766301,0.347262
4,37,1,9,9,8,1,I,8,L,1,S,10,0.376242,0.78546,0.295523
4,38,9,8,2,1,1,C,1,S,1,S,11,0.754246,0.419773,0.316612
4,39,2,1,1,8,0,I,1,S,7,L,11,0.37653,0.799196,0.300921
4,40,2,8,9,1,1,I,6,S,8,L,13,0.510415,0.772241,0.394164
4,41,2,8,2,9,1,C,6,S,7,L,10,0.351909,0.798238,0.280907
4,42,9,1,8,1,1,C,8,L,7,L,9,0.75141,0.350972,0.263724
4,43,1,9,2,1,1,I,8,L,1,S,10,0.370902,0.792981,0.294118
4,44,9,2,8,2,1,C,7,L,6,S,9,0.8117,0.3089,0.250734
4,45,1,2,2,1,1,I,1,S,1,S,13,0.464794,0.754015,0.350462
4,46,9,2,9,2,1,C,7,L,7,L,9,0.805745,0.315927,0.254557
4,47,1,2,9,2,1,I,1,S,7,L,17,0.586073,0.769597,0.45104
4,48,2,8,2,8,1,C,6,S,6,S,10,0.363053,0.781638,0.283776
4,49,2,1,8,1,0,C,1,S,7,L,17,0.602357,0.758712,0.457016
4,50,8,9,8,1,0,I,1,S,7,L,10,0.822383,0.333755,0.274474
4,51,8,1,9,2,1,C,7,L,7,L,9,0.754882,0.351095,0.265035
4,52,9,8,9,2,1,C,1,S,7,L,10,0.753139,0.386669,0.291216
4,53,9,2,2,9,1,I,7,L,7,L,10,0.767672,0.41618,0.31949
4,54,8,1,9,1,1,C,7,L,8,L,9,0.766122,0.342356,0.262286
4,55,9,8,2,9,1,I,1,S,7,L,14,0.764885,0.540092,0.413108
4,56,8,2,9,8,1,C,6,S,1,S,9,0.780405,0.33917,0.26469
4,57,9,8,9,1,1,C,1,S,8,L,10,0.76778,0.375594,0.288374
4,58,8,1,9,8,1,C,7,L,1,S,10,0.791997,0.36194,0.286655
4,59,9,1,2,8,1,I,8,L,6,S,11,0.750253,0.453883,0.340527
4,60,8,2,8,1,1,C,6,S,7,L,9,0.837074,0.290199,0.242918
4,61,9,1,1,8,1,I,8,L,7,L,12,0.770629,0.486173,0.374659
4,62,1,9,8,9,1,C,8,L,1,S,10,0.372346,0.788824,0.293716
4,63,8,1,2,9,1,I,7,L,7,L,11,0.762037,0.455522,0.347125
4,64,8,9,8,2,0,I,1,S,6,S,10,0.808645,0.343914,0.278105
4,65,2,8,8,9,1,C,6,S,1,S,11,0.41139,0.769087,0.316395
4,66,9,8,1,2,1,I,1,S,1,S,13,0.78124,0.472819,0.369385
4,67,2,1,9,8,0,C,1,S,1,S,14,0.451791,0.793828,0.358644
4,68,8,2,8,2,1,C,6,S,6,S,9,0.826307,0.298363,0.24654
4,69,9,8,8,1,1,C,1,S,7,L,10,0.77486,0.36807,0.285203
4,70,8,9,8,9,0,C,1,S,1,S,11,0.812519,0.374676,0.304431
4,71,8,2,1,2,1,I,6,S,1,S,10,0.814876,0.36556,0.297886
4,72,9,1,9,1,1,C,8,L,8,L,10,0.838442,0.322275,0.270209
4,73,1,2,1,8,1,C,1,S,7,L,11,0.385488,0.79098,0.304913
4,74,1,9,1,8,1,C,8,L,7,L,9,0.326587,0.788728,0.257588
4,75,1,9,9,2,1,I,8,L,7,L,11,0.42772,0.793755,0.339505
4,76,2,8,1,8,1,C,6,S,7,L,10,0.343196,0.807443,0.277111
4,77,1,2,2,8,1,C,1,S,6,S,11,0.40914,0.759502,0.310743
4,78,2,1,9,1,0,C,1,S,8,L,17,0.594527,0.766757,0.455858
4,79,8,1,2,1,1,C,7,L,1,S,10,0.786656,0.36946,0.290638
4,80,9,1,2,1,1,C,8,L,1,S,10,0.763216,0.386714,0.295146
4,81,1,2,1,2,1,C,1,S,1,S,12,0.402289,0.796776,0.320535
4,82,2,1,9,2,0,C,1,S,7,L,16,0.58039,0.753194,0.437147
4,83,2,1,8,2,0,C,1,S,6,S,17,0.584228,0.772956,0.451583
4,84,8,9,2,1,0,I,1,S,1,S,11,0.809997,0.3799,0.307718
4,85,1,9,2,8,1,C,8,L,6,S,9,0.342353,0.768889,0.263232
4,86,8,2,2,8,1,I,6,S,6,S,10,0.794498,0.388177,0.308406
4,87,9,2,1,9,1,I,7,L,8,L,11,0.800605,0.44187,0.353763
4,88,2,8,8,1,1,I,6,S,7,L,13,0.520092,0.763038,0.39685
4,89,2,9,2,8,1,C,7,L,6,S,10,0.373372,0.770439,0.28766
4,90,1,2,8,1,1,I,1,S,7,L,18,0.603544,0.775534,0.468069
4,91,1,8,9,1,1,I,7,L,8,L,11,0.43913,0.787201,0.345683
4,92,1,8,8,2,1,I,7,L,6,S,11,0.43113,0.790765,0.340922
4,93,1,2,9,1,1,I,1,S,8,L,17,0.607307,0.75287,0.457223
4,94,9,2,2,8,1,I,7,L,6,S,10,0.778817,0.399581,0.3112
4,95,1,9,8,2,1,I,8,L,6,S,11,0.437604,0.784069,0.343112
4,96,2,9,2,1,1,I,7,L,1,S,11,0.420366,0.7613,0.320025
4,97,1,8,1,8,1,C,7,L,7,L,9,0.320711,0.794552,0.254821
4,98,1,9,2,9,1,C,8,L,7,L,9,0.333887,0.781612,0.26097
4,99,2,1,2,9,0,I,1,S,7,L,11,0.386427,0.788177,0.304573
4,100,2,8,8,2,1,I,6,S,6,S,13,0.50047,0.777343,0.389037
4,101,8,2,1,8,1,I,6,S,7,L,10,0.774641,0.413982,0.320687
4,102,1,8,1,9,1,C,7,L,8,L,9,0.313175,0.806618,0.252613
4,103,8,2,9,2,1,C,6,S,7,L,9,0.820352,0.30539,0.250527
4,104,1,2,9,8,1,I,1,S,1,S,14,0.464273,0.780201,0.362226
4,105,9,1,8,9,1,I,8,L,1,S,10,0.76466,0.382558,0.292527
4,106,2,1,8,9,0,I,1,S,1,S,13,0.459047,0.758026,0.347969
4,107,8,9,2,8,0,C,1,S,6,S,12,0.770172,0.472088,0.363589
4,108,2,9,8,2,1,I,7,L,6,S,13,0.51313,0.762736,0.391383
4,109,1,8,2,1,1,I,7,L,1,S,10,0.364614,0.799427,0.291483
4,110,9,2,1,8,1,I,7,L,7,L,10,0.75896,0.425385,0.32285
4,111,2,9,8,9,1,C,7,L,1,S,11,0.422889,0.756075,0.319736
4,112,1,2,8,9,1,C,1,S,1,S,14,0.450893,0.791457,0.356862
4,113,9,2,1,2,1,I,7,L,1,S,10,0.799195,0.376963,0.301267
4,114,8,9,9,1,0,I,1,S,8,L,10,0.815302,0.341279,0.278246
4,115,1,8,8,1,1,I,7,L,7,L,11,0.44754,0.778825,0.348556
4,116,8,1,1,9,1,I,7,L,8,L,12,0.784669,0.485503,0.380959
4,117,1,2,1,9,1,C,1,S,8,L,11,0.374343,0.808357,0.302603
4,118,8,9,9,2,0,I,1,S,7,L,10,0.800662,0.352354,0.282117
4,119,8,2,2,1,1,C,6,S,1,S,9,0.776976,0.344826,0.267922
4,120,1,9,1,9,1,C,8,L,8,L,9,0.319052,0.800794,0.255495
4,121,1,2,8,2,1,I,1,S,6,S,17,0.597008,0.759069,0.45317
4,122,2,8,1,9,1,C,6,S,8,L,10,0.333731,0.822392,0.274458
4,123,8,2,2,9,1,I,6,S,7,L,10,0.783353,0.404777,0.317083
4,124,8,1,1,8,1,I,7,L,7,L,11,0.75214,0.466541,0.350904
4,125,2,9,9,2,1,I,7,L,7,L,13,0.500859,0.773967,0.387649
4,126,1,9,1,2,1,C,8,L,1,S,9,0.358041,0.752531,0.269437
4,127,2,8,2,1,1,I,6,S,1,S,11,0.408868,0.774312,0.316591
4,128,1,8,2,8,1,C,7,L,6,S,9,0.336477,0.774713,0.260673
4,129,9,2,8,9,1,I,7,L,1,S,9,0.763027,0.352045,0.268619
4,130,9,8,1,9,1,I,1,S,8,L,15,0.77297,0.568968,0.439795
4,131,8,9,1,2,0,C,1,S,1,S,12,0.800196,0.435496,0.348482
4,132,1,2,2,9,1,C,1,S,7,L,11,0.395385,0.779961,0.308385
4,133,9,1,8,2,1,C,8,L,6,S,10,0.831784,0.32491,0.270255
4,134,9,1,9,2,1,C,8,L,7,L,10,0.823801,0.333351,0.274615
4,135,1,8,8,9,1,C,7,L,1,S,10,0.366059,0.795271,0.291116
4,136,2,9,8,1,1,I,7,L,7,L,14,0.530562,0.784443,0.416196
4,137,2,9,9,8,1,I,7,L,1,S,11,0.428299,0.75136,0.321806
4,138,8,1,8,9,1,I,7,L,1,S,10,0.788101,0.365304,0.287896
4,139,2,8,9,2,1,I,6,S,7,L,13,0.4882,0.788574,0.384982
4,140,1,8,2,9,1,C,7,L,7,L,9,0.328011,0.787436,0.258288
4,141,8,1,1,2,1,I,7,L,1,S,11,0.801113,0.405435,0.324799
4,142,8,9,1,9,0,C,1,S,8,L,13,0.769648,0.527529,0.406012
4,143,9,8,8,9,1,I,1,S,1,S,11,0.756768,0.414549,0.313717
4,144,8,9,2,9,0,C,1,S,7,L,12,0.754148,0.49584,0.373937
5,1,8,1,8,2,1,C,7,L,6,S,10,0.814451,0.342675,0.279092
5,2,9,8,8,2,1,C,1,S,6,S,11,0.795878,0.387836,0.30867
5,3,2,9,8,2,1,I,7,L,6,S,16,0.609978,0.753053,0.459346
5,4,1,2,2,1,1,I,1,S,1,S,20,0.586267,0.754204,0.442165
5,5,8,1,1,2,1,I,7,L,1,S,12,0.802477,0.405314,0.325255
5,6,1,2,2,8,1,C,1,S,6,S,11,0.404956,0.772696,0.312908
5,7,9,1,2,8,1,I,8,L,6,S,15,0.755917,0.596391,0.450822
5,8,8,9,2,9,1,C,1,S,7,L,12,0.437183,0.770904,0.337026
5,9,1,8,9,8,1,I,7,L,1,S,12,0.412064,0.798404,0.328994
5,10,1,9,8,2,1,I,8,L,6,S,14,0.575645,0.752837,0.433367
5,11,1,2,2,9,1,C,1,S,7,L,11,0.416427,0.757187,0.315313
5,12,2,1,9,1,1,C,1,S,8,L,11,0.752649,0.428055,0.322175
5,13,8,1,8,1,1,C,7,L,7,L,10,0.832166,0.330662,0.275166
5,14,8,2,2,8,1,I,6,S,6,S,15,0.778408,0.578197,0.450073
5,15,2,1,2,9,0,I,1,S,7,L,12,0.423319,0.78113,0.330667
5,16,2,1,9,8,0,C,1,S,1,S,29,0.629573,0.779951,0.491036
5,17,8,2,1,2,1,I,6,S,1,S,11,0.777403,0.403782,0.313901
5,18,2,8,9,2,1,I,6,S,7,L,17,0.614728,0.759974,0.467177
5,19,1,2,9,8,1,I,1,S,1,S,20,0.560141,0.77358,0.433314
5,20,2,8,1,2,1,C,6,S,1,S,12,0.441581,0.751728,0.331949
5,21,1,8,1,2,1,C,7,L,1,S,11,0.416945,0.75754,0.315853
5,22,9,8,8,1,1,C,1,S,7,L,11,0.814679,0.374883,0.305409
5,23,8,1,2,8,1,I,7,L,6,S,16,0.766127,0.604065,0.462791
5,24,8,2,1,9,1,I,6,S,8,L,14,0.765835,0.558697,0.42787
5,25,8,1,2,9,1,I,7,L,7,L,16,0.777488,0.590046,0.458753
5,26,1,2,9,1,0,I,1,S,8,L,12,0.765232,0.45071,0.344898
5,27,8,2,2,1,1,C,6,S,1,S,11,0.79721,0.384414,0.306459
5,28,8,2,2,9,1,I,6,S,7,L,14,0.756528,0.569168,0.430591
5,29,2,1,2,1,1,C,1,S,1,S,20,0.760517,0.530776,0.403664
5,30,9,1,9,2,1,C,8,L,7,L,10,0.825617,0.33279,0.274757
5,31,9,2,1,2,1,I,7,L,1,S,11,0.79292,0.392646,0.311337
5,32,8,9,9,2,0,I,1,S,7,L,12,0.791492,0.419504,0.332034
5,33,8,2,8,1,1,C,6,S,7,L,9,0.767943,0.343358,0.263679
5,34,9,1,1,8,1,I,8,L,7,L,15,0.763164,0.588699,0.449274
5,35,8,9,2,1,0,I,1,S,1,S,17,0.770589,0.483099,0.372271
5,36,2,9,1,2,1,C,7,L,1,S,12,0.424521,0.774908,0.328965
5,37,8,2,8,2,1,C,6,S,6,S,9,0.752144,0.353998,0.266257
5,38,1,9,9,1,1,I,8,L,8,L,15,0.583107,0.774825,0.451806
5,39,1,9,8,1,1,I,8,L,7,L,15,0.586977,0.772937,0.453696
5,40,8,9,2,8,1,C,1,S,6,S,12,0.425151,0.78699,0.33459
5,41,8,2,9,2,1,C,6,S,7,L,10,0.841773,0.319514,0.268959
5,42,2,1,1,2,0,I,1,S,1,S,26,0.602386,0.76117,0.458518
5,43,1,8,8,2,1,I,7,L,6,S,15,0.583219,0.767892,0.44785
5,44,2,1,8,2,1,C,1,S,6,S,12,0.781813,0.42798,0.3346
5,45,8,2,9,8,1,C,6,S,1,S,11,0.791006,0.388843,0.307577
5,46,9,1,1,9,1,I,8,L,8,L,15,0.776737,0.571599,0.443982
5,47,2,9,1,8,1,C,7,L,7,L,10,0.349589,0.797571,0.278822
5,48,2,9,8,1,1,I,7,L,7,L,17,0.614031,0.77193,0.473988
5,49,9,8,8,9,1,I,1,S,1,S,13,0.792724,0.422055,0.334573
5,50,2,8,1,9,1,C,6,S,8,L,10,0.373276,0.766305,0.286043
5,51,2,1,8,1,1,C,1,S,7,L,11,0.756307,0.426706,0.322721
5,52,9,2,2,9,1,I,7,L,7,L,14,0.77439,0.555922,0.4305
5,53,9,2,9,2,1,C,7,L,7,L,9,0.759683,0.346968,0.263586
5,54,8,9,9,1,0,I,1,S,8,L,11,0.763161,0.421156,0.32141
5,55,8,1,1,8,1,I,7,L,7,L,16,0.77295,0.597019,0.461466
5,56,8,2,9,1,1,C,6,S,8,L,9,0.764918,0.344151,0.263247
5,57,8,2,8,9,1,I,6,S,1,S,11,0.828845,0.358344,0.297012
5,58,9,8,9,1,1,C,1,S,8,L,11,0.81102,0.376233,0.305132
5,59,1,8,1,9,1,C,7,L,8,L,10,0.337455,0.81373,0.274597
5,60,9,2,9,1,1,C,7,L,8,L,9,0.775593,0.336278,0.260815
5,61,9,2,2,1,1,C,7,L,1,S,11,0.812727,0.373279,0.303374
5,62,9,8,1,8,0,I,1,S,7,L,14,0.518605,0.75398,0.391018
5,63,1,9,1,2,1,C,8,L,1,S,11,0.40544,0.773562,0.313633
5,64,1,9,2,9,1,C,8,L,7,L,10,0.319178,0.836784,0.267083
5,65,1,9,1,8,1,C,8,L,7,L,10,0.315883,0.84299,0.266286
5,66,9,1,9,8,1,C,8,L,1,S,11,0.771759,0.404174,0.311925
5,67,1,9,9,2,1,I,8,L,7,L,14,0.571307,0.754914,0.431288
5,68,2,9,2,9,1,C,7,L,7,L,10,0.352884,0.791364,0.27926
5,69,9,1,2,1,1,C,8,L,1,S,11,0.777964,0.399746,0.310988
5,70,9,1,8,9,1,I,8,L,1,S,11,0.809599,0.373676,0.302528
5,71,9,1,8,1,1,C,8,L,7,L,9,0.75532,0.354246,0.26757
5,72,2,1,9,2,1,C,1,S,7,L,12,0.777627,0.42973,0.33417
5,73,9,8,1,2,1,I,1,S,1,S,15,0.796697,0.442564,0.352589
5,74,8,1,8,9,1,I,7,L,1,S,11,0.79158,0.386935,0.30629
5,75,9,8,2,8,0,I,1,S,6,S,14,0.51102,0.762232,0.389516
5,76,9,8,2,9,0,I,1,S,7,L,15,0.541261,0.752864,0.407496
5,77,2,9,9,1,1,I,7,L,8,L,17,0.610281,0.773866,0.472276
5,78,2,8,2,9,1,C,6,S,7,L,10,0.364966,0.775628,0.283078
5,79,2,8,8,9,1,C,6,S,1,S,14,0.503631,0.766914,0.386242
5,80,2,9,9,2,1,I,7,L,7,L,16,0.605725,0.755259,0.457479
5,81,9,2,9,8,1,C,7,L,1,S,11,0.806523,0.377707,0.304629
5,82,2,1,1,9,0,I,1,S,8,L,12,0.432683,0.770317,0.333303
5,83,2,9,2,1,1,I,7,L,1,S,13,0.436293,0.797068,0.347755
5,84,9,2,8,1,1,C,7,L,7,L,9,0.778618,0.335485,0.261214
5,85,2,1,8,9,1,I,1,S,1,S,16,0.773069,0.484653,0.37467
5,86,8,1,9,8,1,C,7,L,1,S,11,0.75374,0.417433,0.314636
5,87,1,9,9,8,1,I,8,L,1,S,11,0.419043,0.758623,0.317895
5,88,8,9,1,9,1,C,1,S,8,L,12,0.446548,0.760091,0.339417
5,89,8,9,8,9,0,C,1,S,1,S,15,0.777154,0.467776,0.363534
5,90,9,8,1,9,1,I,1,S,8,L,22,0.767411,0.647604,0.496979
5,91,1,8,2,9,1,C,7,L,7,L,10,0.329145,0.823054,0.270904
5,92,9,2,8,9,1,I,7,L,1,S,10,0.76272,0.382956,0.292088
5,93,1,9,2,1,1,I,8,L,1,S,11,0.425247,0.754195,0.320719
5,94,2,8,2,1,1,I,6,S,1,S,13,0.455158,0.771313,0.351069
5,95,2,9,9,8,1,I,7,L,1,S,12,0.443648,0.755062,0.334982
5,96,9,1,9,1,1,C,8,L,8,L,9,0.752295,0.35504,0.267094
5,97,8,9,9,8,0,I,1,S,1,S,18,0.7818,0.47669,0.372676
5,98,8,2,1,8,1,I,6,S,7,L,14,0.751959,0.576553,0.433544
5,99,1,8,1,8,1,C,7,L,7,L,10,0.32585,0.82926,0.270214
5,100,2,1,1,8,0,I,1,S,7,L,12,0.419123,0.788396,0.330435
5,101,9,8,9,2,1,C,1,S,7,L,11,0.791919,0.389335,0.308322
5,102,1,8,2,1,1,I,7,L,1,S,12,0.420383,0.792269,0.333056
5,103,2,8,9,1,1,I,6,S,8,L,18,0.616117,0.778403,0.479588
5,104,8,1,9,1,1,C,7,L,8,L,10,0.828768,0.331755,0.274948
5,105,2,9,8,9,1,C,7,L,1,S,13,0.4889,0.755911,0.369565
5,106,1,2,8,9,1,C,1,S,1,S,22,0.634733,0.753501,0.478272
5,107,9,1,2,9,1,I,8,L,7,L,15,0.767757,0.581479,0.446435
5,108,1,9,1,9,1,C,8,L,8,L,10,0.327488,0.82746,0.270983
5,109,9,2,2,8,1,I,7,L,6,S,14,0.762236,0.571558,0.435662
5,110,2,8,8,1,1,I,6,S,7,L,18,0.619793,0.776474,0.481253
5,111,8,1,2,1,1,C,7,L,1,S,11,0.759945,0.413005,0.313861
5,112,8,9,1,8,1,C,1,S,7,L,12,0.432987,0.77817,0.336938
5,113,8,9,8,2,0,I,1,S,6,S,12,0.795677,0.417754,0.332397
5,114,1,2,9,2,0,I,1,S,7,L,13,0.774364,0.463605,0.358999
5,115,8,1,9,2,1,C,7,L,7,L,10,0.810843,0.343867,0.278822
5,116,1,2,1,9,1,C,1,S,8,L,12,0.400767,0.804966,0.322604
5,117,1,8,8,9,1,C,7,L,1,S,12,0.46203,0.758819,0.350597
5,118,1,8,8,1,1,I,7,L,7,L,15,0.600698,0.754753,0.453378
5,119,9,8,2,1,1,C,1,S,1,S,14,0.796035,0.429972,0.342273
5,120,1,8,2,8,1,C,7,L,6,S,10,0.318622,0.837286,0.266778
5,121,2,8,8,2,1,I,6,S,6,S,17,0.618897,0.757755,0.468973
5,122,9,2,1,8,1,I,7,L,7,L,14,0.769821,0.563306,0.433645
5,123,2,9,2,8,1,C,7,L,6,S,10,0.342362,0.805596,0.275805
5,124,1,9,8,9,1,C,8,L,1,S,12,0.44937,0.776431,0.348905
5,125,8,1,1,9,1,I,7,L,8,L,15,0.753761,0.588929,0.443912
5,126,2,1,2,8,0,I,1,S,6,S,12,0.411287,0.797216,0.327884
5,127,2,8,1,8,1,C,6,S,7,L,10,0.361671,0.781835,0.282767
5,128,1,9,2,8,1,C,8,L,6,S,9,0.345344,0.756204,0.261151
5,129,2,9,1,9,1,C,7,L,8,L,10,0.361194,0.78204,0.282468
5,130,1,2,8,1,0,I,1,S,7,L,12,0.769046,0.449154,0.34542
5,131,1,2,1,8,1,C,1,S,7,L,11,0.412614,0.764059,0.315262
5,132,9,2,8,2,1,C,7,L,6,S,9,0.762819,0.346125,0.264031
5,133,1,8,9,2,1,I,7,L,7,L,15,0.578905,0.770054,0.445788
5,134,9,2,1,9,1,I,7,L,8,L,14,0.783698,0.545451,0.427468
5,135,1,2,1,2,1,C,1,S,1,S,17,0.503767,0.75331,0.379493
5,136,8,9,1,2,0,C,1,S,1,S,20,0.75156,0.505279,0.379747
5,137,8,9,8,1,0,I,1,S,7,L,11,0.76682,0.419806,0.321916
5,138,2,8,9,8,1,I,6,S,1,S,13,0.444184,0.779489,0.346237
5,139,1,2,8,2,0,I,1,S,6,S,13,0.778667,0.461663,0.359482
5,140,9,8,9,8,1,C,1,S,1,S,14,0.78192,0.44044,0.344389
5,141,2,8,2,8,1,C,6,S,6,S,10,0.354444,0.78986,0.279961
5,142,1,8,9,1,1,I,7,L,8,L,15,0.596828,0.756641,0.451584
5,143,9,1,8,2,1,C,8,L,6,S,10,0.829225,0.331598,0.274969
5,144,9,1,1,2,1,I,8,L,1,S,11,0.758157,0.419113,0.317753
6,1,9,2,9,2,1,C,7,L,7,L,11,0.788375,0.388966,0.306651
6,2,8,1,9,1,1,C,7,L,8,L,10,0.825365,0.331026,0.273217
6,3,2,8,9,8,1,I,6,S,1,S,10,0.362877,0.802515,0.291215
6,4,2,1,1,2,1,I,1,S,1,S,19,0.762198,0.529567,0.403635
6,5,8,1,1,9,1,I,7,L,8,L,14,0.765504,0.553405,0.423634
6,6,8,2,8,2,1,C,6,S,6,S,12,0.79795,0.400683,0.319725
6,7,9,8,1,9,0,I,1,S,8,L,10,0.321465,0.838658,0.269599
6,8,2,8,2,9,1,C,6,S,7,L,9,0.297225,0.821533,0.24418
6,9,1,9,1,9,1,C,8,L,8,L,11,0.387873,0.788672,0.305904
6,10,1,2,9,2,0,I,1,S,7,L,13,0.781962,0.446998,0.349536
6,11,8,1,8,2,1,C,7,L,6,S,10,0.774157,0.368292,0.285116
6,12,9,1,8,2,1,C,8,L,6,S,10,0.784338,0.359798,0.282203
6,13,8,1,2,8,1,I,7,L,6,S,14,0.762991,0.556878,0.424893
6,14,2,8,1,9,1,C,6,S,8,L,9,0.303067,0.815736,0.247223
6,15,8,2,8,9,1,I,6,S,1,S,17,0.75977,0.554302,0.421142
6,16,9,2,2,9,1,I,7,L,7,L,19,0.756233,0.635372,0.48049
6,17,8,2,2,8,1,I,6,S,6,S,21,0.778212,0.632538,0.492249
6,18,1,9,9,8,1,I,8,L,1,S,15,0.479412,0.782833,0.3753
6,19,1,2,1,9,1,C,1,S,8,L,12,0.440731,0.762469,0.336044
6,20,2,1,8,9,1,I,1,S,1,S,23,0.776562,0.610376,0.473995
6,21,2,8,2,8,1,C,6,S,6,S,9,0.30149,0.818014,0.246623
6,22,8,2,8,1,1,C,6,S,7,L,11,0.762636,0.408042,0.311188
6,23,2,1,1,9,0,I,1,S,8,L,14,0.480762,0.770607,0.370479
6,24,9,2,2,8,1,I,7,L,6,S,19,0.759578,0.632896,0.480734
6,25,8,2,2,9,1,I,6,S,7,L,21,0.77559,0.634149,0.491839
6,26,2,8,1,2,1,C,6,S,1,S,10,0.33983,0.823646,0.279899
6,27,1,9,8,2,1,I,8,L,6,S,18,0.609167,0.754933,0.45988
6,28,9,8,8,1,0,C,1,S,7,L,13,0.513063,0.776502,0.398394
6,29,2,9,9,8,1,I,7,L,1,S,12,0.424855,0.784409,0.33326
6,30,1,2,9,1,0,I,1,S,8,L,12,0.766583,0.441324,0.338311
6,31,9,8,9,8,0,C,1,S,1,S,11,0.406814,0.783316,0.318664
6,32,8,9,8,9,1,C,1,S,1,S,15,0.459081,0.77494,0.35576
6,33,2,9,9,1,1,I,7,L,8,L,15,0.581947,0.760422,0.442525
6,34,1,2,8,2,0,I,1,S,6,S,14,0.774452,0.463576,0.359017
6,35,2,1,9,2,1,C,1,S,7,L,12,0.785622,0.413522,0.324872
6,36,9,8,8,2,0,C,1,S,6,S,12,0.480645,0.762243,0.366368
6,37,2,9,8,9,1,C,7,L,1,S,11,0.382182,0.788051,0.301179
6,38,8,9,9,1,0,I,1,S,8,L,12,0.758342,0.449521,0.340891
6,39,9,2,8,1,1,C,7,L,7,L,11,0.781522,0.391065,0.305626
6,40,1,8,8,1,1,I,7,L,7,L,12,0.47835,0.784636,0.37533
6,41,8,9,8,1,0,I,1,S,7,L,13,0.762648,0.461608,0.352045
6,42,9,2,1,2,1,I,7,L,1,S,14,0.767016,0.468813,0.359587
6,43,2,8,8,2,1,I,6,S,6,S,10,0.418977,0.750783,0.314561
6,44,8,2,9,8,1,C,6,S,1,S,13,0.752564,0.456553,0.343585
6,45,9,1,9,2,1,C,8,L,7,L,10,0.814808,0.338727,0.275997
6,46,1,9,2,9,1,C,8,L,7,L,11,0.380654,0.796585,0.303223
6,47,2,1,2,8,0,I,1,S,6,S,14,0.478248,0.77408,0.370202
6,48,2,8,1,8,1,C,6,S,7,L,9,0.307682,0.811864,0.249796
6,49,9,8,2,1,0,C,1,S,1,S,11,0.399474,0.785494,0.313784
6,50,2,9,2,8,1,C,7,L,6,S,10,0.350149,0.795746,0.278629
6,51,2,8,9,1,1,I,6,S,8,L,11,0.474798,0.762276,0.361927
6,52,1,9,9,2,1,I,8,L,7,L,19,0.632176,0.757088,0.478613
6,53,1,8,2,8,1,C,7,L,6,S,9,0.329763,0.78237,0.257996
6,54,8,9,1,2,1,C,1,S,1,S,17,0.478269,0.765657,0.36619
6,55,9,1,1,2,1,I,8,L,1,S,11,0.766081,0.414995,0.31792
6,56,9,2,2,1,1,C,7,L,1,S,13,0.771832,0.436818,0.33715
6,57,1,8,2,1,1,I,7,L,1,S,10,0.388374,0.763427,0.296496
6,58,2,1,1,8,0,I,1,S,7,L,14,0.486556,0.764915,0.372174
6,59,1,2,8,1,0,I,1,S,7,L,13,0.773825,0.450281,0.348438
6,60,1,9,1,8,1,C,8,L,7,L,11,0.393521,0.783191,0.308202
6,61,2,9,9,2,1,I,7,L,7,L,15,0.558404,0.779569,0.435314
6,62,9,2,1,9,1,I,7,L,8,L,19,0.761672,0.630255,0.480047
6,63,9,8,9,1,0,C,1,S,8,L,13,0.546204,0.753655,0.41165
6,64,1,8,9,2,1,I,7,L,7,L,12,0.485962,0.781894,0.379971
6,65,9,1,8,1,1,C,8,L,7,L,10,0.80891,0.34012,0.275127
6,66,8,9,9,8,1,I,1,S,1,S,25,0.632624,0.755073,0.477677
6,67,2,9,8,2,1,I,7,L,6,S,14,0.51858,0.77782,0.403362
6,68,8,2,1,2,1,I,6,S,1,S,15,0.769002,0.48075,0.369698
6,69,8,1,2,1,1,C,7,L,1,S,11,0.778876,0.396945,0.309171
6,70,9,1,2,8,1,I,8,L,6,S,14,0.776669,0.545783,0.423893
6,71,2,1,8,2,1,C,1,S,6,S,13,0.799492,0.414453,0.331352
6,72,2,9,8,1,1,I,7,L,7,L,14,0.554127,0.750217,0.415716
6,73,1,2,2,9,1,C,1,S,7,L,12,0.433191,0.770832,0.333918
6,74,9,1,2,1,1,C,8,L,1,S,11,0.790799,0.387298,0.306275
6,75,9,1,2,9,1,I,8,L,7,L,14,0.771666,0.550486,0.424791
6,76,9,1,1,8,1,I,8,L,7,L,14,0.784977,0.536618,0.421233
6,77,1,9,9,1,1,I,8,L,8,L,20,0.631913,0.77274,0.488305
6,78,8,2,9,1,1,C,6,S,8,L,11,0.792739,0.38801,0.30759
6,79,2,9,2,9,1,C,7,L,7,L,10,0.345406,0.800014,0.27633
6,80,9,8,9,2,0,C,1,S,7,L,13,0.5212,0.77322,0.403002
6,81,8,2,2,1,1,C,6,S,1,S,14,0.794832,0.430965,0.342545
6,82,2,8,9,2,1,I,6,S,7,L,11,0.451548,0.780209,0.352302
6,83,1,9,2,8,1,C,8,L,6,S,11,0.385704,0.791822,0.305409
6,84,1,8,9,8,1,I,7,L,1,S,10,0.39416,0.762527,0.300558
6,85,2,8,2,1,1,I,6,S,1,S,10,0.357092,0.803415,0.286893
6,86,1,8,1,9,1,C,7,L,8,L,9,0.33134,0.780092,0.258476
6,87,1,9,8,9,1,C,8,L,1,S,12,0.434717,0.750066,0.326067
6,88,1,2,1,2,1,C,1,S,1,S,18,0.484793,0.765438,0.371079
6,89,2,8,8,9,1,C,6,S,1,S,9,0.348351,0.757896,0.264014
6,90,8,9,8,2,0,I,1,S,6,S,14,0.759434,0.47909,0.363838
6,91,1,8,1,2,1,C,7,L,1,S,10,0.371113,0.783658,0.290825
6,92,9,8,8,9,0,I,1,S,1,S,10,0.379914,0.762476,0.289675
6,93,8,9,2,1,1,I,1,S,1,S,24,0.611484,0.751819,0.459726
6,94,8,9,9,2,0,I,1,S,7,L,13,0.770785,0.458326,0.353271
6,95,8,1,9,2,1,C,7,L,7,L,10,0.804628,0.347221,0.279384
6,96,9,2,9,1,1,C,7,L,8,L,11,0.811625,0.371032,0.301139
6,97,9,8,2,8,0,I,1,S,6,S,10,0.319561,0.841427,0.268888
6,98,1,8,1,8,1,C,7,L,7,L,9,0.335955,0.776221,0.260776
6,99,9,1,8,9,1,I,8,L,1,S,12,0.78964,0.430367,0.339835
6,100,2,8,8,1,1,I,6,S,7,L,11,0.444695,0.782308,0.347889
6,101,2,1,2,1,1,C,1,S,1,S,16,0.798634,0.437875,0.349702
6,102,9,2,8,2,1,C,7,L,6,S,11,0.752193,0.413879,0.311317
6,103,9,8,2,9,0,I,1,S,7,L,9,0.35138,0.751066,0.263909
6,104,2,1,8,1,1,C,1,S,7,L,12,0.77801,0.416263,0.323857
6,105,2,9,1,9,1,C,7,L,8,L,10,0.352052,0.792977,0.279169
6,106,9,1,1,9,1,I,8,L,8,L,14,0.779183,0.54231,0.422559
6,107,1,2,8,9,1,C,1,S,1,S,15,0.47906,0.753862,0.361145
6,108,8,9,2,9,1,C,1,S,7,L,12,0.424951,0.779029,0.331049
6,109,1,2,9,8,0,I,1,S,1,S,21,0.750413,0.551007,0.413483
6,110,9,8,1,8,0,I,1,S,7,L,10,0.326688,0.833853,0.27241
6,111,9,2,8,9,1,I,7,L,1,S,16,0.774594,0.524383,0.406184
6,112,8,1,9,8,1,C,7,L,1,S,11,0.786216,0.394767,0.310372
6,113,1,8,8,9,1,C,7,L,1,S,10,0.349848,0.803557,0.281123
6,114,1,2,2,8,1,C,1,S,6,S,12,0.438372,0.765858,0.33573
6,115,2,9,1,8,1,C,7,L,7,L,10,0.357275,0.788172,0.281594
6,116,8,1,2,9,1,I,7,L,7,L,14,0.757987,0.561581,0.425671
6,117,8,1,1,2,1,I,7,L,1,S,11,0.754157,0.424643,0.320247
6,118,2,9,2,1,1,I,7,L,1,S,12,0.415435,0.788308,0.327491
6,119,1,8,8,2,1,I,7,L,6,S,11,0.448533,0.762826,0.342153
6,120,1,8,2,9,1,C,7,L,7,L,9,0.325498,0.785889,0.255806
6,121,2,1,2,9,0,I,1,S,7,L,13,0.473952,0.754619,0.357653
6,122,9,2,9,8,1,C,7,L,1,S,13,0.784001,0.43069,0.337661
6,123,1,8,9,1,1,I,7,L,8,L,12,0.510603,0.762847,0.389512
6,124,1,9,2,1,1,I,8,L,1,S,14,0.477956,0.75302,0.359911
6,125,8,2,1,8,1,I,6,S,7,L,20,0.75307,0.645985,0.486472
6,126,9,2,1,8,1,I,7,L,7,L,19,0.765691,0.627,0.480088
6,127,8,2,1,9,1,I,6,S,8,L,21,0.780034,0.630278,0.491638
6,128,2,9,1,2,1,C,7,L,1,S,11,0.410522,0.759898,0.311955
6,129,1,2,2,1,1,I,1,S,1,S,28,0.641932,0.753597,0.483758
6,130,9,8,1,2,0,I,1,S,1,S,11,0.374755,0.813191,0.304748
6,131,2,1,9,8,1,C,1,S,1,S,15,0.768274,0.460171,0.353537
6,132,1,2,1,8,1,C,1,S,7,L,12,0.446604,0.756635,0.337916
6,133,8,1,8,9,1,I,7,L,1,S,12,0.77654,0.440838,0.342328
6,134,8,2,9,2,1,C,6,S,7,L,11,0.769489,0.405943,0.312369
6,135,8,9,1,9,1,C,1,S,8,L,12,0.432491,0.770666,0.333306
6,136,1,9,1,2,1,C,8,L,1,S,13,0.446343,0.762916,0.340522
6,137,2,1,9,1,1,C,1,S,8,L,11,0.753432,0.418041,0.314965
6,138,9,1,9,8,1,C,8,L,1,S,11,0.798139,0.38512,0.307379
6,139,8,9,1,8,1,C,1,S,7,L,12,0.438364,0.764832,0.335275
6,140,8,1,1,8,1,I,7,L,7,L,14,0.771298,0.547713,0.42245
6,141,8,9,2,8,1,C,1,S,6,S,12,0.430132,0.774055,0.332945
6,142,8,1,8,1,1,C,7,L,7,L,10,0.79873,0.348615,0.278449
6,143,9,1,9,1,1,C,8,L,8,L,10,0.835545,0.322531,0.269489
6,144,1,9,8,1,1,I,8,L,7,L,19,0.624066,0.761457,0.475199
7,1,2,9,2,1,1,I,7,L,1,S,11,0.396644,0.788722,0.312842
7,2,9,1,9,2,1,C,8,L,7,L,9,0.837623,0.285866,0.239448
7,3,9,8,1,2,1,I,1,S,1,S,24,0.765379,0.623469,0.477191
7,4,1,9,1,8,1,C,8,L,7,L,9,0.324405,0.787001,0.255307
7,5,2,8,8,1,1,I,6,S,7,L,12,0.461588,0.777796,0.359021
7,6,8,2,2,9,1,I,6,S,7,L,12,0.781043,0.488795,0.38177
7,7,8,1,8,9,1,I,7,L,1,S,10,0.790406,0.388409,0.307001
7,8,1,9,9,2,1,I,8,L,7,L,15,0.582171,0.781947,0.455227
7,9,8,2,2,1,1,C,6,S,1,S,10,0.782149,0.37273,0.291531
7,10,8,2,9,8,1,C,6,S,1,S,10,0.81401,0.341131,0.277684
7,11,2,9,2,8,1,C,7,L,6,S,10,0.357893,0.79142,0.283244
7,12,8,1,2,9,1,I,7,L,7,L,10,0.753331,0.437335,0.329458
7,13,8,1,2,1,1,C,7,L,1,S,9,0.766499,0.351565,0.269474
7,14,2,9,9,1,1,I,7,L,8,L,13,0.524548,0.764606,0.401073
7,15,1,2,1,9,1,C,1,S,8,L,10,0.341115,0.811546,0.276831
7,16,9,1,9,1,1,C,8,L,8,L,9,0.780316,0.328723,0.256508
7,17,2,1,8,1,1,C,1,S,7,L,12,0.814837,0.385933,0.314472
7,18,2,1,8,9,1,I,1,S,1,S,17,0.758658,0.586814,0.445191
7,19,9,1,2,1,1,C,8,L,1,S,10,0.784076,0.370954,0.290856
7,20,8,1,1,8,1,I,7,L,7,L,11,0.765562,0.492737,0.377221
7,21,2,8,8,9,1,C,6,S,1,S,10,0.351514,0.795717,0.279706
7,22,8,2,8,1,1,C,6,S,7,L,9,0.751128,0.353,0.265148
7,23,1,9,2,9,1,C,8,L,7,L,10,0.320064,0.837051,0.26791
7,24,2,9,8,2,1,I,7,L,6,S,14,0.575567,0.75949,0.437137
7,25,2,1,1,8,1,I,1,S,7,L,20,0.76955,0.642721,0.494606
7,26,2,9,9,8,1,I,7,L,1,S,12,0.429242,0.797751,0.342428
7,27,2,9,9,2,1,I,7,L,7,L,15,0.588035,0.777461,0.457174
7,28,8,9,9,2,0,I,1,S,7,L,9,0.777666,0.333662,0.259478
7,29,1,9,2,8,1,C,8,L,6,S,10,0.351785,0.795926,0.279995
7,30,2,1,2,8,1,I,1,S,6,S,18,0.778841,0.590534,0.459932
7,31,8,9,1,9,0,C,1,S,8,L,15,0.751075,0.61517,0.462039
7,32,9,2,2,1,1,C,7,L,1,S,11,0.754487,0.4179,0.3153
7,33,9,2,1,2,1,I,7,L,1,S,12,0.773799,0.437186,0.338294
7,34,8,2,2,8,1,I,6,S,6,S,11,0.774201,0.438388,0.3394
7,35,9,1,1,9,1,I,8,L,8,L,13,0.764283,0.562763,0.43011
7,36,1,2,9,1,1,I,1,S,8,L,18,0.603797,0.772702,0.466555
7,37,1,8,9,1,1,I,7,L,8,L,13,0.505443,0.783468,0.395998
7,38,1,8,1,8,1,C,7,L,7,L,9,0.314586,0.796398,0.250536
7,39,8,1,1,2,1,I,7,L,1,S,10,0.822568,0.351098,0.288802
7,40,8,1,9,1,1,C,7,L,8,L,9,0.836358,0.289905,0.242464
7,41,1,2,1,2,1,C,1,S,1,S,12,0.417844,0.768981,0.321314
7,42,8,1,1,9,1,I,7,L,8,L,12,0.791182,0.51693,0.408985
7,43,1,9,9,8,1,I,8,L,1,S,11,0.434898,0.750978,0.326599
7,44,2,8,2,1,1,I,6,S,1,S,11,0.383868,0.802433,0.308029
7,45,1,9,1,9,1,C,8,L,8,L,9,0.309909,0.806955,0.250083
7,46,1,8,2,1,1,I,7,L,1,S,11,0.378169,0.806635,0.305045
7,47,2,9,1,2,1,C,7,L,1,S,11,0.364706,0.821475,0.299597
7,48,9,1,2,9,1,I,8,L,7,L,12,0.783105,0.48691,0.381301
7,49,2,1,9,2,1,C,1,S,7,L,10,0.783814,0.365915,0.286809
7,50,9,8,2,8,0,I,1,S,6,S,15,0.498387,0.758124,0.377839
7,51,9,8,8,9,0,I,1,S,1,S,16,0.509894,0.760891,0.387974
7,52,1,2,8,1,1,I,1,S,7,L,16,0.570774,0.75338,0.430009
7,53,8,1,8,2,1,C,7,L,6,S,8,0.763839,0.298434,0.227955
7,54,2,9,8,9,1,C,7,L,1,S,10,0.363246,0.78362,0.284647
7,55,1,8,2,9,1,C,7,L,7,L,9,0.345812,0.753311,0.260504
7,56,8,9,8,2,0,I,1,S,6,S,9,0.75933,0.347286,0.263704
7,57,9,8,1,8,0,I,1,S,7,L,12,0.428474,0.786465,0.33698
7,58,2,8,2,8,1,C,6,S,6,S,10,0.346161,0.803518,0.278147
7,59,2,1,1,2,1,I,1,S,1,S,15,0.770723,0.501127,0.38623
7,60,8,9,8,9,0,C,1,S,1,S,13,0.789212,0.482636,0.380903
7,61,9,1,2,8,1,I,8,L,6,S,11,0.776245,0.436528,0.338852
7,62,2,8,1,8,1,C,6,S,7,L,9,0.319663,0.793254,0.253574
7,63,1,8,8,1,1,I,7,L,7,L,12,0.455877,0.782089,0.356536
7,64,2,8,1,2,1,C,6,S,1,S,10,0.383676,0.758406,0.290982
7,65,9,1,1,2,1,I,8,L,1,S,10,0.760766,0.394182,0.29988
7,66,9,8,2,1,1,C,1,S,1,S,18,0.772014,0.478508,0.369415
7,67,8,9,2,1,0,I,1,S,1,S,11,0.776817,0.405268,0.314819
7,68,8,2,1,2,1,I,6,S,1,S,10,0.75884,0.395958,0.300468
7,69,9,2,9,1,1,C,7,L,8,L,10,0.789071,0.354861,0.280011
7,70,1,8,1,2,1,C,7,L,1,S,10,0.378185,0.762221,0.288261
7,71,1,2,9,2,1,I,1,S,7,L,19,0.643739,0.756512,0.486996
7,72,9,1,9,8,1,C,8,L,1,S,10,0.815937,0.339355,0.276892
7,73,8,9,9,1,0,I,1,S,8,L,10,0.807994,0.344573,0.278413
7,74,9,2,9,8,1,C,7,L,1,S,11,0.799192,0.375056,0.299742
7,75,8,2,9,2,1,C,6,S,7,L,9,0.835923,0.287493,0.240322
7,76,2,8,9,2,1,I,6,S,7,L,14,0.582434,0.757788,0.441361
7,77,2,1,9,1,1,C,1,S,8,L,11,0.787988,0.386897,0.30487
7,78,1,9,8,9,1,C,8,L,1,S,10,0.357138,0.788125,0.28147
7,79,9,8,9,1,1,C,1,S,8,L,12,0.767772,0.428159,0.328728
7,80,9,2,8,1,1,C,7,L,7,L,10,0.753405,0.383115,0.288641
7,81,1,8,1,9,1,C,7,L,8,L,9,0.30009,0.816352,0.244979
7,82,2,9,1,8,1,C,7,L,7,L,9,0.329945,0.783385,0.258474
7,83,1,9,8,2,1,I,8,L,6,S,14,0.569334,0.764455,0.43523
7,84,9,8,1,9,0,I,1,S,8,L,11,0.41948,0.768474,0.322359
7,85,1,2,2,8,1,C,1,S,6,S,11,0.397187,0.768059,0.305063
7,86,9,1,1,8,1,I,8,L,7,L,13,0.780824,0.54138,0.422722
7,87,2,9,8,1,1,I,7,L,7,L,12,0.474961,0.763223,0.362501
7,88,1,9,9,1,1,I,8,L,8,L,13,0.518067,0.769883,0.398851
7,89,1,9,2,1,1,I,8,L,1,S,11,0.390193,0.793821,0.309743
7,90,2,8,9,1,1,I,6,S,8,L,13,0.510999,0.779339,0.398241
7,91,9,1,8,9,1,I,8,L,1,S,11,0.782927,0.426763,0.334124
7,92,2,8,9,8,1,I,6,S,1,S,11,0.428574,0.759589,0.32554
7,93,8,2,1,8,1,I,6,S,7,L,13,0.77882,0.54324,0.423086
7,94,1,8,8,2,1,I,7,L,6,S,14,0.556925,0.777603,0.433067
7,95,1,9,8,1,1,I,8,L,7,L,12,0.468393,0.768568,0.359992
7,96,2,1,1,9,1,I,1,S,8,L,20,0.758292,0.655949,0.497401
7,97,8,9,2,9,0,C,1,S,7,L,14,0.773165,0.550141,0.42535
7,98,8,2,8,2,1,C,6,S,6,S,9,0.817587,0.301116,0.246189
7,99,8,2,8,9,1,I,6,S,1,S,11,0.780883,0.428623,0.334705
7,100,9,2,9,2,1,C,7,L,7,L,9,0.762532,0.341419,0.260343
7,101,1,2,2,1,1,I,1,S,1,S,13,0.43727,0.775132,0.338942
7,102,2,1,2,9,1,I,1,S,7,L,19,0.770109,0.62342,0.480101
7,103,8,1,9,2,1,C,7,L,7,L,8,0.77922,0.286759,0.223448
7,104,1,8,9,8,1,I,7,L,1,S,11,0.422875,0.763792,0.322989
7,105,8,9,9,8,0,I,1,S,1,S,11,0.821523,0.362425,0.29774
7,106,1,2,8,2,1,I,1,S,6,S,19,0.629662,0.768605,0.483961
7,107,1,8,2,8,1,C,7,L,6,S,10,0.34067,0.807333,0.275034
7,108,9,1,8,2,1,C,8,L,6,S,9,0.819287,0.299489,0.245368
7,109,9,1,8,1,1,C,8,L,7,L,9,0.752828,0.351373,0.264523
7,110,8,1,9,8,1,C,7,L,1,S,9,0.788662,0.328746,0.25927
7,111,8,9,1,8,0,C,1,S,7,L,15,0.766543,0.595961,0.456829
7,112,9,2,2,8,1,I,7,L,6,S,13,0.753821,0.51154,0.38561
7,113,2,1,9,8,1,C,1,S,1,S,12,0.769117,0.420461,0.323384
7,114,2,9,1,9,1,C,7,L,8,L,9,0.31545,0.803338,0.253413
7,115,9,8,8,1,1,C,1,S,7,L,13,0.767152,0.443027,0.339869
7,116,1,2,2,9,1,C,1,S,7,L,11,0.360462,0.816655,0.294373
7,117,1,2,8,9,1,C,1,S,1,S,11,0.403869,0.758294,0.306251
7,118,2,1,8,2,1,C,1,S,6,S,10,0.763464,0.380981,0.290865
7,119,1,8,9,2,1,I,7,L,7,L,14,0.57716,0.761567,0.439546
7,120,8,9,8,1,0,I,1,S,7,L,10,0.772327,0.372827,0.287945
7,121,9,8,8,2,1,C,1,S,6,S,11,0.767003,0.409969,0.314447
7,122,2,1,2,1,1,C,1,S,1,S,13,0.756207,0.45569,0.344596
7,123,9,8,9,2,1,C,1,S,7,L,11,0.788377,0.393998,0.310619
7,124,2,8,1,9,1,C,6,S,8,L,9,0.305168,0.813208,0.248165
7,125,8,2,9,1,1,C,6,S,8,L,9,0.778616,0.33035,0.257216
7,126,9,2,8,2,1,C,7,L,6,S,10,0.835195,0.32085,0.267972
7,127,8,1,2,8,1,I,7,L,6,S,10,0.785053,0.39621,0.311046
7,128,8,2,1,9,1,I,6,S,8,L,13,0.762279,0.564624,0.430401
7,129,9,2,2,9,1,I,7,L,7,L,15,0.779128,0.562445,0.438217
7,130,8,9,1,2,0,C,1,S,1,S,12,0.798733,0.422603,0.337547
7,131,8,1,8,1,1,C,7,L,7,L,9,0.80887,0.312555,0.252816
7,132,9,8,9,8,1,C,1,S,1,S,14,0.758262,0.458684,0.347803
7,133,1,2,1,8,1,C,1,S,7,L,10,0.356856,0.790001,0.281917
7,134,9,8,2,9,0,I,1,S,7,L,13,0.462264,0.765178,0.353714
7,135,9,2,1,8,1,I,7,L,7,L,16,0.771722,0.603372,0.465635
7,136,9,2,8,9,1,I,7,L,1,S,13,0.762656,0.498674,0.380316
7,137,1,9,1,2,1,C,8,L,1,S,10,0.3893,0.750814,0.292292
7,138,2,8,2,9,1,C,6,S,7,L,9,0.35089,0.750166,0.263226
7,139,1,8,8,9,1,C,7,L,1,S,10,0.346023,0.799532,0.276657
7,140,2,8,8,2,1,I,6,S,6,S,14,0.5622,0.773824,0.435043
7,141,2,9,2,9,1,C,7,L,7,L,10,0.326172,0.832545,0.271553
7,142,1,2,9,8,1,I,1,S,1,S,15,0.509265,0.770757,0.392519
7,143,9,2,1,9,1,I,7,L,8,L,16,0.757025,0.621323,0.470357
7,144,8,9,2,8,0,C,1,S,6,S,13,0.780378,0.495503,0.38668
8,1,9,2,9,2,1,C,7,L,7,L,10,0.781494,0.365726,0.285812
8,2,2,1,2,8,0,I,1,S,6,S,14,0.475442,0.773812,0.367903
8,3,8,9,9,1,0,I,1,S,8,L,10,0.823628,0.332729,0.274045
8,4,1,8,1,9,1,C,7,L,8,L,10,0.348195,0.800814,0.278839
8,5,9,1,9,2,1,C,8,L,7,L,10,0.831325,0.32815,0.272799
8,6,8,9,8,1,0,I,1,S,7,L,10,0.82758,0.328383,0.271763
8,7,9,1,8,2,1,C,8,L,6,S,10,0.834424,0.324585,0.270841
8,8,9,1,8,9,1,I,8,L,1,S,10,0.781988,0.363867,0.28454
8,9,1,9,9,8,1,I,8,L,1,S,12,0.431812,0.755718,0.326328
8,10,2,8,8,9,1,C,6,S,1,S,12,0.456665,0.787036,0.359412
8,11,2,8,8,1,1,I,6,S,7,L,12,0.499202,0.755522,0.377158
8,12,8,9,9,8,0,I,1,S,1,S,11,0.777388,0.410787,0.319341
8,13,9,8,9,1,0,C,1,S,8,L,20,0.631156,0.766222,0.483605
8,14,2,1,1,2,1,I,1,S,1,S,24,0.766367,0.63067,0.483325
8,15,2,1,8,1,1,C,1,S,7,L,12,0.764171,0.433746,0.331456
8,16,9,2,2,8,1,I,7,L,6,S,15,0.761802,0.570405,0.434535
8,17,9,8,2,9,0,I,1,S,7,L,13,0.428154,0.785286,0.336223
8,18,9,2,8,1,1,C,7,L,7,L,10,0.762568,0.378076,0.288309
8,19,8,9,1,9,0,C,1,S,8,L,12,0.750522,0.499943,0.375218
8,20,1,8,8,1,1,I,7,L,7,L,13,0.525434,0.756723,0.397608
8,21,9,1,2,8,1,I,8,L,6,S,13,0.764263,0.523018,0.399724
8,22,1,9,9,2,1,I,8,L,7,L,18,0.626491,0.755193,0.473121
8,23,9,2,8,9,1,I,7,L,1,S,11,0.80986,0.368211,0.298199
8,24,2,1,8,2,1,C,1,S,6,S,12,0.791501,0.414047,0.327719
8,25,9,1,9,1,1,C,8,L,8,L,10,0.808447,0.344846,0.27879
8,26,8,1,9,2,1,C,7,L,7,L,9,0.813944,0.306415,0.249405
8,27,2,1,1,8,0,I,1,S,7,L,12,0.448304,0.763505,0.342282
8,28,2,9,2,8,1,C,7,L,6,S,10,0.380633,0.760058,0.289303
8,29,8,1,1,2,1,I,7,L,1,S,10,0.781595,0.382756,0.29916
8,30,9,1,1,9,1,I,8,L,8,L,13,0.771448,0.513966,0.396498
8,31,8,9,8,2,0,I,1,S,6,S,9,0.75431,0.349475,0.263612
8,32,1,8,9,1,1,I,7,L,8,L,13,0.520143,0.76192,0.396307
8,33,2,9,2,9,1,C,7,L,7,L,11,0.411489,0.758525,0.312125
8,34,9,8,2,8,0,I,1,S,6,S,11,0.411786,0.761445,0.313552
8,35,1,2,1,2,1,C,1,S,1,S,15,0.467292,0.764732,0.357354
8,36,2,1,2,1,1,C,1,S,1,S,16,0.762066,0.474803,0.361831
8,37,2,1,1,9,0,I,1,S,8,L,14,0.482742,0.764724,0.369165
8,38,1,8,8,9,1,C,7,L,1,S,13,0.479281,0.79091,0.379068
8,39,1,2,9,1,0,I,1,S,8,L,13,0.75299,0.467504,0.352026
8,40,2,8,2,1,1,I,6,S,1,S,11,0.390558,0.801053,0.312858
8,41,1,8,9,2,1,I,7,L,7,L,14,0.547959,0.775493,0.424938
8,42,8,1,8,2,1,C,7,L,6,S,9,0.816506,0.303191,0.247557
8,43,8,2,2,8,1,I,6,S,6,S,12,0.788598,0.474287,0.374022
8,44,1,8,9,8,1,I,7,L,1,S,11,0.375465,0.805112,0.302291
8,45,8,2,8,1,1,C,6,S,7,L,9,0.769547,0.336845,0.259218
8,46,8,9,2,1,0,I,1,S,1,S,11,0.816291,0.3719,0.303579
8,47,1,2,2,1,1,I,1,S,1,S,25,0.612505,0.75475,0.462289
8,48,2,8,9,8,1,I,6,S,1,S,10,0.383111,0.763431,0.292479
8,49,1,9,1,9,1,C,8,L,8,L,11,0.386715,0.786309,0.304078
8,50,1,9,2,1,1,I,8,L,1,S,14,0.446942,0.793146,0.354491
8,51,1,9,8,9,1,C,8,L,1,S,17,0.572791,0.775266,0.444065
8,52,8,2,1,8,1,I,6,S,7,L,12,0.751214,0.524524,0.39403
8,53,8,1,1,9,1,I,7,L,8,L,11,0.785113,0.44119,0.346385
8,54,2,8,2,8,1,C,6,S,6,S,10,0.321853,0.838031,0.269723
8,55,8,2,9,1,1,C,6,S,8,L,9,0.766473,0.340607,0.261066
8,56,9,1,9,8,1,C,8,L,1,S,11,0.760119,0.42432,0.322534
8,57,2,8,9,1,1,I,6,S,8,L,12,0.494086,0.760602,0.375802
8,58,1,8,2,9,1,C,7,L,7,L,11,0.367014,0.815738,0.299387
8,59,1,8,2,8,1,C,7,L,6,S,10,0.342664,0.807506,0.276703
8,60,8,1,1,8,1,I,7,L,7,L,12,0.78675,0.498754,0.392395
8,61,8,2,2,9,1,I,6,S,7,L,10,0.750047,0.404247,0.303205
8,62,1,2,9,2,0,I,1,S,7,L,13,0.783,0.445491,0.348819
8,63,8,9,2,9,0,C,1,S,7,L,11,0.768936,0.421414,0.324041
8,64,2,8,2,9,1,C,6,S,7,L,10,0.376983,0.771193,0.290726
8,65,1,2,2,8,1,C,1,S,6,S,12,0.442371,0.752575,0.332917
8,66,9,1,1,8,1,I,8,L,7,L,14,0.761798,0.570575,0.434663
8,67,2,9,8,9,1,C,7,L,1,S,14,0.530192,0.757588,0.401667
8,68,9,8,2,1,0,C,1,S,1,S,15,0.480474,0.770476,0.370194
8,69,9,8,8,1,0,C,1,S,7,L,20,0.633881,0.762854,0.483559
8,70,1,9,2,8,1,C,8,L,6,S,11,0.380417,0.794167,0.302114
8,71,2,8,1,9,1,C,6,S,8,L,10,0.327384,0.831338,0.272167
8,72,9,8,9,8,0,C,1,S,1,S,13,0.442505,0.766778,0.339303
8,73,8,1,8,9,1,I,7,L,1,S,9,0.775136,0.335001,0.259671
8,74,9,2,8,2,1,C,7,L,6,S,10,0.784593,0.36216,0.284149
8,75,9,2,1,9,1,I,7,L,8,L,15,0.769036,0.561559,0.431859
8,76,2,9,9,8,1,I,7,L,1,S,12,0.387638,0.815901,0.316275
8,77,2,1,2,9,1,I,1,S,7,L,24,0.769733,0.626598,0.482313
8,78,1,9,1,2,1,C,8,L,1,S,12,0.418494,0.772714,0.323376
8,79,2,8,1,8,1,C,6,S,7,L,9,0.33028,0.780711,0.257854
8,80,8,1,9,1,1,C,7,L,8,L,9,0.795467,0.320186,0.254697
8,81,9,2,9,1,1,C,7,L,8,L,10,0.758616,0.382422,0.290111
8,82,1,9,1,8,1,C,8,L,7,L,10,0.378171,0.7643,0.289036
8,83,8,1,9,8,1,C,7,L,1,S,10,0.788875,0.373457,0.294611
8,84,2,1,9,8,1,C,1,S,1,S,23,0.762618,0.615443,0.469348
8,85,9,1,2,1,1,C,8,L,1,S,11,0.799022,0.385434,0.30797
8,86,1,2,8,9,0,C,1,S,1,S,15,0.773539,0.475912,0.368136
8,87,9,8,8,2,0,C,1,S,6,S,21,0.634246,0.777772,0.493299
8,88,8,9,2,8,0,C,1,S,6,S,13,0.783201,0.508071,0.397922
8,89,2,9,8,2,1,I,7,L,6,S,16,0.593316,0.767224,0.455206
8,90,9,1,8,1,1,C,8,L,7,L,10,0.812398,0.340501,0.276622
8,91,1,2,8,2,0,I,1,S,6,S,13,0.786533,0.44167,0.347388
8,92,2,9,9,1,1,I,7,L,8,L,15,0.569006,0.760468,0.432711
8,93,2,9,1,2,1,C,7,L,1,S,11,0.409905,0.760613,0.311779
8,94,9,2,1,8,1,I,7,L,7,L,16,0.757101,0.609061,0.46112
8,95,8,1,2,8,1,I,7,L,6,S,11,0.778815,0.449048,0.349725
8,96,2,1,8,9,1,I,1,S,1,S,13,0.770936,0.442282,0.340971
8,97,1,9,2,9,1,C,8,L,7,L,12,0.42058,0.769952,0.323826
8,98,9,8,9,2,0,C,1,S,7,L,21,0.633217,0.77965,0.493687
8,99,9,1,1,2,1,I,8,L,1,S,11,0.750084,0.437035,0.327813
8,100,9,1,2,9,1,I,8,L,7,L,11,0.751667,0.434947,0.326936
8,101,1,8,2,1,1,I,7,L,1,S,11,0.414368,0.766225,0.317499
8,102,8,2,9,2,1,C,6,S,7,L,9,0.78495,0.326836,0.25655
8,103,8,2,1,2,1,I,6,S,1,S,11,0.810351,0.390907,0.316772
8,104,1,2,2,9,1,C,1,S,7,L,15,0.470903,0.75976,0.357773
8,105,8,1,2,9,1,I,7,L,7,L,10,0.782746,0.381219,0.298397
8,106,8,9,1,8,0,C,1,S,7,L,14,0.780501,0.555568,0.433622
8,107,1,2,9,8,1,I,1,S,1,S,16,0.464353,0.774002,0.35941
8,108,8,1,8,1,1,C,7,L,7,L,9,0.798541,0.316424,0.252677
8,109,1,8,1,8,1,C,7,L,7,L,9,0.347445,0.755664,0.262552
8,110,1,9,8,2,1,I,8,L,6,S,18,0.628513,0.75249,0.47295
8,111,8,2,2,1,1,C,6,S,1,S,10,0.784337,0.368855,0.289307
8,112,8,2,8,9,1,I,6,S,1,S,10,0.836221,0.321993,0.269258
8,113,9,8,8,9,0,I,1,S,1,S,19,0.611895,0.763076,0.466922
8,114,9,2,9,8,1,C,7,L,1,S,13,0.798233,0.439358,0.35071
8,115,8,2,8,2,1,C,6,S,6,S,9,0.787512,0.323613,0.254849
8,116,8,9,1,2,0,C,1,S,1,S,11,0.767352,0.423502,0.324975
8,117,1,8,8,2,1,I,7,L,6,S,14,0.551306,0.7718,0.425498
8,118,2,9,1,8,1,C,7,L,7,L,10,0.348973,0.802646,0.280101
8,119,2,9,9,2,1,I,7,L,7,L,16,0.590578,0.770479,0.455028
8,120,1,2,1,9,1,C,1,S,8,L,13,0.428518,0.791266,0.339072
8,121,2,8,9,2,1,I,6,S,7,L,13,0.522862,0.778674,0.407139
8,122,1,9,9,1,1,I,8,L,8,L,18,0.601903,0.77507,0.466517
8,123,9,2,1,2,1,I,7,L,1,S,13,0.781256,0.461391,0.360465
8,124,8,9,8,9,0,C,1,S,1,S,10,0.79717,0.35175,0.280404
8,125,1,2,8,1,0,I,1,S,7,L,13,0.758281,0.462307,0.350559
8,126,8,2,1,9,1,I,6,S,8,L,11,0.750285,0.465993,0.349628
8,127,9,8,1,2,0,I,1,S,1,S,13,0.425528,0.788811,0.335662
8,128,2,1,9,1,1,C,1,S,8,L,12,0.759055,0.438826,0.333093
8,129,8,9,9,2,0,I,1,S,7,L,9,0.751748,0.352699,0.265141
8,130,9,2,2,1,1,C,7,L,1,S,12,0.802769,0.401474,0.32229
8,131,1,8,1,2,1,C,7,L,1,S,11,0.36543,0.817826,0.298858
8,132,2,9,1,9,1,C,7,L,8,L,10,0.386164,0.753366,0.290923
8,133,2,8,8,2,1,I,6,S,6,S,13,0.526394,0.774853,0.407878
8,134,1,2,1,8,1,C,1,S,7,L,11,0.423036,0.752087,0.31816
8,135,2,9,8,1,1,I,7,L,7,L,15,0.573979,0.755461,0.433618
8,136,9,2,2,9,1,I,7,L,7,L,13,0.783882,0.457866,0.358913
8,137,9,8,1,8,0,I,1,S,7,L,11,0.376666,0.808949,0.304703
8,138,2,9,2,1,1,I,7,L,1,S,12,0.440589,0.762067,0.335758
8,139,8,2,9,8,1,C,6,S,1,S,10,0.756176,0.396486,0.299813
8,140,1,9,8,1,1,I,8,L,7,L,18,0.605582,0.770966,0.466883
8,141,8,1,2,1,1,C,7,L,1,S,10,0.817036,0.345826,0.282553
8,142,2,1,9,2,1,C,1,S,7,L,12,0.787921,0.417903,0.329274
8,143,9,8,1,9,0,I,1,S,8,L,11,0.418085,0.753587,0.315063
8,144,2,8,1,2,1,C,6,S,1,S,10,0.375831,0.77273,0.290416
9,1,2,9,9,1,1,I,7,L,8,L,13,0.496633,0.783739,0.389231
9,2,1,2,2,8,1,C,1,S,6,S,14,0.469149,0.761216,0.357124
9,3,1,2,1,9,1,C,1,S,8,L,11,0.416715,0.768352,0.320184
9,4,1,9,1,9,1,C,8,L,8,L,9,0.315158,0.800909,0.252413
9,5,8,2,8,9,1,I,6,S,1,S,11,0.753724,0.415199,0.312945
9,6,9,2,9,2,1,C,7,L,7,L,9,0.843642,0.28715,0.242252
9,7,8,9,1,9,1,C,1,S,8,L,10,0.325878,0.83587,0.272392
9,8,1,8,9,1,1,I,7,L,8,L,11,0.436841,0.782499,0.341827
9,9,2,1,9,8,1,C,1,S,1,S,13,0.766668,0.440018,0.337348
9,10,2,8,8,9,1,C,6,S,1,S,11,0.409525,0.788026,0.322716
9,11,8,9,8,1,1,I,1,S,7,L,15,0.587288,0.758559,0.445493
9,12,9,1,2,8,1,I,8,L,6,S,10,0.769964,0.399479,0.307585
9,13,9,8,2,8,1,I,1,S,6,S,23,0.767676,0.632538,0.485584
9,14,1,8,8,1,1,I,7,L,7,L,12,0.488556,0.787575,0.384775
9,15,1,2,1,2,1,C,1,S,1,S,19,0.465823,0.790646,0.368301
9,16,9,2,8,9,1,I,7,L,1,S,9,0.761846,0.349042,0.265916
9,17,8,2,1,8,1,I,6,S,7,L,17,0.751889,0.62878,0.472773
9,18,9,1,2,1,1,C,8,L,1,S,10,0.817732,0.347519,0.284178
9,19,8,1,9,2,1,C,7,L,7,L,10,0.794349,0.359057,0.285216
9,20,9,2,8,1,1,C,7,L,7,L,9,0.822693,0.3016,0.248124
9,21,1,2,9,1,0,I,1,S,8,L,14,0.780058,0.464353,0.362222
9,22,1,2,8,1,0,I,1,S,7,L,12,0.761413,0.447219,0.340518
9,23,8,2,1,9,1,I,6,S,8,L,18,0.769066,0.630183,0.484653
9,24,9,2,2,1,1,C,7,L,1,S,10,0.81733,0.349191,0.285404
9,25,2,9,1,8,1,C,7,L,7,L,9,0.347228,0.756877,0.262809
9,26,1,8,8,9,1,C,7,L,1,S,10,0.403102,0.755818,0.304672
9,27,1,2,8,9,0,C,1,S,1,S,16,0.769088,0.490516,0.37725
9,28,2,9,8,1,1,I,7,L,7,L,14,0.550617,0.775719,0.427124
9,29,2,8,1,9,1,C,6,S,8,L,9,0.29937,0.816215,0.24435
9,30,9,1,9,1,1,C,8,L,8,L,9,0.788695,0.327905,0.258617
9,31,2,8,2,8,1,C,6,S,6,S,10,0.33839,0.815063,0.275809
9,32,2,9,8,9,1,C,7,L,1,S,12,0.443204,0.782907,0.346987
9,33,1,2,2,9,1,C,1,S,7,L,13,0.441296,0.78165,0.344939
9,34,9,1,9,2,1,C,8,L,7,L,9,0.844049,0.285445,0.240929
9,35,8,2,2,1,1,C,6,S,1,S,12,0.764123,0.434991,0.332387
9,36,1,9,8,2,1,I,8,L,6,S,14,0.575577,0.773266,0.445074
9,37,1,2,2,1,1,I,1,S,1,S,26,0.6221,0.753513,0.468761
9,38,1,8,1,8,1,C,7,L,7,L,9,0.299981,0.819892,0.245952
9,39,9,8,8,2,1,C,1,S,6,S,11,0.807047,0.380654,0.307206
9,40,1,9,9,1,1,I,8,L,8,L,12,0.471975,0.781324,0.368765
9,41,9,8,1,8,0,I,1,S,7,L,13,0.464667,0.774307,0.359795
9,42,2,8,9,8,1,I,6,S,1,S,11,0.390718,0.807323,0.315436
9,43,2,9,1,2,1,C,7,L,1,S,11,0.387436,0.793839,0.307562
9,44,8,2,8,2,1,C,6,S,6,S,10,0.817213,0.343565,0.280766
9,45,1,8,2,9,1,C,7,L,7,L,9,0.329588,0.779477,0.256906
9,46,1,2,8,2,0,I,1,S,6,S,11,0.771661,0.418619,0.323032
9,47,9,2,1,9,1,I,7,L,8,L,12,0.776644,0.516734,0.401319
9,48,2,8,9,2,1,I,6,S,7,L,13,0.534817,0.778295,0.416245
9,49,8,2,9,2,1,C,6,S,7,L,10,0.790942,0.363613,0.287597
9,50,9,1,8,1,1,C,8,L,7,L,9,0.823099,0.299895,0.246843
9,51,8,1,2,1,1,C,7,L,1,S,12,0.769643,0.429024,0.330196
9,52,2,9,9,2,1,I,7,L,7,L,14,0.577313,0.755992,0.436444
9,53,2,1,1,9,0,I,1,S,8,L,13,0.493483,0.755632,0.372892
9,54,2,8,2,9,1,C,6,S,7,L,9,0.343688,0.757407,0.260311
9,55,2,1,8,2,1,C,1,S,6,S,10,0.764865,0.382336,0.292435
9,56,2,8,2,1,1,I,6,S,1,S,10,0.386158,0.763103,0.294678
9,57,9,1,9,8,1,C,8,L,1,S,9,0.753019,0.358985,0.270323
9,58,8,2,1,2,1,I,6,S,1,S,13,0.791519,0.435788,0.344935
9,59,2,9,8,2,1,I,7,L,6,S,15,0.595115,0.769063,0.457681
9,60,1,9,9,2,1,I,8,L,7,L,13,0.553492,0.758816,0.419999
9,61,9,1,1,8,1,I,8,L,7,L,11,0.751586,0.490748,0.36884
9,62,9,2,2,9,1,I,7,L,7,L,11,0.791322,0.43651,0.34542
9,63,1,8,2,1,1,I,7,L,1,S,10,0.369899,0.788271,0.291581
9,64,9,2,1,8,1,I,7,L,7,L,11,0.751256,0.49233,0.369866
9,65,8,9,1,8,1,C,1,S,7,L,10,0.342226,0.815091,0.278945
9,66,1,2,1,8,1,C,1,S,7,L,12,0.417043,0.796041,0.331983
9,67,9,2,2,8,1,I,7,L,6,S,10,0.769562,0.401151,0.30871
9,68,2,1,1,8,0,I,1,S,7,L,15,0.546206,0.75069,0.410031
9,69,2,8,8,1,1,I,6,S,7,L,12,0.507379,0.759612,0.385411
9,70,1,8,9,8,1,I,7,L,1,S,10,0.389597,0.771014,0.300384
9,71,8,2,2,9,1,I,6,S,7,L,16,0.763371,0.584086,0.445874
9,72,9,2,8,2,1,C,7,L,6,S,8,0.756721,0.306113,0.231642
9,73,1,8,8,2,1,I,7,L,6,S,13,0.54236,0.784836,0.425664
9,74,8,1,1,9,1,I,7,L,8,L,18,0.77467,0.624243,0.483582
9,75,2,1,9,1,1,C,1,S,8,L,12,0.791869,0.4055,0.321103
9,76,9,8,1,9,0,I,1,S,8,L,12,0.44883,0.766985,0.344246
9,77,8,9,8,2,1,I,1,S,6,S,16,0.625508,0.753049,0.471038
9,78,1,8,1,9,1,C,7,L,8,L,9,0.28527,0.838286,0.239138
9,79,9,8,2,9,0,I,1,S,7,L,15,0.517223,0.751364,0.388623
9,80,8,1,2,8,1,I,7,L,6,S,14,0.755846,0.521053,0.393836
9,81,8,1,9,8,1,C,7,L,1,S,12,0.807077,0.396779,0.320232
9,82,9,8,9,8,1,C,1,S,1,S,14,0.769232,0.452553,0.348119
9,83,1,8,2,8,1,C,7,L,6,S,9,0.353943,0.752113,0.266205
9,84,8,2,9,1,1,C,6,S,8,L,11,0.798876,0.38256,0.305618
9,85,2,8,1,2,1,C,6,S,1,S,10,0.373169,0.775038,0.28922
9,86,8,1,1,8,1,I,7,L,7,L,17,0.758027,0.622467,0.471847
9,87,2,8,8,2,1,I,6,S,6,S,13,0.561631,0.756902,0.4251
9,88,1,9,8,1,1,I,8,L,7,L,13,0.526138,0.778584,0.409643
9,89,2,8,9,1,1,I,6,S,8,L,11,0.454677,0.755387,0.343457
9,90,9,8,2,1,1,C,1,S,1,S,16,0.792781,0.4488,0.3558
9,91,9,2,9,8,1,C,7,L,1,S,9,0.752612,0.36069,0.27146
9,92,8,1,8,2,1,C,7,L,6,S,10,0.82062,0.339009,0.278198
9,93,9,1,1,9,1,I,8,L,8,L,12,0.776852,0.515281,0.400298
9,94,8,9,8,9,1,C,1,S,1,S,13,0.476007,0.777186,0.369946
9,95,2,1,8,1,1,C,1,S,7,L,11,0.778843,0.395968,0.308397
9,96,9,1,8,2,1,C,8,L,6,S,8,0.757052,0.304446,0.230482
9,97,1,2,9,2,0,I,1,S,7,L,12,0.788731,0.427889,0.337489
9,98,2,1,2,1,1,C,1,S,1,S,14,0.764236,0.455768,0.348314
9,99,9,2,9,1,1,C,7,L,8,L,9,0.788289,0.32961,0.259827
9,100,8,1,1,2,1,I,7,L,1,S,13,0.797787,0.429361,0.342538
9,101,9,8,8,1,1,C,1,S,7,L,11,0.753281,0.420078,0.316437
9,102,1,9,2,9,1,C,8,L,7,L,10,0.324764,0.83393,0.27083
9,103,8,1,9,1,1,C,7,L,8,L,11,0.803392,0.377239,0.303071
9,104,8,9,9,8,1,I,1,S,1,S,12,0.457951,0.758144,0.347193
9,105,8,9,2,1,1,I,1,S,1,S,12,0.420517,0.790389,0.332372
9,106,8,2,2,8,1,I,6,S,6,S,15,0.783682,0.523247,0.410059
9,107,1,9,2,1,1,I,8,L,1,S,11,0.381756,0.811862,0.309933
9,108,8,9,9,1,1,I,1,S,8,L,14,0.536369,0.768755,0.412337
9,109,8,2,8,1,1,C,6,S,7,L,10,0.766725,0.380299,0.291584
9,110,2,9,9,8,1,I,7,L,1,S,11,0.432858,0.753016,0.325949
9,111,1,9,2,8,1,C,8,L,6,S,10,0.355818,0.797205,0.28366
9,112,2,8,1,8,1,C,6,S,7,L,9,0.314081,0.797821,0.25058
9,113,8,9,9,2,1,I,1,S,7,L,16,0.603108,0.772047,0.465627
9,114,9,1,1,2,1,I,8,L,1,S,10,0.804743,0.359455,0.289269
9,115,2,9,2,9,1,C,7,L,7,L,10,0.345635,0.803012,0.277549
9,116,8,1,8,9,1,I,7,L,1,S,11,0.75824,0.409878,0.310785
9,117,8,1,2,9,1,I,7,L,7,L,16,0.769916,0.577501,0.444627
9,118,8,1,8,1,1,C,7,L,7,L,10,0.770131,0.375743,0.289371
9,119,1,9,1,8,1,C,8,L,7,L,9,0.32987,0.782515,0.258128
9,120,1,9,8,9,1,C,8,L,1,S,11,0.427955,0.768659,0.328952
9,121,9,8,1,2,1,I,1,S,1,S,18,0.774887,0.497181,0.38526
9,122,2,9,2,8,1,C,7,L,6,S,10,0.376688,0.766287,0.288652
9,123,9,8,8,9,1,I,1,S,1,S,13,0.75125,0.4527,0.340091
9,124,8,9,2,8,1,C,1,S,6,S,11,0.376831,0.805071,0.303376
9,125,9,8,9,2,1,C,1,S,7,L,11,0.779619,0.401757,0.313218
9,126,2,1,8,9,1,I,1,S,1,S,13,0.797944,0.411972,0.32873
9,127,2,1,1,2,1,I,1,S,1,S,15,0.75739,0.48097,0.364282
9,128,1,9,9,8,1,I,8,L,1,S,11,0.409149,0.787957,0.322391
9,129,1,2,9,8,0,I,1,S,1,S,18,0.767813,0.512113,0.393207
9,130,2,1,9,2,1,C,1,S,7,L,11,0.805181,0.377648,0.304075
9,131,8,9,1,2,1,C,1,S,1,S,11,0.423865,0.750084,0.317934
9,132,2,1,2,9,1,I,1,S,7,L,21,0.769443,0.629359,0.484256
9,133,2,1,2,8,1,I,1,S,6,S,19,0.754803,0.60618,0.457547
9,134,9,2,1,2,1,I,7,L,1,S,10,0.804341,0.361126,0.290469
9,135,2,9,2,1,1,I,7,L,1,S,11,0.405465,0.776922,0.315015
9,136,1,8,1,2,1,C,7,L,1,S,10,0.356911,0.800206,0.285602
9,137,8,2,9,8,1,C,6,S,1,S,12,0.801557,0.402746,0.322824
9,138,1,8,9,2,1,I,7,L,7,L,12,0.515875,0.768245,0.396319
9,139,2,9,1,9,1,C,7,L,8,L,9,0.332517,0.775271,0.257791
9,140,1,9,1,2,1,C,8,L,1,S,10,0.390597,0.757181,0.295752
9,141,9,1,8,9,1,I,8,L,1,S,9,0.762252,0.347337,0.264758
9,142,9,8,9,1,1,C,1,S,8,L,12,0.756852,0.437273,0.330951
9,143,8,9,2,9,1,C,1,S,7,L,10,0.37761,0.766015,0.289255
9,144,9,1,2,9,1,I,8,L,7,L,11,0.791652,0.434928,0.344311
10,1,9,8,9,8,1,C,1,S,1,S,15,0.766001,0.482638,0.369701
10,2,9,8,8,9,0,I,1,S,1,S,14,0.451144,0.783891,0.353647
10,3,8,9,2,1,1,I,1,S,1,S,11,0.415099,0.754379,0.313142
10,4,1,9,8,1,1,I,8,L,7,L,12,0.466392,0.781373,0.364427
10,5,2,9,8,1,1,I,7,L,7,L,12,0.476968,0.767114,0.365888
10,6,8,2,8,1,1,C,6,S,7,L,12,0.805896,0.39663,0.319642
10,7,1,9,8,2,1,I,8,L,6,S,13,0.511566,0.785679,0.401927
10,8,1,2,9,8,1,I,1,S,1,S,18,0.592418,0.762797,0.451894
10,9,9,8,2,8,0,I,1,S,6,S,13,0.461671,0.754586,0.348371
10,10,2,9,1,2,1,C,7,L,1,S,11,0.424999,0.764481,0.324903
10,11,2,1,8,2,1,C,1,S,6,S,12,0.755995,0.446,0.337174
10,12,1,2,8,2,1,I,1,S,6,S,20,0.633808,0.766729,0.485959
10,13,9,8,8,1,1,C,1,S,7,L,14,0.769643,0.470297,0.361961
10,14,8,2,2,9,1,I,6,S,7,L,20,0.757204,0.648352,0.490935
10,15,1,8,9,2,1,I,7,L,7,L,13,0.545087,0.755139,0.411616
10,16,8,9,2,9,1,C,1,S,7,L,10,0.355048,0.795244,0.282349
10,17,1,9,1,9,1,C,8,L,8,L,9,0.337619,0.772034,0.260653
10,18,8,9,9,2,1,I,1,S,7,L,16,0.598562,0.762662,0.4565
10,19,1,9,1,8,1,C,8,L,7,L,10,0.347,0.80627,0.279776
10,20,9,1,8,1,1,C,8,L,7,L,10,0.78228,0.3634,0.284281
10,21,9,8,2,9,0,I,1,S,7,L,12,0.420139,0.790941,0.332305
10,22,2,9,9,2,1,I,7,L,7,L,13,0.543286,0.755256,0.41032
10,23,2,8,1,9,1,C,6,S,8,L,9,0.35524,0.751444,0.266943
10,24,1,8,2,1,1,I,7,L,1,S,10,0.389809,0.756497,0.294889
10,25,2,9,2,1,1,I,7,L,1,S,10,0.387681,0.756848,0.293415
10,26,9,1,1,8,1,I,8,L,7,L,12,0.751086,0.482786,0.362614
10,27,2,8,2,8,1,C,6,S,6,S,10,0.362766,0.786324,0.285252
10,28,9,1,1,2,1,I,8,L,1,S,11,0.816655,0.365811,0.298741
10,29,1,8,8,9,1,C,7,L,1,S,10,0.360028,0.79107,0.284807
10,30,8,1,8,9,1,I,7,L,1,S,15,0.750267,0.556643,0.417631
10,31,1,2,8,1,1,I,1,S,7,L,19,0.613482,0.767456,0.47082
10,32,8,9,8,2,1,I,1,S,6,S,16,0.579963,0.777774,0.45108
10,33,2,1,9,8,1,C,1,S,1,S,14,0.759141,0.470459,0.357144
10,34,8,9,9,8,1,I,1,S,1,S,14,0.507476,0.775466,0.393531
10,35,1,8,1,8,1,C,7,L,7,L,10,0.357977,0.793991,0.28423
10,36,1,2,1,9,1,C,1,S,8,L,11,0.382396,0.801957,0.306665
10,37,8,2,8,2,1,C,6,S,6,S,11,0.77959,0.39694,0.30945
10,38,2,1,9,2,1,C,1,S,7,L,12,0.776434,0.430572,0.334311
10,39,9,8,2,1,0,C,1,S,1,S,16,0.471134,0.775656,0.365438
10,40,1,2,1,8,1,C,1,S,7,L,12,0.408546,0.790594,0.322994
10,41,1,8,9,1,1,I,7,L,8,L,13,0.50766,0.784163,0.398089
10,42,9,1,1,9,1,I,8,L,8,L,14,0.762127,0.565323,0.430848
10,43,2,1,2,8,0,I,1,S,6,S,14,0.464515,0.773149,0.359139
10,44,9,2,8,1,1,C,7,L,7,L,10,0.756839,0.383853,0.290515
10,45,2,8,9,8,1,I,6,S,1,S,12,0.461971,0.77181,0.356554
10,46,2,1,1,2,1,I,1,S,1,S,16,0.776941,0.471883,0.366626
10,47,8,9,8,9,1,C,1,S,1,S,11,0.376617,0.800666,0.301545
10,48,9,1,9,8,1,C,8,L,1,S,10,0.763538,0.377369,0.288136
10,49,9,2,9,2,1,C,7,L,7,L,10,0.808134,0.343494,0.277589
10,50,1,9,9,2,1,I,8,L,7,L,13,0.532359,0.769777,0.409798
10,51,1,8,2,9,1,C,7,L,7,L,9,0.344663,0.764468,0.263484
10,52,8,1,9,1,1,C,7,L,8,L,11,0.807892,0.372012,0.300545
10,53,8,1,2,9,1,I,7,L,7,L,18,0.773252,0.618641,0.478365
10,54,9,1,2,9,1,I,8,L,7,L,14,0.759164,0.568465,0.431558
10,55,9,1,8,9,1,I,8,L,1,S,12,0.754175,0.478337,0.36075
10,56,2,1,9,1,1,C,1,S,8,L,13,0.784122,0.440992,0.345791
10,57,2,8,8,2,1,I,6,S,6,S,13,0.536526,0.754809,0.404975
10,58,9,2,2,9,1,I,7,L,7,L,15,0.757662,0.590425,0.447343
10,59,8,9,1,2,1,C,1,S,1,S,13,0.464348,0.775222,0.359973
10,60,2,9,2,8,1,C,7,L,6,S,10,0.35104,0.799457,0.280641
10,61,1,8,2,8,1,C,7,L,6,S,10,0.353168,0.799107,0.282219
10,62,1,9,9,1,1,I,8,L,8,L,12,0.495974,0.758875,0.376382
10,63,9,8,8,2,1,C,1,S,6,S,13,0.782734,0.446357,0.349379
10,64,9,2,1,9,1,I,7,L,8,L,15,0.76049,0.587503,0.44679
10,65,9,1,2,8,1,I,8,L,6,S,13,0.785329,0.488088,0.38331
10,66,1,9,2,1,1,I,8,L,1,S,10,0.378832,0.768777,0.291237
10,67,8,9,8,1,1,I,1,S,7,L,14,0.542598,0.750121,0.407014
10,68,8,1,8,2,1,C,7,L,6,S,11,0.822604,0.360373,0.296445
10,69,2,9,9,8,1,I,7,L,1,S,12,0.448259,0.787849,0.353161
10,70,2,8,9,1,1,I,6,S,8,L,13,0.519892,0.767932,0.399242
10,71,8,1,1,2,1,I,7,L,1,S,12,0.7937,0.403643,0.320371
10,72,8,2,9,1,1,C,6,S,8,L,11,0.764878,0.408578,0.312512
10,73,2,1,1,8,0,I,1,S,7,L,14,0.471963,0.764128,0.36064
10,74,8,2,2,1,1,C,6,S,1,S,16,0.77129,0.521265,0.402046
10,75,9,8,1,9,0,I,1,S,8,L,12,0.423203,0.787587,0.333309
10,76,8,2,9,8,1,C,6,S,1,S,12,0.777188,0.417365,0.324371
10,77,8,9,1,8,1,C,1,S,7,L,11,0.374027,0.804374,0.300858
10,78,9,8,1,8,0,I,1,S,7,L,14,0.447344,0.789312,0.353094
10,79,1,9,2,9,1,C,8,L,7,L,9,0.335069,0.774636,0.259557
10,80,8,1,9,8,1,C,7,L,1,S,11,0.757997,0.409572,0.310454
10,81,2,9,9,1,1,I,7,L,8,L,13,0.50586,0.784281,0.396736
10,82,1,9,1,2,1,C,8,L,1,S,11,0.415113,0.777892,0.322914
10,83,8,2,8,9,1,I,6,S,1,S,18,0.758545,0.60233,0.456894
10,84,1,8,1,2,1,C,7,L,1,S,11,0.427085,0.764128,0.326347
10,85,1,2,9,1,1,I,1,S,8,L,20,0.622926,0.776563,0.483742
10,86,2,1,8,9,0,I,1,S,1,S,14,0.475763,0.758707,0.360964
10,87,2,9,1,8,1,C,7,L,7,L,10,0.355849,0.794341,0.282665
10,88,9,2,8,2,1,C,7,L,6,S,10,0.791002,0.356506,0.281997
10,89,9,1,9,2,1,C,8,L,7,L,10,0.833574,0.323042,0.269279
10,90,1,2,2,9,1,C,1,S,7,L,11,0.379403,0.805231,0.305507
10,91,9,8,9,2,1,C,1,S,7,L,12,0.763356,0.444061,0.338977
10,92,2,1,2,9,0,I,1,S,7,L,12,0.433217,0.777453,0.336806
10,93,8,9,9,1,1,I,1,S,8,L,15,0.571343,0.758591,0.433416
10,94,1,8,9,8,1,I,7,L,1,S,12,0.450229,0.78758,0.354592
10,95,1,8,8,2,1,I,7,L,6,S,13,0.524294,0.771041,0.404252
10,96,8,1,2,8,1,I,7,L,6,S,16,0.770743,0.566038,0.43627
10,97,9,2,9,1,1,C,7,L,8,L,10,0.778318,0.366797,0.285485
10,98,8,1,9,2,1,C,7,L,7,L,10,0.761596,0.380763,0.289987
10,99,1,2,1,2,1,C,1,S,1,S,16,0.543296,0.750513,0.407751
10,100,2,1,1,9,0,I,1,S,8,L,12,0.436281,0.774099,0.337724
10,101,8,9,1,9,1,C,1,S,8,L,10,0.357871,0.79222,0.283512
10,102,2,8,8,9,1,C,6,S,1,S,10,0.369627,0.778287,0.287676
10,103,9,2,9,8,1,C,7,L,1,S,11,0.816377,0.36427,0.297382
10,104,2,9,2,9,1,C,7,L,7,L,9,0.34258,0.764723,0.261979
10,105,8,2,1,2,1,I,6,S,1,S,13,0.800242,0.415188,0.332251
10,106,2,8,1,2,1,C,6,S,1,S,12,0.423552,0.802958,0.340094
10,107,2,9,8,9,1,C,7,L,1,S,10,0.3579,0.791421,0.28325
10,108,2,8,2,1,1,I,6,S,1,S,11,0.368994,0.81843,0.301995
10,109,9,2,1,8,1,I,7,L,7,L,13,0.757227,0.506849,0.383799
10,110,1,9,9,8,1,I,8,L,1,S,11,0.444943,0.752801,0.334953
10,111,8,9,2,8,1,C,1,S,6,S,11,0.368297,0.810861,0.298637
10,112,2,8,8,1,1,I,6,S,7,L,12,0.490679,0.751075,0.368537
10,113,1,9,8,9,1,C,8,L,1,S,10,0.349051,0.80335,0.28041
10,114,2,8,9,2,1,I,6,S,7,L,14,0.554242,0.775028,0.429553
10,115,9,2,2,1,1,C,7,L,1,S,12,0.768398,0.444962,0.341908
10,116,1,8,8,1,1,I,7,L,7,L,12,0.478938,0.766845,0.367271
10,117,1,8,1,9,1,C,7,L,8,L,9,0.347212,0.761866,0.264529
10,118,1,2,8,9,1,C,1,S,1,S,12,0.411635,0.786145,0.323605
10,119,9,1,9,1,1,C,8,L,8,L,10,0.803758,0.346344,0.278377
10,120,1,2,2,1,1,I,1,S,1,S,13,0.428384,0.784955,0.336262
10,121,8,1,1,9,1,I,7,L,8,L,18,0.77552,0.61651,0.478115
10,122,2,1,2,1,0,C,1,S,1,S,17,0.501698,0.757423,0.379998
10,123,9,2,1,2,1,I,7,L,1,S,11,0.786548,0.389362,0.306252
10,124,9,1,2,1,1,C,8,L,1,S,12,0.801826,0.419094,0.336041
10,125,9,2,2,8,1,I,7,L,6,S,13,0.750129,0.515403,0.386619
10,126,8,2,9,2,1,C,6,S,7,L,11,0.798832,0.38247,0.305529
10,127,9,2,8,9,1,I,7,L,1,S,13,0.760728,0.501809,0.38174
10,128,1,9,2,8,1,C,8,L,6,S,10,0.342191,0.811386,0.277649
10,129,2,9,1,9,1,C,7,L,8,L,9,0.34513,0.762121,0.263031
10,130,1,2,2,8,1,C,1,S,6,S,12,0.40203,0.798281,0.320933
10,131,9,8,9,1,1,C,1,S,8,L,13,0.766101,0.45948,0.352008
10,132,8,1,8,1,1,C,7,L,7,L,11,0.781868,0.392089,0.306562
10,133,2,9,8,2,1,I,7,L,6,S,13,0.522493,0.771158,0.402925
10,134,1,2,9,2,1,I,1,S,7,L,20,0.647255,0.755023,0.488693
10,135,9,8,1,2,1,I,1,S,1,S,17,0.756257,0.507695,0.383948
10,136,8,1,2,1,1,C,7,L,1,S,14,0.781391,0.476095,0.372016
10,137,8,2,1,9,1,I,6,S,8,L,20,0.759072,0.646726,0.490912
10,138,8,2,2,8,1,I,6,S,6,S,19,0.777926,0.603233,0.469271
10,139,9,1,8,2,1,C,8,L,6,S,10,0.816442,0.336053,0.274368
10,140,2,1,8,1,1,C,1,S,7,L,13,0.752319,0.465162,0.34995
10,141,2,8,2,9,1,C,6,S,7,L,9,0.352691,0.754047,0.265946
10,142,8,1,1,8,1,I,7,L,7,L,16,0.778252,0.557147,0.433601
10,143,2,8,1,8,1,C,6,S,7,L,10,0.367575,0.781208,0.287153
10,144,8,2,1,8,1,I,6,S,7,L,18,0.754628,0.607504,0.45844
11,1,8,9,2,9,0,C,1,S,7,L,21,0.765795,0.640759,0.49069
11,2,1,2,8,1,0,I,1,S,7,L,14,0.750281,0.508516,0.38153
11,3,9,2,2,1,1,C,7,L,1,S,9,0.772143,0.335036,0.258696
11,4,2,8,2,8,1,C,6,S,6,S,9,0.291956,0.832527,0.243061
11,5,2,8,8,2,1,I,6,S,6,S,11,0.456039,0.779922,0.355675
11,6,1,8,8,2,1,I,7,L,6,S,11,0.451866,0.784584,0.354527
11,7,9,8,2,8,0,I,1,S,6,S,11,0.370981,0.810275,0.300597
11,8,8,2,9,2,1,C,6,S,7,L,10,0.81672,0.33605,0.274459
11,9,2,1,1,8,0,I,1,S,7,L,10,0.37191,0.782195,0.290906
11,10,2,9,8,9,1,C,7,L,1,S,10,0.369184,0.772315,0.285126
11,11,8,9,9,2,0,I,1,S,7,L,11,0.785179,0.392968,0.30855
11,12,1,2,8,9,1,C,1,S,1,S,12,0.402788,0.794129,0.319865
11,13,1,8,2,8,1,C,7,L,6,S,9,0.288141,0.836725,0.241094
11,14,9,2,1,8,1,I,7,L,7,L,13,0.767701,0.556732,0.427403
11,15,1,2,2,8,1,C,1,S,6,S,11,0.409234,0.763917,0.312621
11,16,9,2,9,8,1,C,7,L,1,S,11,0.75331,0.466783,0.351632
11,17,1,8,9,8,1,I,7,L,1,S,9,0.30699,0.814033,0.2499
11,18,2,8,9,2,1,I,6,S,7,L,11,0.466889,0.774251,0.361489
11,19,2,8,9,1,1,I,6,S,8,L,11,0.471132,0.770496,0.363005
11,20,1,9,8,9,1,C,8,L,1,S,10,0.360464,0.782269,0.28198
11,21,2,1,8,2,0,C,1,S,6,S,20,0.629054,0.774178,0.486999
11,22,9,8,8,1,0,C,1,S,7,L,19,0.629279,0.762433,0.479783
11,23,2,9,8,1,1,I,7,L,7,L,15,0.582455,0.757356,0.441126
11,24,9,8,8,9,0,I,1,S,1,S,11,0.390601,0.780758,0.304964
11,25,2,9,8,2,1,I,7,L,6,S,15,0.578042,0.761367,0.440102
11,26,1,9,2,8,1,C,8,L,6,S,10,0.343353,0.808183,0.277492
11,27,8,9,8,2,0,I,1,S,6,S,11,0.774329,0.398639,0.308678
11,28,1,8,1,8,1,C,7,L,7,L,8,0.293008,0.770267,0.225694
11,29,8,9,8,9,0,C,1,S,1,S,20,0.751772,0.638653,0.480121
11,30,9,8,1,2,0,I,1,S,1,S,13,0.430058,0.781042,0.335893
11,31,1,2,2,9,1,C,1,S,7,L,11,0.409449,0.762061,0.312025
11,32,8,2,1,8,1,I,6,S,7,L,16,0.771472,0.60713,0.468384
11,33,2,9,9,8,1,I,7,L,1,S,10,0.374276,0.770463,0.288366
11,34,8,2,8,9,1,I,6,S,1,S,14,0.76951,0.538413,0.414314
11,35,9,2,9,2,1,C,7,L,7,L,9,0.79508,0.319791,0.25426
11,36,2,9,1,2,1,C,7,L,1,S,11,0.417303,0.753703,0.314522
11,37,8,1,9,8,1,C,7,L,1,S,15,0.768674,0.56481,0.434155
11,38,1,8,9,2,1,I,7,L,7,L,11,0.462717,0.778913,0.360416
11,39,9,8,1,9,0,I,1,S,8,L,10,0.362606,0.788379,0.285871
11,40,8,1,2,8,1,I,7,L,6,S,16,0.773883,0.589803,0.456439
11,41,8,1,2,9,1,I,7,L,7,L,16,0.774769,0.587453,0.455141
11,42,2,9,9,1,1,I,7,L,8,L,15,0.593969,0.750365,0.445694
11,43,2,9,1,8,1,C,7,L,7,L,9,0.347987,0.76029,0.264571
11,44,8,1,8,2,1,C,7,L,6,S,10,0.781234,0.363762,0.284183
11,45,8,9,9,1,0,I,1,S,8,L,11,0.789422,0.389213,0.307254
11,46,1,2,1,2,1,C,1,S,1,S,15,0.432839,0.8003,0.346401
11,47,9,1,1,9,1,I,8,L,8,L,14,0.78577,0.566008,0.444752
11,48,1,9,8,1,1,I,8,L,7,L,15,0.570154,0.772215,0.440281
11,49,9,1,9,1,1,C,8,L,8,L,9,0.783679,0.330144,0.258727
11,50,9,8,1,8,0,I,1,S,7,L,10,0.362434,0.790035,0.286335
11,51,9,8,9,8,0,C,1,S,1,S,11,0.395821,0.77861,0.308191
11,52,9,1,8,2,1,C,8,L,6,S,9,0.77237,0.336932,0.260236
11,53,9,2,8,2,1,C,7,L,6,S,9,0.787032,0.323475,0.254585
11,54,1,8,1,2,1,C,7,L,1,S,9,0.355328,0.75566,0.268507
11,55,8,2,2,1,1,C,6,S,1,S,10,0.788734,0.354656,0.279729
11,56,2,9,2,8,1,C,7,L,6,S,10,0.352074,0.798229,0.281036
11,57,2,9,1,9,1,C,7,L,8,L,9,0.348005,0.758805,0.264068
11,58,2,9,2,1,1,I,7,L,1,S,15,0.554964,0.779353,0.432513
11,59,1,2,9,1,0,I,1,S,8,L,14,0.761973,0.501637,0.382233
11,60,2,8,8,1,1,I,6,S,7,L,11,0.460564,0.775959,0.357379
11,61,8,9,2,8,0,C,1,S,6,S,21,0.764722,0.643089,0.491785
11,62,9,2,2,8,1,I,7,L,6,S,12,0.771594,0.500797,0.386412
11,63,1,9,8,2,1,I,8,L,6,S,15,0.565741,0.776226,0.439143
11,64,1,8,1,9,1,C,7,L,8,L,8,0.292871,0.76899,0.225215
11,65,8,2,1,9,1,I,6,S,8,L,16,0.772243,0.605096,0.467281
11,66,2,1,8,9,0,I,1,S,1,S,11,0.402473,0.769792,0.309821
11,67,1,8,2,9,1,C,7,L,7,L,9,0.287984,0.835349,0.240567
11,68,2,1,2,1,0,C,1,S,1,S,19,0.628771,0.757843,0.47651
11,69,9,8,9,1,0,C,1,S,8,L,19,0.639155,0.756012,0.483209
11,70,8,1,8,1,1,C,7,L,7,L,10,0.785278,0.360118,0.282793
11,71,8,2,9,1,1,C,6,S,8,L,10,0.820577,0.332556,0.272888
11,72,8,2,2,8,1,I,6,S,6,S,15,0.779706,0.566136,0.44142
11,73,8,9,8,1,0,I,1,S,7,L,11,0.778854,0.394677,0.307395
11,74,9,1,1,8,1,I,8,L,7,L,14,0.785128,0.567998,0.445951
11,75,9,1,8,9,1,I,8,L,1,S,12,0.774413,0.485241,0.375777
11,76,1,2,9,8,1,I,1,S,1,S,12,0.407945,0.791933,0.323065
11,77,9,1,2,8,1,I,8,L,6,S,12,0.752953,0.517077,0.389335
11,78,8,1,9,2,1,C,7,L,7,L,10,0.790851,0.359012,0.283925
11,79,2,8,1,8,1,C,6,S,7,L,8,0.296427,0.766672,0.227262
11,80,2,8,1,9,1,C,6,S,8,L,8,0.29629,0.765395,0.226779
11,81,9,8,2,9,0,I,1,S,7,L,11,0.371196,0.80842,0.300082
11,82,8,9,1,2,0,C,1,S,1,S,15,0.750073,0.496604,0.37249
11,83,2,8,9,8,1,I,6,S,1,S,9,0.310806,0.809835,0.251701
11,84,1,2,8,2,0,I,1,S,6,S,15,0.755651,0.525928,0.397418
11,85,2,9,2,9,1,C,7,L,7,L,10,0.352099,0.796601,0.280483
11,86,1,9,1,9,1,C,8,L,8,L,9,0.340876,0.766429,0.261257
11,87,2,1,9,1,0,C,1,S,8,L,20,0.641126,0.765251,0.490622
11,88,9,1,9,2,1,C,8,L,7,L,9,0.780418,0.333248,0.260073
11,89,1,9,9,2,1,I,8,L,7,L,15,0.577703,0.768903,0.444197
11,90,8,2,1,2,1,I,6,S,1,S,12,0.801506,0.408667,0.327549
11,91,1,9,1,2,1,C,8,L,1,S,11,0.407169,0.7658,0.31181
11,92,1,8,8,9,1,C,7,L,1,S,9,0.302224,0.815382,0.246428
11,93,8,1,1,8,1,I,7,L,7,L,17,0.767263,0.624568,0.479208
11,94,9,2,2,9,1,I,7,L,7,L,12,0.771988,0.498759,0.385036
11,95,1,9,9,8,1,I,8,L,1,S,10,0.365555,0.780416,0.285286
11,96,8,1,1,2,1,I,7,L,1,S,12,0.765962,0.438024,0.33551
11,97,2,1,2,9,0,I,1,S,7,L,11,0.383068,0.797454,0.305479
11,98,9,2,8,9,1,I,7,L,1,S,12,0.793054,0.468961,0.371911
11,99,9,2,1,2,1,I,7,L,1,S,10,0.767911,0.385626,0.296126
11,100,2,8,8,9,1,C,6,S,1,S,9,0.30604,0.811184,0.248254
11,101,8,9,9,8,0,I,1,S,1,S,20,0.753476,0.640074,0.482281
11,102,9,1,1,2,1,I,8,L,1,S,10,0.750998,0.400565,0.300824
11,103,1,9,2,9,1,C,8,L,7,L,10,0.343379,0.806554,0.276954
11,104,2,1,2,8,0,I,1,S,6,S,11,0.382854,0.79931,0.306019
11,105,8,2,8,1,1,C,6,S,7,L,10,0.811147,0.337155,0.273482
11,106,8,2,9,8,1,C,6,S,1,S,14,0.77409,0.536743,0.415487
11,107,2,9,9,2,1,I,7,L,7,L,15,0.590004,0.754043,0.444889
11,108,9,2,8,1,1,C,7,L,7,L,9,0.790389,0.320276,0.253143
11,109,9,1,9,8,1,C,8,L,1,S,12,0.77957,0.483045,0.376567
11,110,1,2,1,8,1,C,1,S,7,L,10,0.390819,0.756141,0.295515
11,111,2,1,1,2,0,I,1,S,1,S,13,0.446832,0.762986,0.340926
11,112,8,1,9,1,1,C,7,L,8,L,10,0.794708,0.355519,0.282534
11,113,1,9,9,1,1,I,8,L,8,L,15,0.581668,0.765224,0.445106
11,114,9,2,1,9,1,I,7,L,8,L,13,0.768254,0.554784,0.426215
11,115,8,1,1,9,1,I,7,L,8,L,17,0.768077,0.622525,0.478147
11,116,8,1,2,1,1,C,7,L,1,S,10,0.762865,0.377618,0.288072
11,117,2,1,8,1,0,C,1,S,7,L,20,0.6317,0.771405,0.487297
11,118,8,1,8,9,1,I,7,L,1,S,15,0.764528,0.566019,0.432737
11,119,9,1,2,1,1,C,8,L,1,S,9,0.757481,0.348493,0.263977
11,120,2,1,9,8,0,C,1,S,1,S,11,0.407694,0.767645,0.312964
11,121,9,8,8,2,0,C,1,S,6,S,19,0.626283,0.765476,0.479404
11,122,2,8,2,1,1,I,6,S,1,S,11,0.434877,0.79566,0.346014
11,123,1,8,8,1,1,I,7,L,7,L,11,0.456391,0.780622,0.356269
11,124,8,9,1,8,1,C,1,S,7,L,13,0.491678,0.765897,0.376574
11,125,1,2,9,2,0,I,1,S,7,L,14,0.757751,0.505464,0.383016
11,126,2,8,2,9,1,C,6,S,7,L,9,0.291799,0.831151,0.242529
11,127,9,2,9,1,1,C,7,L,8,L,9,0.798341,0.316687,0.252824
11,128,9,1,8,1,1,C,8,L,7,L,9,0.775727,0.333733,0.258886
11,129,2,8,1,2,1,C,6,S,1,S,9,0.359143,0.751462,0.269883
11,130,1,9,2,1,1,I,8,L,1,S,14,0.546998,0.760706,0.416104
11,131,1,9,1,8,1,C,8,L,7,L,9,0.340858,0.767913,0.26175
11,132,9,8,2,1,0,C,1,S,1,S,18,0.622359,0.750058,0.466806
11,133,8,9,2,1,0,I,1,S,1,S,11,0.753167,0.414377,0.312095
11,134,2,1,9,2,0,C,1,S,7,L,20,0.638798,0.767748,0.490436
11,135,2,1,1,9,0,I,1,S,8,L,10,0.372082,0.780538,0.290424
11,136,1,8,2,1,1,I,7,L,1,S,11,0.430704,0.800323,0.344702
11,137,9,1,2,9,1,I,8,L,7,L,12,0.753347,0.515039,0.388003
11,138,1,8,9,1,1,I,7,L,8,L,11,0.466959,0.775158,0.361968
11,139,8,2,8,2,1,C,6,S,6,S,10,0.807103,0.340799,0.27506
11,140,1,2,2,1,1,I,1,S,1,S,23,0.634439,0.777918,0.493542
11,141,8,9,1,9,1,C,1,S,8,L,13,0.492231,0.763949,0.376039
11,142,8,2,2,9,1,I,6,S,7,L,15,0.780505,0.563817,0.440062
11,143,9,8,9,2,0,C,1,S,7,L,19,0.63651,0.75876,0.482959
11,144,1,2,1,9,1,C,1,S,8,L,10,0.390991,0.754484,0.294997
12,1,9,8,8,2,1,C,1,S,6,S,15,0.758728,0.493208,0.374211
12,2,9,2,9,8,1,C,7,L,1,S,11,0.770035,0.419871,0.323315
12,3,8,1,1,9,1,I,7,L,8,L,10,0.7522,0.40851,0.307281
12,4,8,9,9,1,0,I,1,S,8,L,12,0.78098,0.417452,0.326022
12,5,2,9,2,8,1,C,7,L,6,S,11,0.404302,0.762151,0.30814
12,6,8,9,1,2,0,C,1,S,1,S,16,0.754071,0.48295,0.364179
12,7,9,1,8,2,1,C,8,L,6,S,9,0.787487,0.32746,0.257871
12,8,8,1,2,9,1,I,7,L,7,L,10,0.762645,0.396644,0.302499
12,9,9,2,1,9,1,I,7,L,8,L,11,0.752757,0.441135,0.332068
12,10,8,2,1,8,1,I,6,S,7,L,14,0.758396,0.538054,0.408058
12,11,9,8,9,8,0,C,1,S,1,S,15,0.472022,0.76108,0.359246
12,12,1,8,8,2,1,I,7,L,6,S,12,0.444484,0.797288,0.354381
12,13,1,8,9,2,1,I,7,L,7,L,11,0.443494,0.754759,0.334731
12,14,9,8,2,9,0,I,1,S,7,L,15,0.463285,0.773496,0.358349
12,15,1,2,1,8,1,C,1,S,7,L,13,0.430315,0.787992,0.339084
12,16,9,1,1,2,1,I,8,L,1,S,10,0.826014,0.340847,0.281545
12,17,2,9,2,1,1,I,7,L,1,S,16,0.568609,0.757468,0.430703
12,18,8,2,9,1,1,C,6,S,8,L,10,0.768838,0.372388,0.286306
12,19,8,1,9,1,1,C,7,L,8,L,9,0.782348,0.327793,0.256448
12,20,1,9,2,1,1,I,8,L,1,S,14,0.525333,0.761127,0.399845
12,21,2,1,1,9,1,I,1,S,8,L,12,0.790771,0.438621,0.346849
12,22,9,2,8,2,1,C,7,L,6,S,10,0.790571,0.35757,0.282685
12,23,9,8,9,1,1,C,1,S,8,L,13,0.758895,0.466379,0.353932
12,24,1,9,8,9,1,C,8,L,1,S,13,0.439309,0.796942,0.350104
12,25,2,8,8,2,1,I,6,S,6,S,12,0.467632,0.764745,0.357619
12,26,9,2,2,9,1,I,7,L,7,L,11,0.766508,0.424951,0.325728
12,27,9,1,8,9,1,I,8,L,1,S,9,0.760851,0.353215,0.268744
12,28,8,1,9,8,1,C,7,L,1,S,10,0.765131,0.39288,0.300605
12,29,8,1,8,9,1,I,7,L,1,S,10,0.806657,0.351634,0.283648
12,30,8,9,2,8,0,C,1,S,6,S,23,0.753729,0.649087,0.489236
12,31,2,1,2,1,1,C,1,S,1,S,10,0.784026,0.35971,0.282022
12,32,2,9,9,8,1,I,7,L,1,S,12,0.417741,0.773441,0.323098
12,33,1,9,2,9,1,C,8,L,7,L,11,0.40802,0.76213,0.310964
12,34,8,2,1,9,1,I,6,S,8,L,13,0.768271,0.481166,0.369665
12,35,1,8,2,1,1,I,7,L,1,S,12,0.450298,0.792511,0.356866
12,36,8,2,2,1,1,C,6,S,1,S,11,0.813792,0.364189,0.296374
12,37,9,8,8,9,0,I,1,S,1,S,26,0.627509,0.774791,0.486189
12,38,1,9,9,1,1,I,8,L,8,L,15,0.573766,0.755566,0.433519
12,39,8,1,9,2,1,C,7,L,7,L,9,0.750209,0.354311,0.265807
12,40,8,9,1,9,0,C,1,S,8,L,22,0.750837,0.636373,0.477813
12,41,8,1,8,2,1,C,7,L,6,S,9,0.753745,0.350762,0.264385
12,42,9,2,1,8,1,I,7,L,7,L,12,0.763157,0.4821,0.367918
12,43,1,9,9,8,1,I,8,L,1,S,11,0.411546,0.757051,0.311562
12,44,1,2,2,8,1,C,1,S,6,S,13,0.443076,0.771025,0.341622
12,45,9,2,9,1,1,C,7,L,8,L,10,0.827836,0.328645,0.272064
12,46,2,1,2,9,1,I,1,S,7,L,11,0.754737,0.431543,0.325701
12,47,1,2,9,2,0,I,1,S,7,L,17,0.756414,0.531185,0.401796
12,48,2,8,8,9,1,C,6,S,1,S,11,0.420459,0.763414,0.320984
12,49,2,1,9,2,1,C,1,S,7,L,10,0.775387,0.367652,0.285072
12,50,2,8,9,2,1,I,6,S,7,L,12,0.45985,0.771256,0.354662
12,51,8,9,9,8,0,I,1,S,1,S,21,0.757623,0.605961,0.45909
12,52,9,2,8,1,1,C,7,L,7,L,10,0.831536,0.325372,0.270559
12,53,1,2,9,8,1,I,1,S,1,S,15,0.451777,0.7829,0.353696
12,54,1,2,2,9,1,C,1,S,7,L,15,0.44304,0.795316,0.352357
12,55,1,9,1,8,1,C,8,L,7,L,11,0.359996,0.820148,0.29525
12,56,8,2,2,9,1,I,6,S,7,L,13,0.789293,0.454657,0.358858
12,57,1,9,8,1,1,I,8,L,7,L,15,0.578383,0.751568,0.434694
12,58,8,9,8,9,0,C,1,S,1,S,15,0.796984,0.438159,0.349206
12,59,9,1,1,9,1,I,8,L,8,L,10,0.789693,0.382476,0.302038
12,60,9,2,1,2,1,I,7,L,1,S,11,0.802565,0.383716,0.307957
12,61,9,1,9,1,1,C,8,L,8,L,9,0.81609,0.304492,0.248493
12,62,9,1,1,8,1,I,8,L,7,L,10,0.761967,0.4149,0.31614
12,63,8,9,1,8,0,C,1,S,7,L,24,0.775491,0.63833,0.495019
12,64,1,9,9,2,1,I,8,L,7,L,14,0.508558,0.774579,0.393918
12,65,2,8,2,8,1,C,6,S,6,S,10,0.361281,0.783482,0.283057
12,66,1,8,8,9,1,C,7,L,1,S,11,0.39902,0.793833,0.316756
12,67,9,2,2,8,1,I,7,L,6,S,12,0.774782,0.466743,0.361625
12,68,8,9,9,2,0,I,1,S,7,L,13,0.77312,0.437166,0.337981
12,69,8,1,2,8,1,I,7,L,6,S,11,0.787356,0.425665,0.33515
12,70,1,8,9,1,1,I,7,L,8,L,12,0.496977,0.75811,0.376763
12,71,2,9,9,2,1,I,7,L,7,L,16,0.551444,0.771461,0.425417
12,72,9,8,1,9,0,I,1,S,8,L,14,0.465061,0.761257,0.354031
12,73,8,1,1,8,1,I,7,L,7,L,11,0.777236,0.438769,0.341027
12,74,9,1,2,1,1,C,8,L,1,S,9,0.790242,0.324789,0.256662
12,75,2,8,1,8,1,C,6,S,7,L,10,0.352911,0.79398,0.280204
12,76,2,9,8,1,1,I,7,L,7,L,18,0.602533,0.776641,0.467952
12,77,1,2,8,1,0,I,1,S,7,L,13,0.751919,0.474141,0.356516
12,78,1,8,1,8,1,C,7,L,7,L,10,0.333927,0.820883,0.274115
12,79,8,9,2,9,0,C,1,S,7,L,22,0.77581,0.606918,0.470853
12,80,1,8,2,9,1,C,7,L,7,L,10,0.372098,0.776592,0.288968
12,81,8,9,8,2,0,I,1,S,6,S,13,0.782067,0.429884,0.336198
12,82,8,9,8,1,0,I,1,S,7,L,12,0.785652,0.413529,0.32489
12,83,8,2,8,2,1,C,6,S,6,S,11,0.808967,0.368314,0.297953
12,84,2,9,2,9,1,C,7,L,7,L,12,0.412978,0.780159,0.322189
12,85,1,9,2,8,1,C,8,L,6,S,11,0.370116,0.807044,0.2987
12,86,1,8,2,8,1,C,7,L,6,S,10,0.342297,0.810385,0.277392
12,87,9,8,1,8,0,I,1,S,7,L,13,0.442119,0.776172,0.34316
12,88,8,9,2,1,0,I,1,S,1,S,13,0.788651,0.424595,0.334857
12,89,2,1,9,8,1,C,1,S,1,S,11,0.758264,0.426464,0.323372
12,90,2,8,2,9,1,C,6,S,7,L,11,0.359332,0.82622,0.296887
12,91,2,1,8,9,1,I,1,S,1,S,11,0.815865,0.368737,0.300839
12,92,9,8,2,1,1,C,1,S,1,S,15,0.765955,0.487407,0.373332
12,93,8,2,1,2,1,I,6,S,1,S,12,0.79287,0.409946,0.325033
12,94,2,9,1,9,1,C,7,L,8,L,12,0.395596,0.801375,0.317021
12,95,2,8,9,8,1,I,6,S,1,S,11,0.362858,0.821141,0.297957
12,96,2,9,9,1,1,I,7,L,8,L,18,0.59887,0.78005,0.467149
12,97,8,1,2,1,1,C,7,L,1,S,9,0.7565,0.348091,0.263331
12,98,1,2,8,2,0,I,1,S,6,S,16,0.755485,0.516398,0.390131
12,99,9,1,2,9,1,I,8,L,7,L,10,0.800138,0.370609,0.296539
12,100,2,1,2,8,1,I,1,S,6,S,12,0.762016,0.474162,0.361319
12,101,2,8,2,1,1,I,6,S,1,S,12,0.473446,0.759968,0.359804
12,102,9,8,2,8,0,I,1,S,6,S,13,0.45488,0.759205,0.345347
12,103,9,2,2,1,1,C,7,L,1,S,10,0.794329,0.354173,0.28133
12,104,1,2,8,9,1,C,1,S,1,S,23,0.619859,0.755628,0.468382
12,105,2,9,8,9,1,C,7,L,1,S,14,0.471577,0.776265,0.366069
12,106,9,2,8,9,1,I,7,L,1,S,10,0.753048,0.392078,0.295254
12,107,8,2,8,1,1,C,6,S,7,L,10,0.772538,0.369115,0.285156
12,108,1,2,9,1,0,I,1,S,8,L,14,0.775602,0.472545,0.366506
12,109,1,9,1,9,1,C,8,L,8,L,11,0.394269,0.778315,0.306866
12,110,8,2,8,9,1,I,6,S,1,S,11,0.758136,0.412955,0.313076
12,111,9,1,9,8,1,C,8,L,1,S,10,0.802624,0.366845,0.294439
12,112,2,1,1,2,1,I,1,S,1,S,11,0.790794,0.390308,0.308653
12,113,1,2,1,2,1,C,1,S,1,S,18,0.493303,0.75834,0.374091
12,114,9,1,2,8,1,I,8,L,6,S,10,0.770338,0.404402,0.311526
12,115,1,2,1,9,1,C,1,S,8,L,14,0.449486,0.777434,0.349446
12,116,9,8,1,2,0,I,1,S,1,S,20,0.485805,0.778074,0.377993
12,117,1,2,2,1,0,I,1,S,1,S,16,0.762628,0.510583,0.389385
12,118,1,9,8,2,1,I,8,L,6,S,14,0.518276,0.766759,0.397393
12,119,8,2,9,8,1,C,6,S,1,S,13,0.795419,0.446039,0.354788
12,120,1,8,1,9,1,C,7,L,8,L,10,0.361652,0.788458,0.285148
12,121,2,1,9,1,1,C,1,S,8,L,10,0.817533,0.334182,0.273205
12,122,9,1,8,1,1,C,8,L,7,L,9,0.819049,0.301707,0.247113
12,123,9,8,8,1,1,C,1,S,7,L,13,0.763723,0.462321,0.353086
12,124,8,2,2,8,1,I,6,S,6,S,14,0.771877,0.52022,0.401546
12,125,1,9,1,2,1,C,8,L,1,S,12,0.421506,0.778178,0.328007
12,126,2,8,8,1,1,I,6,S,7,L,13,0.525134,0.760397,0.39931
12,127,8,1,8,1,1,C,7,L,7,L,9,0.785307,0.325008,0.255232
12,128,2,9,1,2,1,C,7,L,1,S,13,0.438557,0.775344,0.340033
12,129,1,8,9,8,1,I,7,L,1,S,10,0.374584,0.772828,0.289489
12,130,9,8,9,2,1,C,1,S,7,L,16,0.771264,0.495678,0.382298
12,131,2,8,1,9,1,C,6,S,8,L,10,0.380636,0.761556,0.289876
12,132,9,2,9,2,1,C,7,L,7,L,10,0.78569,0.362114,0.284509
12,133,1,8,1,2,1,C,7,L,1,S,11,0.37395,0.815404,0.30492
12,134,9,1,9,2,1,C,8,L,7,L,9,0.78395,0.33101,0.259495
12,135,2,9,8,2,1,I,7,L,6,S,16,0.561466,0.763282,0.428557
12,136,8,1,1,2,1,I,7,L,1,S,10,0.788521,0.366882,0.289294
12,137,1,8,8,1,1,I,7,L,7,L,12,0.50165,0.754187,0.378337
12,138,2,1,8,2,1,C,1,S,6,S,10,0.780268,0.363108,0.283321
12,139,2,1,8,1,1,C,1,S,7,L,10,0.821233,0.330909,0.271754
12,140,8,2,9,2,1,C,6,S,7,L,11,0.802609,0.37388,0.30008
12,141,2,8,1,2,1,C,6,S,1,S,11,0.395388,0.784985,0.310374
12,142,2,1,1,8,1,I,1,S,7,L,12,0.750391,0.489519,0.36733
12,143,2,8,9,1,1,I,6,S,8,L,13,0.520305,0.764454,0.397749
12,144,2,9,1,8,1,C,7,L,7,L,11,0.394183,0.775255,0.305592
13,1,9,8,2,8,0,I,1,S,6,S,12,0.460395,0.750384,0.345473
13,2,8,1,8,1,1,C,7,L,7,L,9,0.783174,0.329468,0.258031
13,3,2,8,8,2,1,I,6,S,6,S,13,0.463412,0.77123,0.357397
13,4,2,1,8,9,1,I,1,S,1,S,11,0.793825,0.393135,0.31208
13,5,2,1,9,2,1,C,1,S,7,L,10,0.823694,0.33171,0.273228
13,6,1,9,8,1,1,I,8,L,7,L,14,0.537297,0.758375,0.407473
13,7,9,8,8,9,1,I,1,S,1,S,20,0.75892,0.545384,0.413903
13,8,2,8,2,9,1,C,6,S,7,L,11,0.373294,0.801695,0.299268
13,9,2,8,8,1,1,I,6,S,7,L,15,0.559144,0.759668,0.424763
13,10,8,9,2,8,1,C,1,S,6,S,12,0.457185,0.751382,0.343521
13,11,2,9,1,9,1,C,7,L,8,L,11,0.370946,0.802991,0.297866
13,12,2,9,1,8,1,C,7,L,7,L,10,0.36299,0.780703,0.283387
13,13,1,8,8,9,1,C,7,L,1,S,11,0.414893,0.756845,0.31401
13,14,9,2,8,9,1,I,7,L,1,S,13,0.771749,0.453402,0.349913
13,15,2,9,2,9,1,C,7,L,7,L,11,0.381379,0.790151,0.301347
13,16,2,9,8,9,1,C,7,L,1,S,12,0.425354,0.768563,0.326911
13,17,9,8,1,2,0,I,1,S,1,S,18,0.555864,0.753012,0.418573
13,18,9,2,1,9,1,I,7,L,8,L,16,0.751141,0.590395,0.44347
13,19,9,1,2,1,1,C,8,L,1,S,10,0.828045,0.335259,0.27761
13,20,2,8,9,2,1,I,6,S,7,L,16,0.571684,0.778857,0.44526
13,21,8,1,2,8,1,I,7,L,6,S,11,0.751044,0.486642,0.365489
13,22,1,9,9,8,1,I,8,L,1,S,11,0.41134,0.757263,0.311492
13,23,1,8,2,8,1,C,7,L,6,S,10,0.340132,0.810693,0.275743
13,24,8,1,9,1,1,C,7,L,8,L,9,0.823073,0.298685,0.245839
13,25,9,8,9,2,1,C,1,S,7,L,12,0.760824,0.439673,0.334514
13,26,1,8,2,1,1,I,7,L,1,S,12,0.4334,0.772916,0.334981
13,27,2,1,1,8,1,I,1,S,7,L,14,0.784184,0.549131,0.43062
13,28,2,9,2,1,1,I,7,L,1,S,13,0.458819,0.764681,0.35085
13,29,1,8,8,1,1,I,7,L,7,L,14,0.528031,0.771725,0.407495
13,30,8,1,2,9,1,I,7,L,7,L,11,0.800864,0.419669,0.336097
13,31,9,8,2,1,1,C,1,S,1,S,15,0.762693,0.46689,0.356094
13,32,1,8,2,9,1,C,7,L,7,L,10,0.383459,0.753311,0.288864
13,33,9,2,1,8,1,I,7,L,7,L,18,0.766526,0.626692,0.480376
13,34,8,9,8,2,0,I,1,S,6,S,15,0.779442,0.456051,0.355466
13,35,9,1,1,8,1,I,8,L,7,L,11,0.751354,0.490149,0.368276
13,36,2,9,8,1,1,I,7,L,7,L,16,0.56596,0.774148,0.438137
13,37,2,9,8,2,1,I,7,L,6,S,13,0.474279,0.755612,0.358371
13,38,2,8,1,9,1,C,6,S,8,L,11,0.362861,0.814536,0.295563
13,39,8,9,1,9,1,C,1,S,8,L,14,0.489315,0.753137,0.368521
13,40,8,2,9,2,1,C,6,S,7,L,11,0.787856,0.391429,0.308389
13,41,1,8,1,8,1,C,7,L,7,L,10,0.334552,0.81757,0.273519
13,42,8,2,2,8,1,I,6,S,6,S,19,0.778738,0.623531,0.485567
13,43,8,9,1,8,1,C,1,S,7,L,12,0.450944,0.759099,0.342311
13,44,9,1,8,9,1,I,8,L,1,S,10,0.804069,0.361913,0.291003
13,45,1,2,8,9,1,C,1,S,1,S,13,0.42316,0.794787,0.336322
13,46,1,9,2,8,1,C,8,L,6,S,10,0.345903,0.802116,0.277454
13,47,9,8,1,9,0,I,1,S,8,L,14,0.494586,0.750414,0.371145
13,48,9,8,2,9,0,I,1,S,7,L,15,0.506267,0.755497,0.382483
13,49,1,2,1,9,1,C,1,S,8,L,11,0.393616,0.77818,0.306304
13,50,8,2,1,2,1,I,6,S,1,S,16,0.76332,0.5615,0.428604
13,51,9,2,9,2,1,C,7,L,7,L,11,0.801729,0.381042,0.305492
13,52,9,2,2,1,1,C,7,L,1,S,12,0.770538,0.424297,0.326937
13,53,8,9,2,9,1,C,1,S,7,L,15,0.499468,0.759438,0.379315
13,54,9,2,9,8,1,C,7,L,1,S,13,0.752858,0.473968,0.356831
13,55,1,9,9,2,1,I,8,L,7,L,15,0.552268,0.779357,0.430414
13,56,9,2,8,1,1,C,7,L,7,L,11,0.786998,0.390009,0.306936
13,57,1,9,8,2,1,I,8,L,6,S,12,0.453413,0.754546,0.342121
13,58,8,1,1,9,1,I,7,L,8,L,11,0.790431,0.432509,0.341869
13,59,2,1,1,9,1,I,1,S,8,L,12,0.759601,0.485037,0.368434
13,60,2,8,1,2,1,C,6,S,1,S,11,0.389397,0.781039,0.304134
13,61,1,9,9,1,1,I,8,L,8,L,16,0.587518,0.77564,0.455702
13,62,9,2,2,8,1,I,7,L,6,S,18,0.771512,0.621234,0.47929
13,63,9,2,9,1,1,C,7,L,8,L,10,0.763916,0.382496,0.292195
13,64,8,2,8,9,1,I,6,S,1,S,13,0.751148,0.468389,0.35183
13,65,9,2,2,9,1,I,7,L,7,L,16,0.764403,0.574098,0.438842
13,66,8,2,2,1,1,C,6,S,1,S,12,0.753147,0.437104,0.329203
13,67,1,2,2,9,1,C,1,S,7,L,11,0.404049,0.765339,0.309235
13,68,1,2,8,1,1,I,1,S,7,L,17,0.591524,0.764822,0.452411
13,69,1,2,8,2,1,I,1,S,6,S,14,0.494689,0.758206,0.375076
13,70,8,1,9,2,1,C,7,L,7,L,9,0.792821,0.323935,0.256822
13,71,1,9,1,2,1,C,8,L,1,S,11,0.370031,0.80491,0.297841
13,72,9,1,8,2,1,C,8,L,6,S,9,0.751369,0.360824,0.271112
13,73,2,1,2,8,1,I,1,S,6,S,13,0.754961,0.544484,0.411064
13,74,8,9,9,2,0,I,1,S,7,L,12,0.757615,0.44067,0.333859
13,75,9,1,9,8,1,C,8,L,1,S,10,0.796395,0.369572,0.294325
13,76,9,1,2,8,1,I,8,L,6,S,11,0.757367,0.482674,0.365561
13,77,8,1,1,8,1,I,7,L,7,L,12,0.788301,0.496152,0.391117
13,78,2,1,9,1,1,C,1,S,8,L,9,0.763546,0.340213,0.259768
13,79,8,2,9,8,1,C,6,S,1,S,14,0.774331,0.473658,0.366768
13,80,1,9,2,1,1,I,8,L,1,S,12,0.441421,0.761026,0.335933
13,81,9,8,8,1,1,C,1,S,7,L,13,0.795649,0.425522,0.338566
13,82,8,2,1,9,1,I,6,S,8,L,17,0.757699,0.600434,0.454948
13,83,1,2,1,2,1,C,1,S,1,S,12,0.385288,0.815545,0.31422
13,84,1,2,1,8,1,C,1,S,7,L,10,0.381492,0.761837,0.290635
13,85,2,8,2,1,1,I,6,S,1,S,13,0.447951,0.780298,0.349535
13,86,2,1,8,1,1,C,1,S,7,L,10,0.811422,0.33901,0.275081
13,87,1,8,8,2,1,I,7,L,6,S,12,0.445392,0.766436,0.341364
