ANN,trial,N1,N2,P1,P2,Succ.,Cong,Ndist,Ndist,Pdist,Pdist,rt,a1,a2,x_acc
1,1,1,8,1,9,1,C,7,L,8,L,9,0.278444,0.850035,0.236687
1,2,1,9,9,1,1,I,8,L,8,L,13,0.553692,0.76675,0.424544
1,3,8,1,2,1,1,C,7,L,1,S,10,0.828135,0.33281,0.275612
1,4,2,9,1,9,1,C,7,L,8,L,10,0.322861,0.83587,0.26987
1,5,1,2,9,2,0,I,1,S,7,L,12,0.7782,0.437371,0.340363
1,6,2,8,1,2,1,C,6,S,1,S,10,0.379534,0.769671,0.292116
1,7,2,1,2,9,1,I,1,S,7,L,14,0.772556,0.564858,0.436384
1,8,9,8,2,8,1,I,1,S,6,S,22,0.773872,0.64016,0.495402
1,9,1,9,1,2,1,C,8,L,1,S,10,0.374558,0.778712,0.291673
1,10,8,1,8,2,1,C,7,L,6,S,9,0.851311,0.277023,0.235832
1,11,9,2,9,8,1,C,7,L,1,S,9,0.792895,0.327998,0.260068
1,12,8,9,2,1,1,I,1,S,1,S,22,0.604521,0.759315,0.459022
1,13,9,2,2,9,1,I,7,L,7,L,11,0.7645,0.487584,0.372758
1,14,2,9,2,1,1,I,7,L,1,S,12,0.430157,0.780576,0.33577
1,15,9,1,8,1,1,C,8,L,7,L,8,0.809069,0.266637,0.215728
1,16,2,9,8,2,1,I,7,L,6,S,16,0.596882,0.779031,0.46499
1,17,1,9,2,1,1,I,8,L,1,S,11,0.383437,0.813205,0.311813
1,18,2,9,9,2,1,I,7,L,7,L,15,0.592675,0.758825,0.449737
1,19,8,1,2,9,1,I,7,L,7,L,12,0.779431,0.507776,0.395777
1,20,1,8,2,9,1,C,7,L,7,L,9,0.273938,0.853828,0.233896
1,21,9,8,8,2,1,C,1,S,6,S,11,0.813712,0.371606,0.30238
1,22,9,2,1,2,1,I,7,L,1,S,9,0.751592,0.366203,0.275235
1,23,2,8,8,9,1,C,6,S,1,S,11,0.401165,0.792445,0.317901
1,24,1,8,9,2,1,I,7,L,7,L,11,0.489391,0.755236,0.369605
1,25,1,9,8,2,1,I,8,L,6,S,13,0.546758,0.771189,0.421654
1,26,9,8,9,8,1,C,1,S,1,S,12,0.75142,0.437697,0.328894
1,27,8,9,9,2,0,I,1,S,7,L,12,0.758211,0.453587,0.343914
1,28,8,2,9,2,1,C,6,S,7,L,9,0.789562,0.32447,0.256189
1,29,1,2,8,1,0,I,1,S,7,L,11,0.7705,0.420487,0.323985
1,30,9,1,8,9,1,I,8,L,1,S,9,0.811004,0.313538,0.254281
1,31,9,8,9,2,1,C,1,S,7,L,11,0.797706,0.384466,0.306691
1,32,2,8,2,8,1,C,6,S,6,S,9,0.329068,0.779051,0.256361
1,33,9,2,2,8,1,I,7,L,6,S,11,0.787436,0.457959,0.360613
1,34,9,8,1,2,1,I,1,S,1,S,16,0.778006,0.484448,0.376904
1,35,2,1,1,8,1,I,1,S,7,L,13,0.767646,0.53146,0.407974
1,36,1,9,9,2,1,I,8,L,7,L,13,0.530916,0.784296,0.416395
1,37,1,2,2,9,1,C,1,S,7,L,11,0.417587,0.765204,0.31954
1,38,2,8,2,9,1,C,6,S,7,L,9,0.31014,0.802954,0.249028
1,39,9,2,2,1,1,C,7,L,1,S,9,0.770175,0.345072,0.265766
1,40,1,2,8,9,0,C,1,S,1,S,19,0.757682,0.538237,0.407812
1,41,2,8,1,8,1,C,6,S,7,L,9,0.334915,0.773803,0.259158
1,42,1,9,9,8,1,I,8,L,1,S,11,0.425594,0.781018,0.332396
1,43,9,1,2,1,1,C,8,L,1,S,9,0.804898,0.319416,0.257098
1,44,1,2,1,2,1,C,1,S,1,S,17,0.485289,0.760828,0.369221
1,45,1,9,2,9,1,C,8,L,7,L,9,0.306053,0.810714,0.248122
1,46,2,1,9,1,1,C,1,S,8,L,9,0.794144,0.320917,0.254854
1,47,8,1,9,2,1,C,7,L,7,L,9,0.837848,0.288036,0.24133
1,48,1,2,9,1,0,I,1,S,8,L,11,0.757856,0.43081,0.326492
1,49,9,1,1,9,1,I,8,L,8,L,10,0.757625,0.450671,0.341439
1,50,8,2,2,1,1,C,6,S,1,S,10,0.77307,0.373897,0.289048
1,51,8,2,1,9,1,I,6,S,8,L,13,0.76223,0.549221,0.418632
1,52,8,1,2,8,1,I,7,L,6,S,11,0.759533,0.475797,0.361384
1,53,9,2,1,9,1,I,7,L,8,L,11,0.769358,0.483218,0.371768
1,54,8,9,2,9,1,C,1,S,7,L,11,0.402338,0.776327,0.312346
1,55,9,1,9,8,1,C,8,L,1,S,9,0.827618,0.302343,0.250224
1,56,8,2,2,8,1,I,6,S,6,S,13,0.7816,0.52306,0.408823
1,57,2,1,1,9,1,I,1,S,8,L,14,0.776937,0.561174,0.435997
1,58,1,8,2,8,1,C,7,L,6,S,9,0.292866,0.829925,0.243057
1,59,1,2,2,8,1,C,1,S,6,S,12,0.423054,0.785825,0.332446
1,60,8,9,8,9,1,C,1,S,1,S,23,0.622895,0.761411,0.474279
1,61,2,9,8,9,1,C,7,L,1,S,12,0.44638,0.766544,0.342169
1,62,1,9,1,8,1,C,8,L,7,L,9,0.330827,0.781563,0.258563
1,63,9,2,9,2,1,C,7,L,7,L,8,0.752587,0.309803,0.233154
1,64,2,1,8,1,1,C,1,S,7,L,9,0.805476,0.311661,0.251035
1,65,2,9,1,8,1,C,7,L,7,L,10,0.345907,0.806358,0.278925
1,66,2,8,9,2,1,I,6,S,7,L,13,0.537439,0.773669,0.4158
1,67,9,2,8,2,1,C,7,L,6,S,8,0.763681,0.30034,0.229364
1,68,9,8,1,9,0,I,1,S,8,L,14,0.514753,0.759891,0.391156
1,69,2,1,2,8,1,I,1,S,6,S,13,0.76058,0.538568,0.409624
1,70,1,8,8,2,1,I,7,L,6,S,12,0.507785,0.784995,0.398608
1,71,1,8,9,8,1,I,7,L,1,S,10,0.39702,0.773916,0.30726
1,72,1,9,8,9,1,C,8,L,1,S,11,0.395475,0.802392,0.317326
1,73,9,8,2,9,0,I,1,S,7,L,13,0.495776,0.751577,0.372614
1,74,2,9,2,9,1,C,7,L,7,L,10,0.318094,0.840085,0.267226
1,75,2,8,9,8,1,I,6,S,1,S,11,0.431284,0.771071,0.33255
1,76,2,1,8,2,1,C,1,S,6,S,9,0.788319,0.324182,0.255559
1,77,8,1,9,1,1,C,7,L,8,L,9,0.857135,0.273757,0.234647
1,78,2,8,2,1,1,I,6,S,1,S,11,0.389127,0.803258,0.31257
1,79,9,2,9,1,1,C,7,L,8,L,8,0.768598,0.297683,0.228798
1,80,2,1,1,2,1,I,1,S,1,S,11,0.792694,0.396032,0.313932
1,81,8,1,9,8,1,C,7,L,1,S,9,0.7686,0.342725,0.263418
1,82,1,8,8,9,1,C,7,L,1,S,10,0.374332,0.789805,0.295649
1,83,8,9,9,8,1,I,1,S,1,S,24,0.64951,0.755405,0.490643
1,84,9,8,8,1,1,C,1,S,7,L,10,0.765829,0.382619,0.29302
1,85,1,8,8,1,1,I,7,L,7,L,12,0.527289,0.77027,0.406155
1,86,9,8,8,9,1,I,1,S,1,S,13,0.7674,0.436652,0.335087
1,87,9,8,1,8,1,I,1,S,7,L,22,0.777148,0.638055,0.495863
1,88,1,2,8,2,0,I,1,S,6,S,11,0.751012,0.434922,0.326632
1,89,2,9,9,1,1,I,7,L,8,L,16,0.603121,0.774771,0.46728
1,90,9,2,8,1,1,C,7,L,7,L,8,0.778339,0.289485,0.225317
1,91,2,1,9,8,1,C,1,S,1,S,10,0.786904,0.362535,0.285281
1,92,1,2,9,8,0,I,1,S,1,S,15,0.75416,0.498669,0.376077
1,93,2,8,1,9,1,C,6,S,8,L,9,0.314646,0.79916,0.251453
1,94,2,9,2,8,1,C,7,L,6,S,10,0.339407,0.812628,0.275811
1,95,1,9,8,1,1,I,8,L,7,L,13,0.565763,0.756532,0.428018
1,96,9,1,2,9,1,I,8,L,7,L,10,0.752858,0.454886,0.342464
1,97,2,8,8,2,1,I,6,S,6,S,13,0.55328,0.760563,0.420804
1,98,9,1,1,2,1,I,8,L,1,S,9,0.786316,0.340548,0.267778
1,99,9,1,8,2,1,C,8,L,6,S,8,0.794412,0.277491,0.220442
1,100,8,1,8,1,1,C,7,L,7,L,8,0.757578,0.301806,0.228642
1,101,8,1,1,9,1,I,7,L,8,L,12,0.784235,0.50349,0.394854
1,102,8,1,1,2,1,I,7,L,1,S,10,0.801145,0.362157,0.29014
1,103,1,8,2,1,1,I,7,L,1,S,10,0.365646,0.797889,0.291745
1,104,1,2,1,9,1,C,1,S,8,L,11,0.422446,0.760839,0.321413
1,105,8,9,8,1,0,I,1,S,7,L,11,0.755251,0.43161,0.325974
1,106,8,9,2,8,1,C,1,S,6,S,12,0.403064,0.802041,0.323274
1,107,8,2,2,9,1,I,6,S,7,L,13,0.757595,0.55326,0.419147
1,108,1,9,2,8,1,C,8,L,6,S,9,0.324981,0.786811,0.255699
1,109,8,1,8,9,1,I,7,L,1,S,9,0.751986,0.353921,0.266143
1,110,8,2,1,2,1,I,6,S,1,S,11,0.812271,0.381969,0.310263
1,111,2,9,1,2,1,C,7,L,1,S,11,0.407692,0.76766,0.312969
1,112,9,1,1,8,1,I,8,L,7,L,10,0.780671,0.421158,0.328786
1,113,2,8,9,1,1,I,6,S,8,L,13,0.560215,0.756124,0.423592
1,114,1,9,1,9,1,C,8,L,8,L,9,0.310559,0.806921,0.250596
1,115,2,1,2,1,1,C,1,S,1,S,10,0.755531,0.386508,0.292019
1,116,9,2,8,9,1,I,7,L,1,S,9,0.776281,0.339194,0.26331
1,117,8,2,8,2,1,C,6,S,6,S,9,0.803025,0.313457,0.251714
1,118,9,2,1,8,1,I,7,L,7,L,11,0.794354,0.451035,0.358282
1,119,8,9,9,1,0,I,1,S,8,L,12,0.781379,0.436097,0.340757
1,120,8,9,1,8,1,C,1,S,7,L,12,0.410161,0.794856,0.326019
1,121,9,1,9,1,1,C,8,L,8,L,8,0.799329,0.274834,0.219683
1,122,2,8,8,1,1,I,6,S,7,L,14,0.567617,0.781457,0.443568
1,123,8,2,1,8,1,I,6,S,7,L,13,0.788666,0.515952,0.406914
1,124,2,1,9,2,1,C,1,S,7,L,9,0.774856,0.335195,0.259728
1,125,2,1,8,9,1,I,1,S,1,S,10,0.764216,0.378424,0.289198
1,126,1,8,1,8,1,C,7,L,7,L,9,0.298712,0.824677,0.246341
1,127,8,2,9,8,1,C,6,S,1,S,10,0.804443,0.349924,0.281494
1,128,9,8,9,1,1,C,1,S,8,L,10,0.753542,0.392579,0.295825
1,129,8,2,8,1,1,C,6,S,7,L,9,0.820182,0.300936,0.246822
1,130,9,1,9,2,1,C,8,L,7,L,8,0.783317,0.286955,0.224777
1,131,8,2,9,1,1,C,6,S,8,L,9,0.80885,0.310192,0.250898
1,132,1,2,2,1,1,I,1,S,1,S,27,0.629858,0.777876,0.489952
1,133,8,9,1,9,1,C,1,S,8,L,11,0.407196,0.771962,0.31434
1,134,8,2,8,9,1,I,6,S,1,S,10,0.781756,0.365813,0.285976
1,135,8,9,8,2,0,I,1,S,6,S,12,0.774399,0.440431,0.34107
1,136,1,8,9,1,1,I,7,L,8,L,12,0.514764,0.78066,0.401856
1,137,9,8,2,1,1,C,1,S,1,S,14,0.803957,0.419821,0.337519
1,138,2,9,9,8,1,I,7,L,1,S,13,0.48027,0.780908,0.375047
1,139,8,1,1,8,1,I,7,L,7,L,11,0.766451,0.468873,0.359369
1,140,9,1,2,8,1,I,8,L,6,S,10,0.77417,0.427428,0.330902
1,141,2,9,8,1,1,I,7,L,7,L,16,0.612908,0.76592,0.469439
1,142,1,2,1,8,1,C,1,S,7,L,12,0.430151,0.778641,0.334933
1,143,8,9,1,2,1,C,1,S,1,S,16,0.458981,0.779182,0.35763
1,144,1,8,1,2,1,C,7,L,1,S,10,0.338655,0.827236,0.280148
2,1,2,1,8,9,1,I,1,S,1,S,15,0.754342,0.47592,0.359006
2,2,1,2,9,8,1,I,1,S,1,S,12,0.39661,0.801543,0.3179
2,3,2,8,8,1,1,I,6,S,7,L,16,0.612009,0.769885,0.471177
2,4,8,1,1,2,1,I,7,L,1,S,11,0.80393,0.403496,0.324383
2,5,9,8,8,9,1,I,1,S,1,S,13,0.802826,0.419126,0.336485
2,6,1,2,9,2,1,I,1,S,7,L,16,0.603403,0.750983,0.453145
2,7,1,2,8,2,1,I,1,S,6,S,17,0.593949,0.779728,0.463118
2,8,8,9,1,8,1,C,1,S,7,L,11,0.402705,0.782549,0.315136
2,9,2,1,9,2,1,C,1,S,7,L,11,0.769767,0.400524,0.30831
2,10,1,8,9,2,1,I,7,L,7,L,12,0.508668,0.75777,0.385453
2,11,9,2,8,9,1,I,7,L,1,S,10,0.756233,0.390058,0.294974
2,12,8,9,9,1,0,I,1,S,8,L,11,0.771793,0.419692,0.323916
2,13,2,9,9,2,1,I,7,L,7,L,12,0.498658,0.7723,0.385113
2,14,9,8,8,1,1,C,1,S,7,L,10,0.830929,0.327278,0.271945
2,15,1,9,2,8,1,C,8,L,6,S,9,0.281887,0.843898,0.237884
2,16,2,1,8,1,1,C,1,S,7,L,10,0.77164,0.375135,0.289469
2,17,1,2,1,9,1,C,1,S,8,L,10,0.339529,0.813365,0.276161
2,18,2,9,8,1,1,I,7,L,7,L,13,0.566362,0.759105,0.429928
2,19,2,9,9,1,1,I,7,L,8,L,13,0.566578,0.760212,0.430719
2,20,2,9,2,8,1,C,7,L,6,S,9,0.312332,0.802955,0.250788
2,21,1,9,9,2,1,I,8,L,7,L,11,0.460472,0.777182,0.35787
2,22,1,8,1,2,1,C,7,L,1,S,10,0.337804,0.814767,0.275232
2,23,9,1,2,1,1,C,8,L,1,S,9,0.796814,0.313839,0.250071
2,24,9,1,1,9,1,I,8,L,8,L,13,0.786932,0.533287,0.419661
2,25,9,1,8,1,1,C,8,L,7,L,9,0.856708,0.26957,0.230943
2,26,1,2,1,2,1,C,1,S,1,S,11,0.388839,0.778782,0.302821
2,27,9,2,1,2,1,I,7,L,1,S,11,0.769471,0.429086,0.330169
2,28,9,8,2,9,1,I,1,S,7,L,17,0.759616,0.615593,0.467614
2,29,2,9,8,2,1,I,7,L,6,S,12,0.500762,0.769177,0.385174
2,30,9,8,1,2,1,I,1,S,1,S,15,0.780488,0.521878,0.40732
2,31,9,2,9,1,1,C,7,L,8,L,9,0.833864,0.289569,0.241461
2,32,2,8,9,8,1,I,6,S,1,S,11,0.388965,0.789145,0.30695
2,33,1,2,2,9,1,C,1,S,7,L,10,0.361085,0.782971,0.282719
2,34,2,9,1,8,1,C,7,L,7,L,9,0.293917,0.828983,0.243652
2,35,8,2,1,8,1,I,6,S,7,L,13,0.763787,0.554575,0.423577
2,36,8,9,9,8,1,I,1,S,1,S,15,0.477321,0.750824,0.358384
2,37,2,8,8,9,1,C,6,S,1,S,11,0.407056,0.768211,0.312705
2,38,9,1,9,2,1,C,8,L,7,L,9,0.799051,0.31173,0.249089
2,39,1,8,1,9,1,C,7,L,8,L,9,0.303502,0.815224,0.247422
2,40,9,2,2,1,1,C,7,L,1,S,9,0.774245,0.332217,0.257217
2,41,8,2,2,8,1,I,6,S,6,S,13,0.787495,0.522624,0.411564
2,42,8,9,9,2,0,I,1,S,7,L,13,0.777634,0.454495,0.353431
2,43,2,1,9,1,1,C,1,S,8,L,10,0.77143,0.376676,0.290579
2,44,8,9,8,9,1,C,1,S,1,S,18,0.459342,0.792287,0.363931
2,45,2,8,9,1,1,I,6,S,8,L,16,0.612721,0.770499,0.472101
2,46,1,9,1,9,1,C,8,L,8,L,8,0.302842,0.7566,0.22913
2,47,9,1,9,8,1,C,8,L,1,S,10,0.769394,0.384544,0.295866
2,48,1,2,1,8,1,C,1,S,7,L,10,0.337208,0.81616,0.275216
2,49,1,9,2,9,1,C,8,L,7,L,9,0.28457,0.840731,0.239247
2,50,2,1,2,1,1,C,1,S,1,S,11,0.766814,0.403103,0.309105
2,51,9,2,1,9,1,I,7,L,8,L,13,0.758442,0.556374,0.421978
2,52,1,8,8,1,1,I,7,L,7,L,14,0.571611,0.78001,0.445862
2,53,9,1,1,2,1,I,8,L,1,S,11,0.797479,0.406931,0.324519
2,54,8,9,2,8,1,C,1,S,6,S,11,0.425213,0.751025,0.319346
2,55,2,1,2,8,0,I,1,S,6,S,14,0.514552,0.75072,0.386285
2,56,8,1,2,1,1,C,7,L,1,S,9,0.802062,0.311343,0.249716
2,57,8,1,9,8,1,C,7,L,1,S,10,0.775364,0.381525,0.295821
2,58,9,2,8,1,1,C,7,L,7,L,9,0.834139,0.287948,0.240189
2,59,8,1,8,1,1,C,7,L,7,L,8,0.752587,0.303409,0.228341
2,60,8,9,1,2,1,C,1,S,1,S,14,0.435176,0.793559,0.345338
2,61,1,8,9,8,1,I,7,L,1,S,10,0.366613,0.783952,0.287407
2,62,9,2,2,9,1,I,7,L,7,L,13,0.783177,0.523069,0.409656
2,63,1,8,8,2,1,I,7,L,6,S,12,0.510772,0.754646,0.385452
2,64,1,8,8,9,1,C,7,L,1,S,10,0.379408,0.768828,0.2917
2,65,8,2,8,2,1,C,6,S,6,S,9,0.783744,0.324408,0.254253
2,66,9,8,1,9,1,I,1,S,8,L,18,0.769207,0.627814,0.482919
2,67,9,8,9,1,1,C,1,S,8,L,10,0.830719,0.328819,0.273156
2,68,2,1,1,8,0,I,1,S,7,L,13,0.479256,0.76791,0.368025
2,69,2,1,9,8,1,C,1,S,1,S,17,0.754712,0.53167,0.401257
2,70,9,2,1,8,1,I,7,L,7,L,13,0.756027,0.559185,0.422759
2,71,9,8,8,2,1,C,1,S,6,S,10,0.768502,0.371134,0.285217
2,72,1,9,9,1,1,I,8,L,8,L,12,0.531034,0.770382,0.409099
2,73,2,8,8,2,1,I,6,S,6,S,14,0.568232,0.750283,0.426335
2,74,8,2,8,9,1,I,6,S,1,S,10,0.762764,0.386629,0.294907
2,75,9,1,2,8,1,I,8,L,6,S,12,0.770106,0.504121,0.388226
2,76,2,9,1,2,1,C,7,L,1,S,10,0.329191,0.827691,0.272468
2,77,1,8,2,8,1,C,7,L,6,S,9,0.31978,0.791732,0.25318
2,78,9,8,2,8,1,I,1,S,6,S,17,0.756685,0.618849,0.468274
2,79,1,8,2,1,1,I,7,L,1,S,12,0.505582,0.760453,0.384471
2,80,2,8,1,9,1,C,6,S,8,L,9,0.344681,0.762299,0.26275
2,81,8,1,1,9,1,I,7,L,8,L,12,0.755822,0.529735,0.400385
2,82,9,8,2,1,1,C,1,S,1,S,10,0.763859,0.376624,0.287688
2,83,9,8,9,2,1,C,1,S,7,L,10,0.766525,0.374238,0.286863
2,84,2,8,2,8,1,C,6,S,6,S,10,0.326732,0.829882,0.271149
2,85,8,9,2,1,0,I,1,S,1,S,13,0.774548,0.457202,0.354125
2,86,2,9,1,9,1,C,7,L,8,L,9,0.296054,0.826448,0.244673
2,87,1,8,2,9,1,C,7,L,7,L,9,0.322463,0.788565,0.254283
2,88,9,2,9,8,1,C,7,L,1,S,11,0.807174,0.386865,0.312268
2,89,8,9,1,9,1,C,1,S,8,L,11,0.405126,0.77964,0.315853
2,90,8,1,9,2,1,C,7,L,7,L,9,0.8043,0.309235,0.248717
2,91,9,2,8,2,1,C,7,L,6,S,9,0.778154,0.327186,0.254601
2,92,1,9,1,8,1,C,8,L,7,L,8,0.30097,0.758732,0.228356
2,93,8,1,8,9,1,I,7,L,1,S,10,0.78816,0.366402,0.288783
2,94,9,1,2,9,1,I,8,L,7,L,12,0.773516,0.499936,0.386708
2,95,1,2,8,9,1,C,1,S,1,S,12,0.421606,0.77285,0.325838
2,96,8,9,8,2,0,I,1,S,6,S,13,0.779597,0.451499,0.351988
2,97,8,9,8,1,0,I,1,S,7,L,11,0.771887,0.418274,0.32286
2,98,9,1,8,2,1,C,8,L,6,S,9,0.800723,0.308807,0.247269
2,99,9,8,9,8,1,C,1,S,1,S,13,0.769015,0.458035,0.352236
2,100,2,9,8,9,1,C,7,L,1,S,10,0.370794,0.781753,0.28987
2,101,1,9,8,2,1,I,8,L,6,S,11,0.462591,0.774015,0.358052
2,102,2,9,9,8,1,I,7,L,1,S,10,0.357999,0.796876,0.285281
2,103,8,2,8,1,1,C,6,S,7,L,9,0.83973,0.28517,0.239466
2,104,1,2,9,1,1,I,1,S,8,L,18,0.632467,0.768876,0.486289
2,105,1,9,8,9,1,C,8,L,1,S,10,0.337056,0.827333,0.278858
2,106,8,1,8,2,1,C,7,L,6,S,9,0.805971,0.306311,0.246878
2,107,1,2,8,1,1,I,1,S,7,L,18,0.631465,0.768552,0.485314
2,108,8,1,2,8,1,I,7,L,6,S,12,0.776808,0.500387,0.388705
2,109,8,2,2,9,1,I,6,S,7,L,12,0.752354,0.518523,0.390113
2,110,9,2,9,2,1,C,7,L,7,L,9,0.776482,0.330109,0.256324
2,111,8,2,9,8,1,C,6,S,1,S,11,0.814384,0.382904,0.311831
2,112,2,8,2,9,1,C,6,S,7,L,10,0.329768,0.826182,0.272448
2,113,8,1,9,1,1,C,7,L,8,L,8,0.752314,0.305049,0.229492
2,114,9,1,9,1,1,C,8,L,8,L,9,0.856433,0.27119,0.232256
2,115,2,8,1,2,1,C,6,S,1,S,10,0.386266,0.75082,0.290017
2,116,1,9,1,2,1,C,8,L,1,S,9,0.330032,0.78142,0.257894
2,117,2,1,2,9,0,I,1,S,7,L,15,0.535172,0.753636,0.403325
2,118,8,2,1,9,1,I,6,S,8,L,13,0.766202,0.551763,0.422762
2,119,2,8,2,1,1,I,6,S,1,S,14,0.563513,0.755752,0.425876
2,120,1,2,2,1,1,I,1,S,1,S,16,0.600801,0.75342,0.452655
2,121,2,1,1,9,0,I,1,S,8,L,13,0.481671,0.765098,0.368526
2,122,9,8,1,8,1,I,1,S,7,L,18,0.767399,0.629697,0.483229
2,123,9,1,8,9,1,I,8,L,1,S,10,0.782189,0.369421,0.288957
2,124,9,1,1,8,1,I,8,L,7,L,13,0.784517,0.536098,0.420578
2,125,8,2,1,2,1,I,6,S,1,S,11,0.776682,0.425124,0.330186
2,126,1,8,1,8,1,C,7,L,7,L,9,0.301365,0.81776,0.246444
2,127,8,9,2,9,1,C,1,S,7,L,12,0.407761,0.800649,0.326473
2,128,2,1,1,2,1,I,1,S,1,S,20,0.755917,0.614744,0.464696
2,129,1,9,8,1,1,I,8,L,7,L,12,0.530981,0.769113,0.408384
2,130,1,9,2,1,1,I,8,L,1,S,11,0.457519,0.779761,0.356756
2,131,2,8,1,8,1,C,6,S,7,L,9,0.342543,0.764835,0.261989
2,132,9,2,2,8,1,I,7,L,6,S,13,0.779736,0.527234,0.411104
2,133,8,1,2,9,1,I,7,L,7,L,12,0.780218,0.496202,0.387146
2,134,8,2,9,1,1,C,6,S,8,L,9,0.839455,0.286791,0.240748
2,135,1,9,9,8,1,I,8,L,1,S,9,0.351348,0.759707,0.266921
2,136,2,1,8,2,1,C,1,S,6,S,11,0.771885,0.397358,0.306715
2,137,8,2,9,2,1,C,6,S,7,L,9,0.782073,0.327331,0.255997
2,138,2,9,2,9,1,C,7,L,7,L,9,0.315015,0.799788,0.251945
2,139,2,8,9,2,1,I,6,S,7,L,14,0.566497,0.753088,0.426622
2,140,1,2,2,8,1,C,1,S,6,S,10,0.358049,0.786671,0.281667
2,141,1,8,9,1,1,I,7,L,8,L,14,0.571996,0.780948,0.446699
2,142,8,1,1,8,1,I,7,L,7,L,12,0.753374,0.532639,0.401276
2,143,8,2,2,1,1,C,6,S,1,S,9,0.779835,0.329439,0.256908
2,144,2,9,2,1,1,I,7,L,1,S,12,0.495571,0.774984,0.38406
3,1,8,9,1,2,1,C,1,S,1,S,11,0.410249,0.759345,0.311521
3,2,2,1,1,8,0,I,1,S,7,L,11,0.40444,0.787151,0.318355
3,3,8,2,8,2,1,C,6,S,6,S,9,0.759891,0.346234,0.2631
3,4,8,9,8,1,1,I,1,S,7,L,22,0.651658,0.756932,0.493261
3,5,1,9,2,8,1,C,8,L,6,S,8,0.295489,0.763573,0.225627
3,6,1,2,8,9,1,C,1,S,1,S,12,0.39383,0.807861,0.31816
3,7,9,1,8,2,1,C,8,L,6,S,9,0.758164,0.348843,0.264481
3,8,2,8,9,8,1,I,6,S,1,S,10,0.34401,0.805869,0.277227
3,9,8,1,2,9,1,I,7,L,7,L,14,0.767284,0.583484,0.447698
3,10,9,1,1,9,1,I,8,L,8,L,14,0.782283,0.577889,0.452073
3,11,8,9,9,1,0,I,1,S,8,L,13,0.76663,0.480064,0.368032
3,12,8,1,8,9,1,I,7,L,1,S,12,0.755938,0.503843,0.380874
3,13,9,8,2,9,0,I,1,S,7,L,11,0.415294,0.775374,0.322008
3,14,1,9,1,8,1,C,8,L,7,L,8,0.28491,0.778193,0.221715
3,15,1,8,8,9,1,C,7,L,1,S,9,0.307994,0.809537,0.249333
3,16,1,2,2,9,1,C,1,S,7,L,10,0.383818,0.765268,0.293723
3,17,9,2,1,8,1,I,7,L,7,L,13,0.771828,0.56331,0.434778
3,18,8,1,1,8,1,I,7,L,7,L,14,0.755173,0.598859,0.452242
3,19,8,9,9,8,1,I,1,S,1,S,13,0.411145,0.800155,0.328979
3,20,1,2,2,8,1,C,1,S,6,S,10,0.384237,0.764823,0.293873
3,21,9,8,2,8,0,I,1,S,6,S,11,0.415718,0.774927,0.322151
3,22,2,8,2,1,1,I,6,S,1,S,10,0.384982,0.758209,0.291897
3,23,2,9,1,2,1,C,7,L,1,S,9,0.334519,0.766247,0.256325
3,24,9,2,9,8,1,C,7,L,1,S,10,0.757054,0.406537,0.307771
3,25,2,9,2,1,1,I,7,L,1,S,10,0.383546,0.756319,0.290083
3,26,1,9,9,8,1,I,8,L,1,S,9,0.340436,0.766636,0.260991
3,27,9,2,9,2,1,C,7,L,7,L,9,0.816954,0.303386,0.247852
3,28,8,2,1,8,1,I,6,S,7,L,14,0.784216,0.575183,0.451068
3,29,1,8,1,9,1,C,7,L,8,L,8,0.285991,0.780246,0.223144
3,30,1,9,9,1,1,I,8,L,8,L,12,0.515777,0.77249,0.398433
3,31,2,8,1,8,1,C,6,S,7,L,9,0.278484,0.846845,0.235833
3,32,2,1,9,8,0,C,1,S,1,S,17,0.514722,0.763835,0.393163
3,33,2,9,1,8,1,C,7,L,7,L,9,0.276811,0.845251,0.233975
3,34,1,9,2,1,1,I,8,L,1,S,10,0.34808,0.809159,0.281652
3,35,1,8,1,8,1,C,7,L,7,L,8,0.286309,0.779933,0.223302
3,36,2,9,2,8,1,C,7,L,6,S,9,0.288634,0.828883,0.239244
3,37,2,1,8,9,0,I,1,S,1,S,13,0.462702,0.761094,0.35216
3,38,2,9,1,9,1,C,7,L,8,L,9,0.276473,0.845593,0.233784
3,39,9,1,2,8,1,I,8,L,6,S,13,0.759721,0.566943,0.430719
3,40,8,9,9,2,0,I,1,S,7,L,15,0.752115,0.538627,0.40511
3,41,9,1,9,1,1,C,8,L,8,L,9,0.825509,0.296402,0.244682
3,42,9,2,8,1,1,C,7,L,7,L,9,0.816185,0.301175,0.245814
3,43,1,8,2,9,1,C,7,L,7,L,8,0.296518,0.765687,0.22704
3,44,9,8,9,8,0,C,1,S,1,S,16,0.499473,0.764681,0.381938
3,45,2,9,2,9,1,C,7,L,7,L,9,0.288232,0.829306,0.239032
3,46,8,1,9,2,1,C,7,L,7,L,9,0.774904,0.33586,0.260259
3,47,2,1,8,2,1,C,1,S,6,S,13,0.783372,0.432661,0.338934
3,48,2,1,9,1,1,C,1,S,8,L,11,0.777089,0.40292,0.313105
3,49,2,1,1,2,0,I,1,S,1,S,13,0.457176,0.769268,0.351691
3,50,1,8,1,2,1,C,7,L,1,S,9,0.304646,0.814766,0.248215
3,51,2,9,8,9,1,C,7,L,1,S,9,0.337868,0.761019,0.257124
3,52,9,1,8,1,1,C,8,L,7,L,9,0.795379,0.317766,0.252745
3,53,2,9,9,2,1,I,7,L,7,L,13,0.520564,0.781108,0.406617
3,54,9,1,2,9,1,I,8,L,7,L,13,0.759319,0.567349,0.430799
3,55,2,9,8,2,1,I,7,L,6,S,12,0.460562,0.786647,0.3623
3,56,8,1,2,1,1,C,7,L,1,S,11,0.8188,0.371125,0.303877
3,57,9,2,2,1,1,C,7,L,1,S,10,0.798027,0.358877,0.286393
3,58,8,1,1,2,1,I,7,L,1,S,12,0.750715,0.511735,0.384167
3,59,8,1,2,8,1,I,7,L,6,S,14,0.767665,0.58311,0.447633
3,60,9,8,1,2,0,I,1,S,1,S,13,0.452417,0.777425,0.35172
3,61,2,8,2,8,1,C,6,S,6,S,9,0.290307,0.830477,0.241093
3,62,1,8,2,1,1,I,7,L,1,S,10,0.348967,0.81153,0.283197
3,63,1,2,9,8,1,I,1,S,1,S,13,0.421292,0.789473,0.332599
3,64,2,9,9,1,1,I,7,L,8,L,13,0.556361,0.752127,0.418454
3,65,9,1,9,2,1,C,8,L,7,L,9,0.796148,0.319977,0.254749
3,66,9,8,8,2,1,C,1,S,6,S,13,0.778612,0.440817,0.343226
3,67,1,2,1,2,1,C,1,S,1,S,11,0.41661,0.753573,0.313946
3,68,2,8,1,9,1,C,6,S,8,L,9,0.278146,0.847187,0.235642
3,69,8,9,1,9,1,C,1,S,8,L,10,0.366391,0.786477,0.288158
3,70,8,1,8,2,1,C,7,L,6,S,10,0.827141,0.331102,0.273868
3,71,9,8,9,1,1,C,1,S,8,L,11,0.775337,0.408199,0.316492
3,72,1,8,9,8,1,I,7,L,1,S,9,0.341608,0.768688,0.26259
3,73,8,2,8,9,1,I,6,S,1,S,12,0.786048,0.480147,0.377418
3,74,9,8,8,9,0,I,1,S,1,S,13,0.457942,0.76925,0.352272
3,75,9,2,8,2,1,C,7,L,6,S,9,0.778969,0.332252,0.258814
3,76,1,2,9,1,0,I,1,S,8,L,12,0.752792,0.464692,0.349817
3,77,9,8,9,2,1,C,1,S,7,L,12,0.790784,0.41794,0.3305
3,78,9,2,2,9,1,I,7,L,7,L,13,0.784316,0.547134,0.429126
3,79,9,1,8,9,1,I,8,L,1,S,12,0.784058,0.482867,0.378595
3,80,2,8,1,2,1,C,6,S,1,S,9,0.336192,0.767841,0.258142
3,81,2,8,8,9,1,C,6,S,1,S,9,0.339541,0.762613,0.258938
3,82,9,1,1,8,1,I,8,L,7,L,14,0.782583,0.577612,0.45203
3,83,8,2,2,8,1,I,6,S,6,S,13,0.761564,0.564345,0.429785
3,84,2,1,8,1,1,C,1,S,7,L,12,0.792439,0.409816,0.324754
3,85,1,9,8,2,1,I,8,L,6,S,11,0.422971,0.798155,0.337596
3,86,8,2,8,1,1,C,6,S,7,L,9,0.797106,0.315157,0.251214
3,87,9,1,1,2,1,I,8,L,1,S,12,0.778835,0.490759,0.38222
3,88,8,9,8,9,1,C,1,S,1,S,11,0.414997,0.752053,0.3121
3,89,8,2,9,8,1,C,6,S,1,S,11,0.792385,0.4136,0.32773
3,90,1,9,2,9,1,C,8,L,7,L,8,0.295119,0.763947,0.225455
3,91,9,2,1,9,1,I,7,L,8,L,13,0.77151,0.563613,0.434833
3,92,1,8,2,8,1,C,7,L,6,S,8,0.296888,0.765313,0.227212
3,93,1,9,1,9,1,C,8,L,8,L,8,0.284592,0.778506,0.221557
3,94,8,1,9,8,1,C,7,L,1,S,11,0.76329,0.436329,0.333046
3,95,8,1,1,9,1,I,7,L,8,L,14,0.754874,0.599135,0.452271
3,96,1,9,9,2,1,I,8,L,7,L,11,0.477384,0.758218,0.361961
3,97,1,8,8,1,1,I,7,L,7,L,11,0.476832,0.759033,0.361931
3,98,9,8,2,1,1,C,1,S,1,S,20,0.771051,0.488715,0.376824
3,99,1,8,9,2,1,I,7,L,7,L,11,0.47796,0.760887,0.363673
3,100,1,2,8,2,1,I,1,S,6,S,22,0.635564,0.767984,0.488103
3,101,8,9,2,1,1,I,1,S,1,S,15,0.459203,0.770714,0.353914
3,102,8,2,1,2,1,I,6,S,1,S,12,0.780825,0.488039,0.381073
3,103,8,2,2,1,1,C,6,S,1,S,10,0.776463,0.374588,0.290854
3,104,9,8,1,9,0,I,1,S,8,L,11,0.402344,0.792775,0.318968
3,105,2,1,1,9,0,I,1,S,8,L,11,0.404096,0.787495,0.318224
3,106,2,8,9,2,1,I,6,S,7,L,13,0.52103,0.783946,0.408459
3,107,1,2,1,8,1,C,1,S,7,L,10,0.371609,0.782106,0.290638
3,108,8,9,1,8,1,C,1,S,7,L,10,0.366737,0.786126,0.288301
3,109,9,2,2,8,1,I,7,L,6,S,13,0.784718,0.546728,0.429027
3,110,9,2,9,1,1,C,7,L,8,L,9,0.846314,0.279811,0.236808
3,111,1,8,9,1,1,I,7,L,8,L,12,0.516042,0.775424,0.400151
3,112,8,2,9,2,1,C,6,S,7,L,9,0.797876,0.317367,0.25322
3,113,2,1,2,8,0,I,1,S,6,S,11,0.417469,0.769648,0.321304
3,114,8,9,2,8,1,C,1,S,6,S,10,0.379365,0.768842,0.291672
3,115,2,1,2,9,0,I,1,S,7,L,11,0.417046,0.770094,0.321165
3,116,2,9,9,8,1,I,7,L,1,S,10,0.342574,0.803979,0.275422
3,117,8,9,8,2,1,I,1,S,6,S,21,0.636638,0.757761,0.482419
3,118,2,8,2,9,1,C,6,S,7,L,9,0.289905,0.8309,0.240882
3,119,1,8,8,2,1,I,7,L,6,S,11,0.423547,0.800823,0.339186
3,120,8,9,2,9,1,C,1,S,7,L,10,0.378945,0.769288,0.291518
3,121,8,2,9,1,1,C,6,S,8,L,9,0.827236,0.293793,0.243036
3,122,2,8,8,1,1,I,6,S,7,L,13,0.519367,0.782677,0.406496
3,123,2,8,9,1,1,I,6,S,8,L,13,0.556827,0.754964,0.420385
3,124,1,9,8,9,1,C,8,L,1,S,9,0.306822,0.807486,0.247755
3,125,1,9,8,1,1,I,8,L,7,L,11,0.476256,0.756364,0.360223
3,126,9,2,8,9,1,I,7,L,1,S,11,0.764802,0.462299,0.353567
3,127,9,8,1,8,0,I,1,S,7,L,11,0.402688,0.79243,0.319102
3,128,8,1,8,1,1,C,7,L,7,L,9,0.774134,0.333649,0.258289
3,129,8,2,2,9,1,I,6,S,7,L,13,0.761163,0.56475,0.429867
3,130,9,8,8,1,1,C,1,S,7,L,12,0.789398,0.416364,0.328676
3,131,1,2,2,1,1,I,1,S,1,S,15,0.473453,0.75405,0.357007
3,132,1,2,8,1,0,I,1,S,7,L,14,0.755777,0.50634,0.38268
3,133,1,2,9,2,0,I,1,S,7,L,14,0.757717,0.507295,0.384386
3,134,2,8,8,2,1,I,6,S,6,S,12,0.461366,0.789184,0.364102
3,135,8,1,9,1,1,C,7,L,8,L,9,0.804264,0.312285,0.251159
3,136,1,2,1,9,1,C,1,S,8,L,10,0.371264,0.782457,0.290498
3,137,9,2,1,2,1,I,7,L,1,S,11,0.760054,0.469591,0.356915
3,138,1,9,1,2,1,C,8,L,1,S,9,0.303474,0.812714,0.246638
3,139,9,1,9,8,1,C,8,L,1,S,11,0.790346,0.416374,0.32908
3,140,2,9,8,1,1,I,7,L,7,L,13,0.518901,0.779839,0.404659
3,141,2,1,2,1,1,C,1,S,1,S,19,0.764396,0.487292,0.372484
3,142,8,2,1,9,1,I,6,S,8,L,14,0.783917,0.575459,0.451112
3,143,2,1,9,2,1,C,1,S,7,L,12,0.793825,0.411392,0.326573
3,144,9,1,2,1,1,C,8,L,1,S,10,0.774506,0.377331,0.292245
4,1,2,1,1,8,1,I,1,S,7,L,15,0.781515,0.570557,0.445899
4,2,2,1,9,1,1,C,1,S,8,L,9,0.751465,0.351031,0.263788
4,3,1,2,8,1,1,I,1,S,7,L,15,0.577391,0.782546,0.451835
4,4,8,2,9,2,1,C,6,S,7,L,9,0.794359,0.3182,0.252765
4,5,1,8,9,1,1,I,7,L,8,L,12,0.519784,0.762218,0.396189
4,6,1,9,2,1,1,I,8,L,1,S,10,0.403374,0.765129,0.308633
4,7,9,1,9,1,1,C,8,L,8,L,8,0.790466,0.278484,0.220132
4,8,1,2,1,2,1,C,1,S,1,S,10,0.385452,0.756032,0.291414
4,9,2,8,8,1,1,I,6,S,7,L,14,0.560016,0.779773,0.436685
4,10,9,1,8,9,1,I,8,L,1,S,9,0.791746,0.331436,0.262413
4,11,2,1,2,8,1,I,1,S,6,S,14,0.785626,0.527132,0.414129
4,12,8,2,2,9,1,I,6,S,7,L,12,0.767366,0.504595,0.387209
4,13,1,9,8,2,1,I,8,L,6,S,11,0.485365,0.753071,0.365514
4,14,1,8,9,2,1,I,7,L,7,L,12,0.497699,0.77792,0.38717
4,15,1,2,8,2,1,I,1,S,6,S,14,0.564061,0.763695,0.430771
4,16,2,8,2,9,1,C,6,S,7,L,9,0.342595,0.763106,0.261437
4,17,1,2,9,1,1,I,1,S,8,L,14,0.579232,0.752587,0.435922
4,18,8,9,2,8,0,C,1,S,6,S,15,0.76342,0.565796,0.43194
4,19,9,2,2,9,1,I,7,L,7,L,12,0.760244,0.509923,0.387666
4,20,1,9,1,2,1,C,8,L,1,S,9,0.349344,0.760768,0.26577
4,21,8,2,8,9,1,I,6,S,1,S,10,0.768743,0.382441,0.293999
4,22,2,8,1,2,1,C,6,S,1,S,10,0.366219,0.780985,0.286011
4,23,2,1,2,9,1,I,1,S,7,L,14,0.754971,0.566509,0.427698
4,24,8,9,1,8,0,C,1,S,7,L,16,0.759132,0.604551,0.458935
4,25,8,2,8,2,1,C,6,S,6,S,9,0.799215,0.314608,0.251439
4,26,2,9,9,1,1,I,7,L,8,L,13,0.534895,0.77965,0.417031
4,27,9,2,8,2,1,C,7,L,6,S,9,0.793659,0.318745,0.252975
4,28,1,8,2,9,1,C,7,L,7,L,9,0.313654,0.802797,0.251801
4,29,1,9,1,8,1,C,8,L,7,L,9,0.294905,0.829835,0.244723
4,30,1,9,8,1,1,I,8,L,7,L,12,0.507803,0.781941,0.397071
4,31,1,9,9,2,1,I,8,L,7,L,11,0.479101,0.757632,0.362982
4,32,1,2,1,9,1,C,1,S,8,L,9,0.338168,0.770939,0.260707
4,33,9,8,1,9,1,I,1,S,8,L,16,0.779357,0.59609,0.464567
4,34,9,2,9,8,1,C,7,L,1,S,10,0.798889,0.353333,0.282274
4,35,9,8,8,9,1,I,1,S,1,S,12,0.802207,0.405676,0.325436
4,36,8,1,8,1,1,C,7,L,7,L,8,0.797039,0.273706,0.218155
4,37,8,2,8,1,1,C,6,S,7,L,9,0.815573,0.303283,0.247349
4,38,2,9,2,8,1,C,7,L,6,S,9,0.346202,0.760298,0.263217
4,39,2,8,9,2,1,I,6,S,7,L,13,0.536398,0.763971,0.409793
4,40,9,1,1,8,1,I,8,L,7,L,10,0.773541,0.430828,0.333263
4,41,9,2,8,9,1,I,7,L,1,S,10,0.762351,0.387147,0.295142
4,42,1,8,1,2,1,C,7,L,1,S,10,0.332796,0.827304,0.275323
4,43,2,9,8,2,1,I,7,L,6,S,12,0.519953,0.751712,0.390855
4,44,8,9,9,1,0,I,1,S,8,L,10,0.807712,0.344444,0.278212
4,45,9,2,9,2,1,C,7,L,7,L,9,0.788803,0.322337,0.25426
4,46,8,1,8,9,1,I,7,L,1,S,9,0.795042,0.329082,0.261634
4,47,1,8,8,2,1,I,7,L,6,S,12,0.504248,0.7731,0.389834
4,48,8,2,1,9,1,I,6,S,8,L,13,0.779624,0.539435,0.420557
4,49,2,8,8,2,1,I,6,S,6,S,13,0.542984,0.759039,0.412146
4,50,9,8,9,8,1,C,1,S,1,S,11,0.79415,0.38136,0.302857
4,51,9,1,8,2,1,C,8,L,6,S,8,0.780768,0.285152,0.222637
4,52,2,1,9,2,1,C,1,S,7,L,10,0.825115,0.328977,0.271444
4,53,1,8,9,8,1,I,7,L,1,S,10,0.399086,0.758747,0.302805
4,54,2,8,1,9,1,C,6,S,8,L,9,0.321952,0.791337,0.254773
4,55,8,9,9,8,0,I,1,S,1,S,11,0.763238,0.405,0.309111
4,56,1,2,9,2,1,I,1,S,7,L,14,0.557622,0.768618,0.428598
4,57,9,2,8,1,1,C,7,L,7,L,9,0.810017,0.30742,0.249015
4,58,1,2,2,8,1,C,1,S,6,S,10,0.347885,0.803702,0.279596
4,59,1,9,1,9,1,C,8,L,8,L,9,0.279098,0.850611,0.237404
4,60,8,1,2,9,1,I,7,L,7,L,10,0.782667,0.419614,0.328418
4,61,9,2,9,1,1,C,7,L,8,L,9,0.805666,0.310574,0.250219
4,62,9,2,1,2,1,I,7,L,1,S,11,0.79041,0.41159,0.325325
4,63,8,2,1,2,1,I,6,S,1,S,11,0.797321,0.406487,0.324101
4,64,8,2,2,1,1,C,6,S,1,S,10,0.825188,0.333034,0.274816
4,65,9,2,2,1,1,C,7,L,1,S,10,0.818796,0.33774,0.27654
4,66,1,9,8,9,1,C,8,L,1,S,10,0.346929,0.814536,0.282586
4,67,9,1,9,8,1,C,8,L,1,S,9,0.81763,0.307521,0.251438
4,68,1,8,8,1,1,I,7,L,7,L,12,0.525147,0.758256,0.398196
4,69,8,1,8,2,1,C,7,L,6,S,8,0.783766,0.283022,0.221823
4,70,2,9,1,8,1,C,7,L,7,L,9,0.320936,0.793504,0.254664
4,71,8,1,9,1,1,C,7,L,8,L,8,0.793464,0.276354,0.219277
4,72,2,8,2,1,1,I,6,S,1,S,12,0.438995,0.799313,0.350894
4,73,2,9,8,1,1,I,7,L,7,L,13,0.540198,0.775651,0.419005
4,74,2,1,2,1,1,C,1,S,1,S,10,0.753549,0.385546,0.290528
4,75,8,9,8,2,0,I,1,S,6,S,10,0.793883,0.353857,0.280921
4,76,1,9,9,1,1,I,8,L,8,L,12,0.502439,0.785903,0.394868
4,77,2,1,9,8,1,C,1,S,1,S,11,0.807881,0.370832,0.299588
4,78,8,1,1,9,1,I,7,L,8,L,10,0.759278,0.451869,0.343094
4,79,8,9,1,9,0,C,1,S,8,L,17,0.773318,0.613251,0.474238
4,80,8,9,1,2,0,C,1,S,1,S,13,0.754832,0.490515,0.370257
4,81,9,1,2,1,1,C,8,L,1,S,9,0.832039,0.296227,0.246472
4,82,2,9,9,2,1,I,7,L,7,L,12,0.513405,0.756531,0.388407
4,83,8,2,2,8,1,I,6,S,6,S,11,0.751363,0.466422,0.350452
4,84,2,8,8,9,1,C,6,S,1,S,11,0.369301,0.817209,0.301796
4,85,1,8,2,1,1,I,7,L,1,S,11,0.409911,0.800631,0.328187
4,86,9,2,1,8,1,I,7,L,7,L,12,0.753458,0.519983,0.391786
4,87,1,2,9,8,1,I,1,S,1,S,12,0.42804,0.794647,0.34014
4,88,8,1,9,8,1,C,7,L,1,S,9,0.820927,0.305167,0.25052
4,89,9,8,2,9,1,I,1,S,7,L,15,0.77251,0.573484,0.443022
4,90,1,8,1,8,1,C,7,L,7,L,9,0.308818,0.810252,0.250221
4,91,2,8,9,1,1,I,6,S,8,L,14,0.554894,0.78372,0.434881
4,92,9,1,2,8,1,I,8,L,6,S,10,0.803413,0.390662,0.313863
4,93,9,8,8,2,1,C,1,S,6,S,10,0.819222,0.333931,0.273563
4,94,2,8,1,8,1,C,6,S,7,L,9,0.337759,0.770561,0.260264
4,95,8,1,2,1,1,C,7,L,1,S,9,0.835336,0.293873,0.245483
4,96,2,8,2,8,1,C,6,S,6,S,10,0.328651,0.828655,0.272338
4,97,2,9,2,1,1,I,7,L,1,S,11,0.424927,0.779869,0.331388
4,98,2,1,1,2,1,I,1,S,1,S,12,0.764627,0.4577,0.34997
4,99,1,8,8,9,1,C,7,L,1,S,10,0.362547,0.792561,0.287341
4,100,8,9,2,1,0,I,1,S,1,S,11,0.789868,0.384417,0.303639
4,101,9,2,2,8,1,I,7,L,6,S,12,0.789487,0.471327,0.372107
4,102,1,2,2,1,1,I,1,S,1,S,12,0.46226,0.76871,0.355344
4,103,8,1,1,8,1,I,7,L,7,L,10,0.776977,0.428336,0.332807
4,104,2,1,8,9,1,I,1,S,1,S,11,0.757196,0.417553,0.31617
4,105,8,1,9,2,1,C,7,L,7,L,8,0.779926,0.28595,0.22302
4,106,9,8,1,2,1,I,1,S,1,S,13,0.793079,0.46171,0.366172
4,107,1,9,2,9,1,C,8,L,7,L,9,0.299741,0.82238,0.246501
4,108,8,1,1,2,1,I,7,L,1,S,9,0.773769,0.353864,0.273809
4,109,8,9,8,1,0,I,1,S,7,L,10,0.812634,0.340894,0.277022
4,110,1,9,2,8,1,C,8,L,6,S,9,0.320172,0.79663,0.255058
4,111,1,2,2,9,1,C,1,S,7,L,10,0.323703,0.835146,0.270339
4,112,9,8,2,8,1,I,1,S,6,S,14,0.769325,0.539731,0.415228
4,113,9,1,8,1,1,C,8,L,7,L,8,0.79404,0.275836,0.219025
4,114,1,8,1,9,1,C,7,L,8,L,9,0.293011,0.831028,0.2435
4,115,9,8,1,8,1,I,1,S,7,L,15,0.765531,0.583138,0.44641
4,116,2,9,2,9,1,C,7,L,7,L,9,0.325772,0.786048,0.256072
4,117,9,1,9,2,1,C,8,L,7,L,8,0.776928,0.28808,0.223817
4,118,8,9,9,2,0,I,1,S,7,L,10,0.788188,0.358007,0.282176
4,119,2,9,1,2,1,C,7,L,1,S,10,0.346615,0.808076,0.280092
4,120,8,2,9,8,1,C,6,S,1,S,10,0.805281,0.348627,0.280743
4,121,9,8,9,1,1,C,1,S,8,L,10,0.833051,0.324518,0.27034
4,122,9,8,9,2,1,C,1,S,7,L,10,0.813526,0.33808,0.275037
4,123,8,9,8,9,0,C,1,S,1,S,12,0.766836,0.432343,0.331537
4,124,2,1,8,2,1,C,1,S,6,S,10,0.830811,0.324827,0.26987
4,125,1,9,9,8,1,I,8,L,1,S,10,0.383467,0.780722,0.299381
4,126,8,2,1,8,1,I,6,S,7,L,12,0.760581,0.514655,0.391436
4,127,8,2,9,1,1,C,6,S,8,L,9,0.811222,0.306437,0.248589
4,128,9,2,1,9,1,I,7,L,8,L,13,0.772539,0.544836,0.420907
4,129,9,8,2,1,1,C,1,S,1,S,11,0.820779,0.360777,0.296118
4,130,2,1,1,9,1,I,1,S,8,L,15,0.762755,0.593624,0.45279
4,131,8,1,2,8,1,I,7,L,6,S,10,0.806849,0.388171,0.313195
4,132,2,8,9,8,1,I,6,S,1,S,11,0.419986,0.770488,0.323594
4,133,1,2,8,9,1,C,1,S,1,S,11,0.39093,0.788748,0.308345
4,134,1,8,2,8,1,C,7,L,6,S,9,0.334085,0.777047,0.2596
4,135,9,1,1,2,1,I,8,L,1,S,9,0.770472,0.356217,0.274455
4,136,2,9,8,9,1,C,7,L,1,S,10,0.376367,0.773333,0.291057
4,137,9,1,1,9,1,I,8,L,8,L,10,0.755842,0.454361,0.343425
4,138,9,8,8,1,1,C,1,S,7,L,10,0.837973,0.320968,0.268962
4,139,2,9,9,8,1,I,7,L,1,S,11,0.398298,0.800452,0.318818
4,140,8,9,2,9,0,C,1,S,7,L,16,0.765912,0.595359,0.455993
4,141,2,9,1,9,1,C,7,L,8,L,9,0.305128,0.81428,0.24846
4,142,9,1,2,9,1,I,8,L,7,L,10,0.779231,0.422106,0.328918
4,143,1,2,1,8,1,C,1,S,7,L,9,0.353976,0.750163,0.265539
4,144,2,1,8,1,1,C,1,S,7,L,9,0.755817,0.347877,0.262931
5,1,8,2,8,9,1,I,6,S,1,S,11,0.797729,0.394009,0.314313
5,2,1,2,8,1,1,I,1,S,7,L,22,0.640394,0.773636,0.495432
5,3,2,1,8,9,1,I,1,S,1,S,12,0.755811,0.449517,0.33975
5,4,2,8,2,9,1,C,6,S,7,L,9,0.319019,0.795655,0.253829
5,5,9,1,2,9,1,I,8,L,7,L,10,0.750039,0.440742,0.330574
5,6,1,9,9,8,1,I,8,L,1,S,10,0.35253,0.8093,0.285303
5,7,1,8,8,1,1,I,7,L,7,L,10,0.428281,0.77165,0.330483
5,8,2,8,8,1,1,I,6,S,7,L,12,0.492103,0.781292,0.384476
5,9,2,9,2,1,1,I,7,L,1,S,12,0.421645,0.790025,0.33311
5,10,9,2,2,1,1,C,7,L,1,S,9,0.781059,0.334354,0.26115
5,11,2,9,2,8,1,C,7,L,6,S,10,0.339474,0.811632,0.275528
5,12,1,9,8,1,1,I,8,L,7,L,11,0.469841,0.766359,0.360067
5,13,9,1,9,2,1,C,8,L,7,L,8,0.752843,0.30398,0.228849
5,14,9,8,1,2,1,I,1,S,1,S,24,0.751557,0.639644,0.480729
5,15,8,9,9,8,1,I,1,S,1,S,14,0.436977,0.792445,0.34628
5,16,1,8,9,8,1,I,7,L,1,S,9,0.339245,0.783627,0.265841
5,17,9,8,9,2,1,C,1,S,7,L,11,0.751352,0.421837,0.316948
5,18,8,2,2,1,1,C,6,S,1,S,10,0.768255,0.37677,0.289456
5,19,1,8,2,8,1,C,7,L,6,S,8,0.303315,0.76187,0.231087
5,20,2,1,9,8,1,C,1,S,1,S,12,0.787852,0.412264,0.324803
5,21,2,1,1,2,1,I,1,S,1,S,13,0.784979,0.455662,0.357685
5,22,1,2,2,9,1,C,1,S,7,L,11,0.403245,0.771699,0.311184
5,23,9,8,9,8,1,C,1,S,1,S,18,0.775516,0.472857,0.366708
5,24,2,1,2,9,1,I,1,S,7,L,16,0.776229,0.585494,0.454477
5,25,1,9,8,2,1,I,8,L,6,S,11,0.47601,0.762138,0.362785
5,26,2,8,2,1,1,I,6,S,1,S,10,0.388429,0.767612,0.298163
5,27,1,8,9,1,1,I,7,L,8,L,10,0.437148,0.762938,0.333517
5,28,2,9,1,8,1,C,7,L,7,L,9,0.352007,0.75051,0.264185
5,29,2,8,1,8,1,C,6,S,7,L,9,0.298941,0.823074,0.246051
5,30,9,8,2,1,1,C,1,S,1,S,15,0.752202,0.473671,0.356296
5,31,9,1,8,1,1,C,8,L,7,L,9,0.850005,0.278584,0.236798
5,32,9,1,1,8,1,I,8,L,7,L,11,0.775271,0.477959,0.370548
5,33,9,8,2,8,0,I,1,S,6,S,13,0.457744,0.773387,0.354013
5,34,9,1,1,2,1,I,8,L,1,S,10,0.818758,0.354238,0.290035
5,35,8,2,8,2,1,C,6,S,6,S,9,0.771751,0.33473,0.258328
5,36,8,1,2,8,1,I,7,L,6,S,13,0.771293,0.528409,0.407558
5,37,8,1,8,2,1,C,7,L,6,S,9,0.764114,0.342125,0.261422
5,38,8,2,8,1,1,C,6,S,7,L,9,0.767103,0.337898,0.259203
5,39,8,9,8,9,1,C,1,S,1,S,13,0.419381,0.793021,0.332578
5,40,8,2,2,9,1,I,6,S,7,L,13,0.782367,0.518262,0.405471
5,41,1,9,1,2,1,C,8,L,1,S,9,0.356074,0.753685,0.268368
5,42,9,2,2,8,1,I,7,L,6,S,10,0.753897,0.436888,0.329369
5,43,8,9,1,2,1,C,1,S,1,S,12,0.4346,0.751688,0.326684
5,44,8,1,1,9,1,I,7,L,8,L,14,0.78084,0.5595,0.43688
5,45,8,9,8,1,1,I,1,S,7,L,19,0.636226,0.754921,0.4803
5,46,2,9,2,9,1,C,7,L,7,L,10,0.339986,0.810978,0.275721
5,47,9,1,9,1,1,C,8,L,8,L,9,0.857491,0.27076,0.232174
5,48,1,8,2,9,1,C,7,L,7,L,8,0.303673,0.761448,0.231232
5,49,1,2,2,1,1,I,1,S,1,S,17,0.523564,0.769367,0.402813
5,50,8,1,9,8,1,C,7,L,1,S,11,0.81073,0.375694,0.304586
5,51,2,8,1,2,1,C,6,S,1,S,10,0.345995,0.811501,0.280775
5,52,8,2,2,8,1,I,6,S,6,S,13,0.781754,0.519042,0.405763
5,53,9,2,8,2,1,C,7,L,6,S,8,0.750917,0.306432,0.230105
5,54,9,1,8,9,1,I,8,L,1,S,9,0.753753,0.363253,0.273803
5,55,9,2,1,2,1,I,7,L,1,S,9,0.751148,0.365298,0.274393
5,56,1,9,8,9,1,C,8,L,1,S,10,0.336341,0.829124,0.278868
5,57,2,1,1,8,1,I,1,S,7,L,16,0.751163,0.616879,0.463376
5,58,1,8,9,2,1,I,7,L,7,L,10,0.442236,0.759551,0.335901
5,59,8,2,9,2,1,C,6,S,7,L,9,0.77895,0.327176,0.254854
5,60,9,1,8,2,1,C,8,L,6,S,9,0.854653,0.275416,0.235385
5,61,2,9,1,9,1,C,7,L,8,L,9,0.352358,0.750064,0.264291
5,62,8,1,2,9,1,I,7,L,7,L,13,0.771906,0.527629,0.40728
5,63,2,8,9,8,1,I,6,S,1,S,10,0.371443,0.782418,0.290624
5,64,8,1,1,8,1,I,7,L,7,L,14,0.780426,0.560004,0.437042
5,65,8,9,8,2,1,I,1,S,6,S,19,0.641149,0.751032,0.481524
5,66,2,1,2,1,1,C,1,S,1,S,11,0.752247,0.415579,0.312618
5,67,1,9,1,9,1,C,8,L,8,L,9,0.282451,0.846599,0.239123
5,68,8,1,9,1,1,C,7,L,8,L,9,0.766951,0.337468,0.258822
5,69,1,8,8,2,1,I,7,L,6,S,10,0.433811,0.767891,0.33312
5,70,1,2,8,9,1,C,1,S,1,S,14,0.42825,0.797456,0.341511
5,71,1,2,9,1,1,I,1,S,8,L,22,0.643718,0.769052,0.495052
5,72,9,2,1,9,1,I,7,L,8,L,11,0.780034,0.472918,0.368892
5,73,1,2,8,2,1,I,1,S,6,S,22,0.644312,0.770496,0.49644
5,74,9,8,1,9,0,I,1,S,8,L,12,0.439667,0.773526,0.340094
5,75,9,2,9,1,1,C,7,L,8,L,8,0.75305,0.302252,0.227611
5,76,1,2,1,8,1,C,1,S,7,L,11,0.378093,0.806278,0.304848
5,77,2,8,9,1,1,I,6,S,8,L,12,0.502188,0.771753,0.387565
5,78,8,2,9,8,1,C,6,S,1,S,10,0.751269,0.391576,0.294179
5,79,9,8,9,1,1,C,1,S,8,L,12,0.799317,0.404989,0.323715
5,80,1,2,1,9,1,C,1,S,8,L,11,0.378507,0.805748,0.304981
5,81,2,9,1,2,1,C,7,L,1,S,11,0.379903,0.796652,0.30265
5,82,9,8,8,2,1,C,1,S,6,S,12,0.79576,0.409995,0.326258
5,83,8,2,1,9,1,I,6,S,8,L,13,0.755879,0.55358,0.418439
5,84,9,8,8,1,1,C,1,S,7,L,12,0.789231,0.414529,0.327159
5,85,1,8,1,9,1,C,7,L,8,L,8,0.287489,0.783039,0.225115
5,86,9,2,8,9,1,I,7,L,1,S,9,0.757916,0.35889,0.272009
5,87,2,1,8,2,1,C,1,S,6,S,10,0.791459,0.356373,0.282055
5,88,9,1,1,9,1,I,8,L,8,L,11,0.775685,0.477429,0.370334
5,89,2,9,8,1,1,I,7,L,7,L,15,0.563464,0.781873,0.440557
5,90,1,9,2,8,1,C,8,L,6,S,9,0.301737,0.820172,0.247476
5,91,8,1,1,2,1,I,7,L,1,S,11,0.775309,0.415988,0.322519
5,92,8,9,2,8,1,C,1,S,6,S,11,0.375508,0.803137,0.301584
5,93,2,1,8,1,1,C,1,S,7,L,10,0.785929,0.360132,0.283039
5,94,2,9,8,9,1,C,7,L,1,S,11,0.392272,0.78365,0.307403
5,95,9,2,1,8,1,I,7,L,7,L,11,0.779621,0.473448,0.36911
5,96,2,9,9,1,1,I,7,L,8,L,15,0.572334,0.773023,0.442428
5,97,1,2,9,2,0,I,1,S,7,L,15,0.750583,0.543598,0.408016
5,98,2,9,9,2,1,I,7,L,7,L,15,0.577896,0.768944,0.44437
5,99,1,2,1,2,1,C,1,S,1,S,13,0.441302,0.764737,0.33748
5,100,1,2,2,8,1,C,1,S,6,S,11,0.40268,0.772429,0.311042
5,101,9,8,2,9,0,I,1,S,7,L,13,0.458356,0.772608,0.35413
5,102,2,8,1,9,1,C,6,S,8,L,9,0.299293,0.822628,0.246206
5,103,8,9,9,1,1,I,1,S,8,L,20,0.624439,0.778937,0.486399
5,104,9,1,2,1,1,C,8,L,1,S,9,0.776896,0.338716,0.263147
5,105,8,9,2,9,1,C,1,S,7,L,11,0.376073,0.802407,0.301764
5,106,1,8,8,9,1,C,7,L,1,S,9,0.32821,0.797896,0.261877
5,107,1,9,9,1,1,I,8,L,8,L,11,0.479583,0.757075,0.36308
5,108,2,1,9,1,1,C,1,S,8,L,10,0.794797,0.35142,0.279307
5,109,8,1,8,1,1,C,7,L,7,L,9,0.759466,0.345293,0.262238
5,110,2,8,9,2,1,I,6,S,7,L,12,0.508024,0.767752,0.390036
5,111,2,1,2,8,1,I,1,S,6,S,16,0.775656,0.586181,0.454675
5,112,9,1,9,8,1,C,8,L,1,S,9,0.764788,0.348983,0.266898
5,113,2,1,1,9,1,I,1,S,8,L,16,0.751541,0.616437,0.463278
5,114,1,9,2,1,1,I,8,L,1,S,10,0.369516,0.794494,0.293578
5,115,8,9,9,2,1,I,1,S,7,L,20,0.628481,0.77577,0.487556
5,116,1,9,1,8,1,C,8,L,7,L,9,0.2821,0.847045,0.238951
5,117,2,9,9,8,1,I,7,L,1,S,11,0.415324,0.756357,0.314133
5,118,2,8,8,2,1,I,6,S,6,S,12,0.498632,0.776758,0.387316
5,119,9,2,9,2,1,C,7,L,7,L,8,0.756531,0.299928,0.226905
5,120,9,1,2,8,1,I,8,L,6,S,11,0.799858,0.44411,0.355225
5,121,8,1,8,9,1,I,7,L,1,S,11,0.787677,0.402986,0.317423
5,122,2,8,8,9,1,C,6,S,1,S,10,0.355254,0.802242,0.284999
5,123,9,8,1,8,0,I,1,S,7,L,12,0.439243,0.774063,0.340002
5,124,2,9,8,2,1,I,7,L,6,S,15,0.569794,0.777184,0.442835
5,125,1,9,9,2,1,I,8,L,7,L,11,0.485165,0.753317,0.365483
5,126,8,2,9,1,1,C,6,S,8,L,9,0.774589,0.330074,0.255671
5,127,1,9,2,9,1,C,8,L,7,L,9,0.302178,0.819626,0.247673
5,128,1,8,1,8,1,C,7,L,7,L,8,0.287189,0.783407,0.224986
5,129,8,1,9,2,1,C,7,L,7,L,9,0.771313,0.334571,0.258059
5,130,1,8,2,1,1,I,7,L,1,S,9,0.351352,0.773359,0.271722
5,131,1,2,9,8,1,I,1,S,1,S,15,0.46159,0.773877,0.357214
5,132,8,2,1,8,1,I,6,S,7,L,13,0.755455,0.554106,0.418602
5,133,9,2,8,1,1,C,7,L,7,L,9,0.854169,0.274222,0.234232
5,134,8,1,2,1,1,C,7,L,1,S,10,0.759165,0.385105,0.292358
5,135,8,2,1,2,1,I,6,S,1,S,11,0.78536,0.407012,0.319651
5,136,1,8,1,2,1,C,7,L,1,S,9,0.321442,0.804304,0.258537
5,137,9,2,9,8,1,C,7,L,1,S,9,0.768952,0.344621,0.264997
5,138,8,9,2,1,1,I,1,S,1,S,15,0.483304,0.779024,0.376506
5,139,9,2,2,9,1,I,7,L,7,L,10,0.754409,0.436234,0.329099
5,140,9,8,8,9,1,I,1,S,1,S,23,0.752194,0.620305,0.466589
5,141,8,9,1,9,1,C,1,S,8,L,10,0.382204,0.761963,0.291226
5,142,2,8,2,8,1,C,6,S,6,S,9,0.318578,0.796201,0.253652
5,143,2,1,9,2,1,C,1,S,7,L,10,0.799885,0.348033,0.278386
5,144,8,9,1,8,1,C,1,S,7,L,10,0.381815,0.762464,0.29112
6,1,1,9,8,1,1,I,8,L,7,L,12,0.504767,0.767565,0.387442
6,2,9,2,1,9,1,I,7,L,8,L,13,0.778073,0.536541,0.417468
6,3,9,1,1,9,1,I,8,L,8,L,11,0.784262,0.469049,0.367857
6,4,9,2,1,8,1,I,7,L,7,L,13,0.779587,0.533631,0.416012
6,5,2,1,2,8,1,I,1,S,6,S,15,0.774683,0.565757,0.438282
6,6,2,1,8,9,1,I,1,S,1,S,12,0.810375,0.394544,0.319728
6,7,8,2,1,2,1,I,6,S,1,S,11,0.772292,0.416759,0.321859
6,8,8,1,1,2,1,I,7,L,1,S,10,0.806221,0.361502,0.291451
6,9,8,9,8,9,1,C,1,S,1,S,16,0.471928,0.770884,0.363802
6,10,8,2,2,8,1,I,6,S,6,S,13,0.775708,0.523386,0.405995
6,11,1,8,2,8,1,C,7,L,6,S,9,0.307668,0.810022,0.249218
6,12,8,9,9,2,0,I,1,S,7,L,12,0.775545,0.447135,0.346774
6,13,9,1,8,1,1,C,8,L,7,L,8,0.75323,0.304158,0.229101
6,14,8,2,1,8,1,I,6,S,7,L,14,0.785043,0.552525,0.433756
6,15,8,9,2,9,1,C,1,S,7,L,11,0.422217,0.752756,0.317826
6,16,2,1,2,9,1,I,1,S,7,L,15,0.772551,0.569363,0.439862
6,17,2,9,8,2,1,I,7,L,6,S,12,0.509117,0.760946,0.38741
6,18,9,8,9,1,1,C,1,S,8,L,13,0.770367,0.48167,0.371062
6,19,1,8,1,8,1,C,7,L,7,L,9,0.287383,0.834672,0.239871
6,20,8,1,2,8,1,I,7,L,6,S,11,0.793692,0.446706,0.354547
6,21,1,2,8,9,1,C,1,S,1,S,15,0.470563,0.764253,0.35963
6,22,1,8,8,9,1,C,7,L,1,S,10,0.355259,0.804092,0.285661
6,23,9,1,2,9,1,I,8,L,7,L,10,0.75819,0.435819,0.330433
6,24,8,2,2,1,1,C,6,S,1,S,10,0.762671,0.382157,0.29146
6,25,9,2,9,8,1,C,7,L,1,S,9,0.752805,0.35201,0.264995
6,26,9,2,8,1,1,C,7,L,7,L,9,0.787057,0.323307,0.254461
6,27,2,1,9,1,1,C,1,S,8,L,9,0.761747,0.341477,0.260119
6,28,1,8,2,1,1,I,7,L,1,S,10,0.376795,0.783463,0.295205
6,29,9,2,2,1,1,C,7,L,1,S,10,0.788618,0.363463,0.286633
6,30,8,9,9,8,1,I,1,S,1,S,23,0.643318,0.767394,0.493678
6,31,1,2,1,9,1,C,1,S,8,L,11,0.387266,0.795719,0.308155
6,32,8,2,8,9,1,I,6,S,1,S,11,0.809263,0.37898,0.306694
6,33,2,9,8,1,1,I,7,L,7,L,12,0.506613,0.762197,0.386139
6,34,1,8,1,9,1,C,7,L,8,L,9,0.286542,0.836869,0.239798
6,35,9,8,8,9,0,I,1,S,1,S,15,0.454561,0.781268,0.355134
6,36,8,9,1,2,1,C,1,S,1,S,14,0.435791,0.785792,0.342441
6,37,1,8,8,1,1,I,7,L,7,L,11,0.48124,0.750906,0.361366
6,38,1,9,1,2,1,C,8,L,1,S,10,0.348157,0.805798,0.280544
6,39,9,8,2,9,0,I,1,S,7,L,11,0.403929,0.770461,0.311212
6,40,8,9,2,1,1,I,1,S,1,S,20,0.57768,0.770749,0.445246
6,41,1,8,2,9,1,C,7,L,7,L,9,0.306689,0.812385,0.249149
6,42,9,8,9,8,0,C,1,S,1,S,21,0.628266,0.770025,0.483781
6,43,9,2,8,2,1,C,7,L,6,S,9,0.788849,0.32261,0.254491
6,44,2,9,1,2,1,C,7,L,1,S,10,0.34921,0.801243,0.279802
6,45,2,1,2,1,1,C,1,S,1,S,11,0.778961,0.391576,0.305023
6,46,1,2,2,9,1,C,1,S,7,L,11,0.411949,0.764636,0.314991
6,47,2,9,8,9,1,C,7,L,1,S,10,0.376473,0.774371,0.29153
6,48,9,2,9,1,1,C,7,L,8,L,9,0.825922,0.29665,0.24501
6,49,9,1,2,1,1,C,8,L,1,S,9,0.785407,0.332495,0.261144
6,50,2,1,8,2,1,C,1,S,6,S,10,0.812379,0.3355,0.272553
6,51,2,9,2,8,1,C,7,L,6,S,9,0.326494,0.783724,0.255882
6,52,2,1,1,8,1,I,1,S,7,L,16,0.781345,0.586903,0.458573
6,53,9,2,9,2,1,C,7,L,7,L,9,0.827501,0.296091,0.245016
6,54,8,2,8,1,1,C,6,S,7,L,9,0.765049,0.339363,0.259629
6,55,2,1,8,1,1,C,1,S,7,L,10,0.810273,0.336414,0.272587
6,56,2,9,2,9,1,C,7,L,7,L,9,0.325515,0.786087,0.255883
6,57,8,9,2,8,1,C,1,S,6,S,12,0.398074,0.808977,0.322032
6,58,2,9,9,1,1,I,7,L,8,L,13,0.55375,0.76658,0.424494
6,59,8,1,9,1,1,C,7,L,8,L,8,0.771979,0.291096,0.22472
6,60,1,8,8,2,1,I,7,L,6,S,12,0.485399,0.793315,0.385074
6,61,8,9,1,8,1,C,1,S,7,L,11,0.398797,0.781107,0.311503
6,62,8,9,1,9,1,C,1,S,8,L,11,0.397534,0.783839,0.311602
6,63,1,9,1,8,1,C,8,L,7,L,9,0.305617,0.812314,0.248257
6,64,9,2,2,8,1,I,7,L,6,S,12,0.766866,0.501424,0.384525
6,65,9,1,8,9,1,I,8,L,1,S,9,0.770296,0.347134,0.267396
6,66,9,1,2,8,1,I,8,L,6,S,10,0.75949,0.432985,0.328848
6,67,8,2,1,9,1,I,6,S,8,L,14,0.783467,0.555429,0.43516
6,68,2,8,8,9,1,C,6,S,1,S,10,0.356299,0.799642,0.284911
6,69,9,8,1,2,0,I,1,S,1,S,13,0.436856,0.765342,0.334344
6,70,1,8,9,8,1,I,7,L,1,S,11,0.432555,0.789201,0.341373
6,71,9,8,2,1,0,C,1,S,1,S,17,0.541993,0.754701,0.409043
6,72,1,9,1,9,1,C,8,L,8,L,9,0.304776,0.814511,0.248244
6,73,8,1,8,1,1,C,7,L,7,L,9,0.846517,0.278769,0.235983
6,74,1,2,9,8,1,I,1,S,1,S,21,0.645549,0.751401,0.485066
6,75,2,1,9,2,1,C,1,S,7,L,9,0.763326,0.340918,0.260231
6,76,8,9,8,1,0,I,1,S,7,L,13,0.752707,0.483518,0.363947
6,77,8,9,8,2,0,I,1,S,6,S,13,0.75529,0.482157,0.364168
6,78,2,8,1,9,1,C,6,S,8,L,9,0.287164,0.832945,0.239192
6,79,9,2,1,2,1,I,7,L,1,S,11,0.800956,0.396088,0.317249
6,80,9,1,8,2,1,C,8,L,6,S,8,0.754668,0.303688,0.229184
6,81,2,8,8,1,1,I,6,S,7,L,12,0.484632,0.789466,0.382601
6,82,1,2,8,2,0,I,1,S,6,S,14,0.752337,0.514994,0.387449
6,83,1,9,2,8,1,C,8,L,6,S,9,0.325903,0.787664,0.256702
6,84,1,8,9,2,1,I,7,L,7,L,12,0.532805,0.759612,0.404725
6,85,1,9,9,2,1,I,8,L,7,L,13,0.553523,0.771198,0.426876
6,86,2,9,9,2,1,I,7,L,7,L,13,0.555665,0.765632,0.425435
6,87,9,1,9,2,1,C,8,L,7,L,8,0.786668,0.28154,0.221478
6,88,1,2,9,1,0,I,1,S,8,L,12,0.759861,0.464233,0.352752
6,89,9,1,1,8,1,I,8,L,7,L,11,0.785526,0.466317,0.366304
6,90,2,8,9,2,1,I,6,S,7,L,12,0.534542,0.754511,0.403318
6,91,9,8,9,2,1,C,1,S,7,L,12,0.75182,0.471589,0.35455
6,92,1,2,1,2,1,C,1,S,1,S,13,0.448892,0.75425,0.338577
6,93,1,9,8,2,1,I,8,L,6,S,12,0.507271,0.766313,0.388729
6,94,1,8,1,2,1,C,7,L,1,S,10,0.327996,0.830964,0.272553
6,95,2,9,1,9,1,C,7,L,8,L,9,0.305368,0.810571,0.247523
6,96,2,8,9,1,1,I,6,S,8,L,12,0.532642,0.755402,0.402359
6,97,1,9,2,9,1,C,8,L,7,L,9,0.324923,0.790026,0.256698
6,98,9,8,8,2,0,C,1,S,6,S,22,0.641947,0.770382,0.494544
6,99,1,2,8,1,0,I,1,S,7,L,15,0.756588,0.533579,0.403699
6,100,8,1,9,2,1,C,7,L,7,L,8,0.773334,0.290693,0.224803
6,101,8,9,9,1,0,I,1,S,8,L,12,0.773645,0.448026,0.346613
6,102,9,2,8,9,1,I,7,L,1,S,10,0.767082,0.384092,0.29463
6,103,2,9,2,1,1,I,7,L,1,S,10,0.398009,0.753742,0.299996
6,104,1,9,9,1,1,I,8,L,8,L,13,0.551609,0.772147,0.425923
6,105,2,9,1,8,1,C,7,L,7,L,9,0.306209,0.808374,0.247531
6,106,9,8,2,8,0,I,1,S,6,S,11,0.405514,0.767248,0.31113
6,107,8,2,9,1,1,C,6,S,8,L,9,0.803914,0.312707,0.251389
6,108,2,8,1,2,1,C,6,S,1,S,10,0.329036,0.826514,0.271953
6,109,9,1,1,2,1,I,8,L,1,S,9,0.750569,0.365802,0.27456
6,110,8,1,1,8,1,I,7,L,7,L,11,0.768688,0.478271,0.367641
6,111,2,8,1,8,1,C,6,S,7,L,9,0.288005,0.830748,0.239259
6,112,9,2,2,9,1,I,7,L,7,L,12,0.765054,0.504895,0.386272
6,113,1,2,2,8,1,C,1,S,6,S,11,0.413533,0.761423,0.314874
6,114,8,2,9,8,1,C,6,S,1,S,10,0.820148,0.335013,0.27476
6,115,2,1,9,8,1,C,1,S,1,S,10,0.768002,0.370416,0.284481
6,116,1,9,8,9,1,C,8,L,1,S,10,0.37542,0.778926,0.292424
6,117,8,2,2,9,1,I,6,S,7,L,13,0.773732,0.526994,0.407752
6,118,2,1,1,9,1,I,1,S,8,L,16,0.779738,0.589692,0.459805
6,119,8,2,8,2,1,C,6,S,6,S,9,0.766841,0.338667,0.259704
6,120,9,1,9,8,1,C,8,L,1,S,9,0.827519,0.296992,0.245766
6,121,9,1,9,1,1,C,8,L,8,L,8,0.785313,0.281942,0.221413
6,122,1,9,9,8,1,I,8,L,1,S,11,0.453913,0.762536,0.346125
6,123,2,8,9,8,1,I,6,S,1,S,11,0.433972,0.78436,0.340391
6,124,8,1,9,8,1,C,7,L,1,S,9,0.812265,0.307473,0.249749
6,125,8,1,8,9,1,I,7,L,1,S,9,0.755042,0.357615,0.270015
6,126,8,1,2,1,1,C,7,L,1,S,9,0.770153,0.342975,0.264144
6,127,8,2,9,2,1,C,6,S,7,L,9,0.805493,0.312147,0.251433
6,128,8,1,8,2,1,C,7,L,6,S,9,0.848309,0.278073,0.235892
6,129,9,8,1,9,0,I,1,S,8,L,11,0.379246,0.801544,0.303983
6,130,9,8,1,8,0,I,1,S,7,L,11,0.38051,0.798813,0.303956
6,131,2,8,8,2,1,I,6,S,6,S,12,0.487136,0.788214,0.383968
6,132,8,1,1,9,1,I,7,L,8,L,11,0.767424,0.481002,0.369133
6,133,1,2,2,1,1,I,1,S,1,S,18,0.554274,0.763384,0.423124
6,134,2,8,2,1,1,I,6,S,1,S,10,0.377835,0.779013,0.294338
6,135,1,9,2,1,1,I,8,L,1,S,10,0.396956,0.758297,0.30101
6,136,2,8,2,9,1,C,6,S,7,L,9,0.30731,0.80846,0.248448
6,137,9,8,8,1,0,C,1,S,7,L,22,0.639925,0.771626,0.493783
6,138,1,2,1,8,1,C,1,S,7,L,11,0.388529,0.792988,0.308099
6,139,8,1,2,9,1,I,7,L,7,L,11,0.792107,0.449919,0.356384
6,140,2,1,1,2,1,I,1,S,1,S,12,0.761186,0.446538,0.339899
6,141,1,2,9,2,0,I,1,S,7,L,12,0.761762,0.463342,0.352956
6,142,2,8,2,8,1,C,6,S,6,S,9,0.30829,0.806098,0.248512
6,143,2,9,9,8,1,I,7,L,1,S,11,0.455392,0.7575,0.34496
6,144,1,8,9,1,1,I,7,L,8,L,12,0.530904,0.760503,0.403754
7,1,8,9,1,8,0,C,1,S,7,L,20,0.78025,0.638527,0.498211
7,2,2,8,2,1,1,I,6,S,1,S,10,0.358354,0.803066,0.287782
7,3,8,1,1,8,1,I,7,L,7,L,11,0.751938,0.51226,0.385188
7,4,9,2,8,1,1,C,7,L,7,L,9,0.813866,0.303759,0.247219
7,5,1,9,2,8,1,C,8,L,6,S,9,0.284032,0.843138,0.239478
7,6,9,1,9,2,1,C,8,L,7,L,8,0.800737,0.273295,0.218837
7,7,8,1,2,1,1,C,7,L,1,S,9,0.779598,0.33482,0.261025
7,8,8,2,2,8,1,I,6,S,6,S,13,0.755395,0.566965,0.428282
7,9,2,9,8,9,1,C,7,L,1,S,10,0.341557,0.822192,0.280826
7,10,8,9,1,9,0,C,1,S,8,L,19,0.777171,0.625766,0.486327
7,11,9,1,8,9,1,I,8,L,1,S,9,0.774063,0.350699,0.271463
7,12,1,8,9,2,1,I,7,L,7,L,12,0.536855,0.756807,0.406296
7,13,1,2,1,9,1,C,1,S,8,L,10,0.372354,0.774111,0.288243
7,14,9,8,8,2,1,C,1,S,6,S,11,0.793017,0.382853,0.303609
7,15,2,9,8,2,1,I,7,L,6,S,11,0.451131,0.777854,0.350914
7,16,1,8,8,2,1,I,7,L,6,S,11,0.451489,0.77575,0.350243
7,17,1,2,1,2,1,C,1,S,1,S,11,0.416041,0.750772,0.312352
7,18,8,2,8,1,1,C,6,S,7,L,9,0.789778,0.321773,0.254129
7,19,9,8,9,8,1,C,1,S,1,S,13,0.784667,0.427195,0.335206
7,20,1,8,8,9,1,C,7,L,1,S,10,0.341733,0.820273,0.280314
7,21,2,8,1,8,1,C,6,S,7,L,8,0.287166,0.776031,0.22285
7,22,2,9,1,9,1,C,7,L,8,L,9,0.294938,0.828896,0.244473
7,23,8,9,9,8,0,I,1,S,1,S,13,0.789037,0.42711,0.337005
7,24,1,8,2,9,1,C,7,L,7,L,9,0.300964,0.818227,0.246257
7,25,9,2,1,9,1,I,7,L,8,L,12,0.779904,0.50298,0.392276
7,26,2,9,9,2,1,I,7,L,7,L,12,0.536332,0.759045,0.4071
7,27,2,8,9,2,1,I,6,S,7,L,12,0.519175,0.779571,0.404734
7,28,2,9,1,8,1,C,7,L,7,L,8,0.300383,0.760727,0.22851
7,29,8,1,8,9,1,I,7,L,1,S,9,0.757031,0.363104,0.274881
7,30,2,8,2,9,1,C,6,S,7,L,9,0.285935,0.837995,0.239612
7,31,9,8,2,8,1,I,1,S,6,S,20,0.777153,0.636544,0.494692
7,32,2,9,2,1,1,I,7,L,1,S,10,0.374654,0.783221,0.293437
7,33,1,9,9,1,1,I,8,L,8,L,13,0.569384,0.757952,0.431566
7,34,9,8,2,1,1,C,1,S,1,S,12,0.752903,0.430056,0.323791
7,35,1,9,2,1,1,I,8,L,1,S,10,0.393693,0.758192,0.298495
7,36,2,9,9,1,1,I,7,L,8,L,13,0.54839,0.784561,0.430245
7,37,8,9,9,1,0,I,1,S,8,L,10,0.812786,0.344926,0.280351
7,38,9,8,1,2,1,I,1,S,1,S,16,0.773536,0.543852,0.420689
7,39,2,9,2,9,1,C,7,L,7,L,9,0.300981,0.819913,0.246778
7,40,2,8,1,2,1,C,6,S,1,S,9,0.335095,0.777397,0.260502
7,41,8,2,1,9,1,I,6,S,8,L,13,0.788533,0.525279,0.4142
7,42,9,2,2,9,1,I,7,L,7,L,12,0.788173,0.491049,0.387032
7,43,9,1,2,1,1,C,8,L,1,S,9,0.79663,0.322415,0.256846
7,44,9,1,1,9,1,I,8,L,8,L,10,0.757907,0.445264,0.337469
7,45,9,8,8,1,1,C,1,S,7,L,11,0.825744,0.355507,0.293558
7,46,8,2,1,8,1,I,6,S,7,L,13,0.750534,0.573993,0.430801
7,47,1,9,8,1,1,I,8,L,7,L,12,0.506409,0.767161,0.388497
7,48,8,9,8,9,0,C,1,S,1,S,14,0.772276,0.477604,0.368842
7,49,8,2,2,9,1,I,6,S,7,L,12,0.758131,0.513722,0.389468
7,50,2,1,2,1,1,C,1,S,1,S,14,0.760215,0.4528,0.344226
7,51,1,2,8,1,1,I,1,S,7,L,18,0.611405,0.777211,0.47519
7,52,8,1,2,8,1,I,7,L,6,S,11,0.756665,0.505061,0.382162
7,53,1,9,1,2,1,C,8,L,1,S,10,0.336769,0.823173,0.277219
7,54,1,8,2,8,1,C,7,L,6,S,8,0.303685,0.753603,0.228858
7,55,2,8,9,8,1,I,6,S,1,S,10,0.346854,0.817055,0.283398
7,56,2,1,9,2,1,C,1,S,7,L,10,0.750619,0.397365,0.29827
7,57,1,2,8,2,1,I,1,S,6,S,17,0.596322,0.772038,0.460384
7,58,2,8,1,9,1,C,6,S,8,L,9,0.279892,0.846978,0.237063
7,59,1,2,9,2,1,I,1,S,7,L,19,0.63308,0.778013,0.492544
7,60,1,2,1,8,1,C,1,S,7,L,10,0.337098,0.821485,0.276921
7,61,9,2,9,1,1,C,7,L,8,L,8,0.758132,0.301275,0.228406
7,62,8,9,2,1,0,I,1,S,1,S,12,0.756572,0.430511,0.325713
7,63,8,1,2,9,1,I,7,L,7,L,11,0.796969,0.45126,0.35964
7,64,1,2,9,8,1,I,1,S,1,S,13,0.441184,0.779012,0.343688
7,65,2,1,1,9,0,I,1,S,8,L,13,0.477656,0.762933,0.364419
7,66,8,9,1,2,0,C,1,S,1,S,16,0.77963,0.542161,0.422685
7,67,9,1,9,1,1,C,8,L,8,L,8,0.812531,0.262083,0.212951
7,68,8,1,9,8,1,C,7,L,1,S,9,0.77189,0.345223,0.266474
7,69,1,2,2,9,1,C,1,S,7,L,10,0.379395,0.763657,0.289727
7,70,9,8,1,9,1,I,1,S,8,L,19,0.770478,0.628468,0.484221
7,71,1,8,1,8,1,C,7,L,7,L,8,0.300183,0.759307,0.227931
7,72,8,1,1,9,1,I,7,L,8,L,11,0.78918,0.462701,0.365154
7,73,9,1,8,2,1,C,8,L,6,S,9,0.853083,0.280142,0.238985
7,74,2,1,2,9,0,I,1,S,7,L,13,0.486157,0.750933,0.365071
7,75,9,2,1,8,1,I,7,L,7,L,13,0.780259,0.551125,0.430021
7,76,1,8,8,1,1,I,7,L,7,L,12,0.485993,0.791967,0.384891
7,77,2,9,8,1,1,I,7,L,7,L,11,0.483858,0.750509,0.363139
7,78,1,9,1,8,1,C,8,L,7,L,9,0.27997,0.849644,0.237875
7,79,8,2,2,1,1,C,6,S,1,S,10,0.787044,0.361758,0.28472
7,80,8,1,8,2,1,C,7,L,6,S,9,0.836051,0.292547,0.244584
7,81,1,8,9,8,1,I,7,L,1,S,10,0.363329,0.795291,0.288952
7,82,2,8,9,1,1,I,6,S,8,L,12,0.533147,0.76661,0.408716
7,83,9,8,9,1,1,C,1,S,8,L,10,0.810261,0.343662,0.278456
7,84,2,1,1,8,0,I,1,S,7,L,11,0.438603,0.751924,0.329796
7,85,9,2,1,2,1,I,7,L,1,S,10,0.757527,0.40644,0.307889
7,86,1,9,8,2,1,I,8,L,6,S,11,0.471448,0.751249,0.354175
7,87,1,8,2,1,1,I,7,L,1,S,10,0.374829,0.781302,0.292855
7,88,8,2,9,1,1,C,6,S,8,L,9,0.844462,0.282265,0.238362
7,89,2,8,8,1,1,I,6,S,7,L,11,0.466876,0.771108,0.360012
7,90,2,8,8,9,1,C,6,S,1,S,9,0.352574,0.759058,0.267624
7,91,9,1,2,8,1,I,8,L,6,S,11,0.775004,0.491329,0.380782
7,92,9,2,9,2,1,C,7,L,7,L,9,0.855132,0.276546,0.236484
7,93,9,2,2,1,1,C,7,L,1,S,10,0.814451,0.341459,0.278101
7,94,9,1,2,9,1,I,8,L,7,L,10,0.764948,0.43481,0.332607
7,95,8,2,8,9,1,I,6,S,1,S,10,0.753947,0.400729,0.302128
7,96,9,2,2,8,1,I,7,L,6,S,13,0.78512,0.544097,0.427182
7,97,1,9,1,9,1,C,8,L,8,L,9,0.312004,0.806709,0.251697
7,98,9,1,9,8,1,C,8,L,1,S,9,0.788923,0.332818,0.262568
7,99,1,2,2,8,1,C,1,S,6,S,10,0.341568,0.814493,0.278204
7,100,8,1,9,2,1,C,7,L,7,L,8,0.785615,0.284351,0.223391
7,101,9,2,8,9,1,I,7,L,1,S,10,0.781354,0.380429,0.29725
7,102,1,8,1,9,1,C,7,L,8,L,9,0.294921,0.82721,0.243962
7,103,2,9,2,8,1,C,7,L,6,S,8,0.303886,0.755023,0.229441
7,104,2,1,8,1,1,C,1,S,7,L,11,0.763543,0.409515,0.312682
7,105,8,9,9,2,0,I,1,S,7,L,10,0.798545,0.357838,0.285749
7,106,2,1,8,9,1,I,1,S,1,S,19,0.762707,0.563284,0.429621
7,107,9,2,9,8,1,C,7,L,1,S,10,0.802951,0.355447,0.285407
7,108,2,1,1,2,1,I,1,S,1,S,22,0.777429,0.616711,0.479449
7,109,2,8,8,2,1,I,6,S,6,S,11,0.434149,0.798453,0.346647
7,110,9,1,8,1,1,C,8,L,7,L,8,0.766576,0.295822,0.22677
7,111,8,2,8,2,1,C,6,S,6,S,9,0.766022,0.343182,0.262885
7,112,8,2,9,8,1,C,6,S,1,S,10,0.775543,0.375747,0.291408
7,113,2,1,2,8,0,I,1,S,6,S,12,0.442711,0.778828,0.344795
7,114,2,8,2,8,1,C,6,S,6,S,8,0.290669,0.770326,0.22391
7,115,1,9,9,8,1,I,8,L,1,S,10,0.382192,0.772181,0.295122
7,116,1,9,2,9,1,C,8,L,7,L,9,0.318047,0.797725,0.253714
7,117,8,1,8,1,1,C,7,L,7,L,8,0.751453,0.306879,0.230605
7,118,8,9,2,9,0,C,1,S,7,L,18,0.753426,0.632659,0.476662
7,119,9,2,8,2,1,C,7,L,6,S,9,0.79011,0.325169,0.256919
7,120,2,1,9,1,1,C,1,S,8,L,10,0.764861,0.384454,0.294053
7,121,1,8,9,1,1,I,7,L,8,L,13,0.549053,0.782232,0.429487
7,122,1,2,2,1,1,I,1,S,1,S,14,0.458236,0.790631,0.362296
7,123,2,1,9,8,1,C,1,S,1,S,15,0.761731,0.465681,0.354724
7,124,1,2,8,9,1,C,1,S,1,S,12,0.42024,0.775776,0.326012
7,125,9,8,2,9,1,I,1,S,7,L,19,0.777371,0.619699,0.481736
7,126,1,9,8,9,1,C,8,L,1,S,10,0.360596,0.797163,0.287454
7,127,8,2,1,2,1,I,6,S,1,S,11,0.787065,0.417603,0.328681
7,128,8,1,9,1,1,C,7,L,8,L,8,0.797408,0.27314,0.217804
7,129,1,2,9,1,1,I,1,S,8,L,19,0.640134,0.769967,0.492882
7,130,2,9,9,8,1,I,7,L,1,S,10,0.363154,0.79721,0.28951
7,131,1,8,1,2,1,C,7,L,1,S,9,0.350125,0.757629,0.265265
7,132,9,8,1,8,1,I,1,S,7,L,20,0.773534,0.641419,0.49616
7,133,8,2,9,2,1,C,6,S,7,L,9,0.831044,0.29456,0.244792
7,134,9,1,1,8,1,I,8,L,7,L,11,0.770277,0.498529,0.384005
7,135,8,9,8,1,0,I,1,S,7,L,10,0.752008,0.3888,0.292381
7,136,2,9,1,2,1,C,7,L,1,S,9,0.350142,0.759315,0.265868
7,137,8,1,1,2,1,I,7,L,1,S,10,0.807773,0.370564,0.299332
7,138,9,8,8,9,1,I,1,S,1,S,14,0.767225,0.478257,0.366931
7,139,8,9,2,8,0,C,1,S,6,S,19,0.753055,0.65299,0.491738
7,140,9,1,1,2,1,I,8,L,1,S,9,0.756585,0.369037,0.279208
7,141,8,9,8,2,0,I,1,S,6,S,11,0.796053,0.38377,0.305501
7,142,9,8,9,2,1,C,1,S,7,L,10,0.79602,0.356574,0.28384
7,143,2,1,8,2,1,C,1,S,6,S,12,0.789271,0.411764,0.324994
7,144,1,9,9,2,1,I,8,L,7,L,13,0.556158,0.770503,0.428522
8,1,8,9,8,9,0,C,1,S,1,S,17,0.759532,0.499817,0.379627
8,2,1,2,1,8,1,C,1,S,7,L,11,0.37889,0.804716,0.304899
8,3,8,1,1,2,1,I,7,L,1,S,11,0.801874,0.423834,0.339862
8,4,8,1,2,9,1,I,7,L,7,L,11,0.767773,0.473387,0.363454
8,5,2,8,2,8,1,C,6,S,6,S,9,0.345547,0.757483,0.261746
8,6,8,1,9,8,1,C,7,L,1,S,10,0.794524,0.370352,0.294253
8,7,9,1,9,2,1,C,8,L,7,L,9,0.757127,0.347459,0.263071
8,8,2,9,2,8,1,C,7,L,6,S,9,0.298359,0.817479,0.243902
8,9,8,2,1,8,1,I,6,S,7,L,11,0.767517,0.486849,0.373665
8,10,2,8,1,8,1,C,6,S,7,L,9,0.333302,0.773814,0.257914
8,11,1,9,1,9,1,C,8,L,8,L,8,0.29077,0.772725,0.224685
8,12,9,8,2,9,0,I,1,S,7,L,13,0.472138,0.768956,0.363053
8,13,1,8,2,8,1,C,7,L,6,S,9,0.288871,0.834813,0.241153
8,14,2,9,8,2,1,I,7,L,6,S,11,0.45141,0.762454,0.34418
8,15,8,9,1,9,1,C,1,S,8,L,12,0.460176,0.751857,0.345987
8,16,8,9,9,1,0,I,1,S,8,L,11,0.769177,0.404163,0.310873
8,17,9,2,8,1,1,C,7,L,7,L,9,0.817281,0.302103,0.246903
8,18,2,9,2,1,1,I,7,L,1,S,10,0.373008,0.779592,0.290794
8,19,2,9,9,1,1,I,7,L,8,L,12,0.507717,0.767995,0.389924
8,20,1,8,1,8,1,C,7,L,7,L,9,0.276626,0.851145,0.235448
8,21,8,9,2,1,0,I,1,S,1,S,16,0.793918,0.444697,0.353053
8,22,1,8,2,9,1,C,7,L,7,L,9,0.29873,0.824296,0.246242
8,23,2,1,2,1,1,C,1,S,1,S,14,0.791181,0.43539,0.344472
8,24,2,1,2,9,1,I,1,S,7,L,20,0.756543,0.645769,0.488552
8,25,1,9,9,2,1,I,8,L,7,L,10,0.409591,0.775512,0.317643
8,26,9,2,8,2,1,C,7,L,6,S,9,0.782729,0.327497,0.256341
8,27,9,1,2,1,1,C,8,L,1,S,10,0.768438,0.381524,0.293177
8,28,8,1,8,1,1,C,7,L,7,L,9,0.839557,0.283704,0.238186
8,29,2,8,8,2,1,I,6,S,6,S,13,0.51339,0.764228,0.392347
8,30,9,2,1,2,1,I,7,L,1,S,11,0.776376,0.444696,0.345252
8,31,9,2,9,2,1,C,7,L,7,L,9,0.786872,0.32569,0.256276
8,32,2,8,8,1,1,I,6,S,7,L,14,0.564804,0.760543,0.429558
8,33,9,8,2,8,0,I,1,S,6,S,12,0.461458,0.753043,0.347498
8,34,8,1,9,1,1,C,7,L,8,L,9,0.843469,0.282155,0.237989
8,35,9,2,9,8,1,C,7,L,1,S,10,0.770015,0.390334,0.300563
8,36,1,9,1,2,1,C,8,L,1,S,9,0.290608,0.83178,0.241722
8,37,1,8,9,1,1,I,7,L,8,L,12,0.494524,0.789633,0.390493
8,38,8,2,8,9,1,I,6,S,1,S,9,0.763955,0.351793,0.268754
8,39,9,2,8,9,1,I,7,L,1,S,10,0.791986,0.367854,0.291336
8,40,1,9,8,1,1,I,8,L,7,L,11,0.450013,0.797451,0.358864
8,41,1,8,8,1,1,I,7,L,7,L,12,0.489159,0.792346,0.387583
8,42,8,2,9,8,1,C,6,S,1,S,10,0.819376,0.352613,0.288922
8,43,1,2,2,1,1,I,1,S,1,S,16,0.487067,0.758229,0.369308
8,44,1,2,8,2,1,I,1,S,6,S,23,0.632239,0.778332,0.492092
8,45,8,2,1,9,1,I,6,S,8,L,11,0.776677,0.476927,0.370418
8,46,1,2,2,8,1,C,1,S,6,S,11,0.393277,0.78555,0.308939
8,47,9,2,1,8,1,I,7,L,7,L,12,0.759006,0.528883,0.401425
8,48,8,1,2,8,1,I,7,L,6,S,11,0.756327,0.486253,0.367766
8,49,1,9,2,8,1,C,8,L,6,S,8,0.293852,0.766422,0.225215
8,50,2,9,1,2,1,C,7,L,1,S,9,0.333036,0.771117,0.25681
8,51,2,8,8,9,1,C,6,S,1,S,11,0.393553,0.786172,0.3094
8,52,2,1,9,2,1,C,1,S,7,L,11,0.761503,0.406553,0.309591
8,53,8,2,8,1,1,C,6,S,7,L,8,0.75379,0.303394,0.228695
8,54,2,8,2,9,1,C,6,S,7,L,10,0.319867,0.840024,0.268696
8,55,1,9,9,1,1,I,8,L,8,L,11,0.455073,0.795047,0.361804
8,56,1,9,8,9,1,C,8,L,1,S,9,0.341689,0.775547,0.264996
8,57,9,8,9,2,1,C,1,S,7,L,12,0.775005,0.42448,0.328974
8,58,2,1,8,1,1,C,1,S,7,L,11,0.803647,0.375096,0.301445
8,59,9,2,2,8,1,I,7,L,6,S,12,0.773779,0.509512,0.39425
8,60,2,8,1,9,1,C,6,S,8,L,9,0.341609,0.765086,0.261361
8,61,8,9,2,8,1,C,1,S,6,S,13,0.467239,0.769085,0.359346
8,62,1,2,9,1,0,I,1,S,8,L,13,0.755548,0.48513,0.366539
8,63,1,8,8,2,1,I,7,L,6,S,11,0.43904,0.783456,0.343968
8,64,2,1,8,9,1,I,1,S,1,S,14,0.753572,0.474374,0.357475
8,65,8,1,2,1,1,C,7,L,1,S,10,0.826869,0.336895,0.278568
8,66,9,8,8,2,1,C,1,S,6,S,12,0.767997,0.428273,0.328912
8,67,9,2,9,1,1,C,7,L,8,L,9,0.821193,0.300555,0.246814
8,68,2,9,1,8,1,C,7,L,7,L,9,0.286114,0.833811,0.238565
8,69,9,1,9,8,1,C,8,L,1,S,11,0.796337,0.401146,0.319447
8,70,2,8,9,2,1,I,6,S,7,L,13,0.520938,0.759969,0.395897
8,71,8,2,2,8,1,I,6,S,6,S,11,0.781904,0.467682,0.365682
8,72,9,2,2,9,1,I,7,L,7,L,12,0.78545,0.496437,0.389927
8,73,9,1,2,8,1,I,8,L,6,S,13,0.775213,0.536701,0.416058
8,74,1,2,1,9,1,C,1,S,8,L,11,0.38805,0.794795,0.30842
8,75,2,1,1,9,1,I,1,S,8,L,21,0.775287,0.639586,0.495862
8,76,9,1,8,1,1,C,8,L,7,L,9,0.787536,0.323873,0.255061
8,77,1,8,8,9,1,C,7,L,1,S,10,0.351504,0.810159,0.284774
8,78,8,2,2,9,1,I,6,S,7,L,11,0.79335,0.454816,0.360828
8,79,9,8,8,1,1,C,1,S,7,L,11,0.761692,0.415607,0.316565
8,80,9,2,1,9,1,I,7,L,8,L,12,0.768167,0.519064,0.398728
8,81,9,1,8,9,1,I,8,L,1,S,10,0.758065,0.392501,0.297541
8,82,9,8,9,8,1,C,1,S,1,S,21,0.752105,0.617289,0.464266
8,83,1,2,9,2,1,I,1,S,7,L,23,0.637866,0.774543,0.494055
8,84,8,1,8,2,1,C,7,L,6,S,9,0.805004,0.309097,0.248825
8,85,9,8,1,8,0,I,1,S,7,L,12,0.446685,0.772414,0.345025
8,86,2,8,1,2,1,C,6,S,1,S,10,0.349778,0.796507,0.278601
8,87,8,1,8,9,1,I,7,L,1,S,10,0.816496,0.347872,0.284036
8,88,2,1,2,8,1,I,1,S,6,S,21,0.779969,0.632618,0.493423
8,89,1,9,1,8,1,C,8,L,7,L,8,0.283362,0.780064,0.22104
8,90,1,8,1,2,1,C,7,L,1,S,9,0.323548,0.78845,0.255102
8,91,9,1,8,2,1,C,8,L,6,S,9,0.752983,0.349266,0.262991
8,92,9,8,2,1,1,C,1,S,1,S,16,0.778771,0.463167,0.360701
8,93,2,9,9,8,1,I,7,L,1,S,10,0.340664,0.813049,0.276977
8,94,1,2,8,9,1,C,1,S,1,S,15,0.456974,0.773684,0.353554
8,95,8,2,9,1,1,C,6,S,8,L,8,0.756948,0.302335,0.228852
8,96,8,2,2,1,1,C,6,S,1,S,9,0.771183,0.344015,0.265299
8,97,2,9,8,9,1,C,7,L,1,S,10,0.362636,0.790569,0.286689
8,98,8,1,9,2,1,C,7,L,7,L,9,0.809148,0.307291,0.248644
8,99,8,9,8,1,0,I,1,S,7,L,11,0.764118,0.406567,0.310665
8,100,1,9,2,9,1,C,8,L,7,L,8,0.302365,0.757969,0.229183
8,101,1,9,2,1,1,I,8,L,1,S,9,0.348917,0.767769,0.267887
8,102,8,9,8,2,0,I,1,S,6,S,12,0.772328,0.417535,0.322474
8,103,1,9,8,2,1,I,8,L,6,S,10,0.404385,0.778028,0.314623
8,104,8,9,2,9,1,C,1,S,7,L,13,0.47882,0.756298,0.362131
8,105,1,2,1,2,1,C,1,S,1,S,12,0.414098,0.781087,0.323447
8,106,9,8,8,9,1,I,1,S,1,S,18,0.774781,0.505171,0.391396
8,107,2,9,9,2,1,I,7,L,7,L,11,0.457615,0.759255,0.347446
8,108,2,1,9,8,1,C,1,S,1,S,16,0.752875,0.540121,0.406644
8,109,2,9,2,9,1,C,7,L,7,L,9,0.308218,0.806962,0.24872
8,110,1,9,9,8,1,I,8,L,1,S,9,0.325782,0.791219,0.257765
8,111,1,8,2,1,1,I,7,L,1,S,10,0.361877,0.799182,0.289205
8,112,9,1,9,1,1,C,8,L,8,L,9,0.791448,0.322324,0.255103
8,113,9,2,2,1,1,C,7,L,1,S,10,0.802359,0.356877,0.286344
8,114,9,1,1,2,1,I,8,L,1,S,12,0.785223,0.47074,0.369636
8,115,1,2,8,1,0,I,1,S,7,L,13,0.750042,0.488061,0.366066
8,116,9,8,9,1,1,C,1,S,8,L,11,0.766752,0.413202,0.316823
8,117,8,9,9,2,0,I,1,S,7,L,12,0.779335,0.413743,0.322444
8,118,8,2,8,2,1,C,6,S,6,S,9,0.828039,0.292792,0.242443
8,119,8,9,1,8,1,C,1,S,7,L,12,0.451015,0.761676,0.343527
8,120,9,1,2,9,1,I,8,L,7,L,13,0.786794,0.523914,0.412213
8,121,1,8,9,8,1,I,7,L,1,S,10,0.329533,0.832638,0.274382
8,122,8,1,1,8,1,I,7,L,7,L,12,0.784462,0.507767,0.398324
8,123,2,8,9,8,1,I,6,S,1,S,11,0.363881,0.817645,0.297526
8,124,8,9,1,2,0,C,1,S,1,S,23,0.75994,0.644432,0.489729
8,125,2,1,1,2,1,I,1,S,1,S,19,0.758135,0.621752,0.471372
8,126,1,8,9,2,1,I,7,L,7,L,11,0.445244,0.780257,0.347405
8,127,1,8,1,9,1,C,7,L,8,L,9,0.284933,0.842416,0.240032
8,128,8,9,9,8,0,I,1,S,1,S,21,0.769559,0.598015,0.460208
8,129,2,1,8,2,1,C,1,S,6,S,11,0.755298,0.409751,0.309485
8,130,9,8,1,2,0,I,1,S,1,S,15,0.521428,0.750268,0.391211
8,131,9,1,1,9,1,I,8,L,8,L,13,0.769379,0.546294,0.420307
8,132,8,2,9,2,1,C,6,S,7,L,9,0.832182,0.290985,0.242153
8,133,2,8,9,1,1,I,6,S,8,L,14,0.570324,0.757477,0.432007
8,134,2,8,2,1,1,I,6,S,1,S,11,0.408152,0.77089,0.31464
8,135,2,1,9,1,1,C,1,S,8,L,11,0.808707,0.372692,0.301398
8,136,2,1,1,8,1,I,1,S,7,L,21,0.770608,0.643245,0.495689
8,137,2,9,8,1,1,I,7,L,7,L,12,0.502352,0.770708,0.387166
8,138,9,8,1,9,0,I,1,S,8,L,12,0.455846,0.762595,0.347625
8,139,8,2,1,2,1,I,6,S,1,S,10,0.773809,0.407356,0.315215
8,140,9,1,1,8,1,I,8,L,7,L,13,0.760432,0.555694,0.422568
8,141,2,9,1,9,1,C,7,L,8,L,9,0.294421,0.825082,0.242921
8,142,1,2,2,9,1,C,1,S,7,L,11,0.404723,0.772684,0.312723
8,143,1,2,9,8,1,I,1,S,1,S,14,0.423439,0.800929,0.339144
8,144,8,1,1,9,1,I,7,L,8,L,11,0.7511,0.495498,0.372168
9,1,8,9,8,9,0,C,1,S,1,S,11,0.819171,0.366333,0.300089
9,2,2,1,2,9,1,I,1,S,7,L,20,0.758087,0.635715,0.481928
9,3,2,8,2,1,1,I,6,S,1,S,12,0.470004,0.755581,0.355126
9,4,8,2,2,1,1,C,6,S,1,S,9,0.779739,0.329877,0.257218
9,5,1,2,1,9,1,C,1,S,8,L,10,0.341269,0.811406,0.276908
9,6,9,2,8,1,1,C,7,L,7,L,9,0.830462,0.290559,0.241298
9,7,1,2,2,8,1,C,1,S,6,S,10,0.326999,0.826978,0.270421
9,8,8,2,9,8,1,C,6,S,1,S,10,0.82251,0.340491,0.280058
9,9,1,9,8,2,1,I,8,L,6,S,12,0.496575,0.779896,0.387277
9,10,1,9,9,1,1,I,8,L,8,L,13,0.556785,0.770497,0.429001
9,11,8,9,9,8,0,I,1,S,1,S,11,0.787078,0.391351,0.308024
9,12,1,8,1,2,1,C,7,L,1,S,9,0.338836,0.769222,0.26064
9,13,1,8,8,1,1,I,7,L,7,L,12,0.517729,0.773266,0.400342
9,14,1,8,2,1,1,I,7,L,1,S,10,0.404627,0.758253,0.30681
9,15,8,1,9,1,1,C,7,L,8,L,8,0.776005,0.285986,0.221927
9,16,8,2,9,1,1,C,6,S,8,L,8,0.773487,0.289676,0.224061
9,17,2,9,1,2,1,C,7,L,1,S,11,0.367624,0.808475,0.297215
9,18,9,8,2,1,1,C,1,S,1,S,12,0.798387,0.390864,0.312061
9,19,2,8,2,8,1,C,6,S,6,S,9,0.331854,0.772615,0.256395
9,20,2,9,8,1,1,I,7,L,7,L,16,0.614425,0.757541,0.465452
9,21,9,1,9,1,1,C,8,L,8,L,9,0.856495,0.26815,0.22967
9,22,2,1,2,8,1,I,1,S,6,S,21,0.760443,0.649039,0.493557
9,23,1,8,1,8,1,C,7,L,7,L,8,0.296233,0.764314,0.226415
9,24,9,1,8,2,1,C,8,L,6,S,9,0.804,0.308197,0.247791
9,25,8,9,2,8,0,C,1,S,6,S,15,0.774425,0.584844,0.452918
9,26,9,2,8,2,1,C,7,L,6,S,9,0.800189,0.312916,0.250392
9,27,1,2,8,1,1,I,1,S,7,L,17,0.613419,0.774267,0.47495
9,28,9,2,2,9,1,I,7,L,7,L,12,0.781624,0.484564,0.378747
9,29,2,8,8,2,1,I,6,S,6,S,14,0.560226,0.76428,0.42817
9,30,8,2,9,2,1,C,6,S,7,L,8,0.752646,0.304754,0.229372
9,31,1,9,2,9,1,C,8,L,7,L,9,0.316184,0.795379,0.251486
9,32,2,9,2,9,1,C,7,L,7,L,10,0.355037,0.788784,0.280048
9,33,2,1,9,2,1,C,1,S,7,L,10,0.761086,0.379345,0.288714
9,34,8,1,1,8,1,I,7,L,7,L,12,0.769479,0.53028,0.408039
9,35,2,1,8,9,1,I,1,S,1,S,13,0.791933,0.417323,0.330492
9,36,8,1,9,2,1,C,7,L,7,L,8,0.755164,0.301064,0.227353
9,37,2,1,8,1,1,C,1,S,7,L,10,0.763167,0.379571,0.289676
9,38,9,8,1,8,1,I,1,S,7,L,21,0.777114,0.641652,0.498637
9,39,2,8,1,2,1,C,6,S,1,S,10,0.37471,0.764179,0.286345
9,40,1,2,2,9,1,C,1,S,7,L,10,0.362623,0.779114,0.282525
9,41,8,1,8,1,1,C,7,L,7,L,8,0.756708,0.301713,0.228308
9,42,9,8,1,9,1,I,1,S,8,L,20,0.767934,0.637592,0.489628
9,43,8,9,1,9,0,C,1,S,8,L,14,0.754504,0.577492,0.43572
9,44,1,2,9,8,1,I,1,S,1,S,12,0.422176,0.776623,0.327872
9,45,9,8,8,1,1,C,1,S,7,L,10,0.773928,0.370371,0.286641
9,46,9,1,1,8,1,I,8,L,7,L,13,0.767502,0.55658,0.427176
9,47,1,2,9,2,1,I,1,S,7,L,17,0.610481,0.775226,0.473261
9,48,8,1,2,1,1,C,7,L,1,S,9,0.782684,0.325919,0.255092
9,49,1,2,1,8,1,C,1,S,7,L,9,0.345769,0.760776,0.263053
9,50,8,9,1,8,0,C,1,S,7,L,15,0.758741,0.606962,0.460527
9,51,2,1,1,2,1,I,1,S,1,S,18,0.758897,0.589473,0.447349
9,52,2,8,1,8,1,C,6,S,7,L,9,0.318848,0.793862,0.253122
9,53,2,1,8,2,1,C,1,S,6,S,11,0.79788,0.378002,0.3016
9,54,1,8,9,1,1,I,7,L,8,L,12,0.54195,0.753516,0.408368
9,55,9,2,9,2,1,C,7,L,7,L,9,0.82864,0.290109,0.240396
9,56,2,8,9,2,1,I,6,S,7,L,15,0.586298,0.77068,0.451848
9,57,1,9,1,8,1,C,8,L,7,L,9,0.271846,0.858122,0.233277
9,58,2,8,2,9,1,C,6,S,7,L,10,0.32951,0.821413,0.270664
9,59,1,9,1,9,1,C,8,L,8,L,9,0.29806,0.822892,0.245271
9,60,1,9,2,8,1,C,8,L,6,S,9,0.284851,0.836875,0.238385
9,61,1,9,2,1,1,I,8,L,1,S,11,0.412894,0.794031,0.32785
9,62,1,8,2,9,1,C,7,L,7,L,9,0.302564,0.813492,0.246133
9,63,9,8,8,9,1,I,1,S,1,S,12,0.751055,0.434242,0.32614
9,64,8,9,1,2,0,C,1,S,1,S,12,0.767372,0.462188,0.35467
9,65,9,1,9,2,1,C,8,L,7,L,9,0.832451,0.285391,0.237574
9,66,2,1,9,8,1,C,1,S,1,S,14,0.785405,0.434797,0.341492
9,67,1,2,8,2,1,I,1,S,6,S,16,0.594067,0.768612,0.456607
9,68,9,1,2,1,1,C,8,L,1,S,10,0.839078,0.314232,0.263665
9,69,9,2,1,2,1,I,7,L,1,S,11,0.791398,0.413384,0.327151
9,70,2,9,9,2,1,I,7,L,7,L,16,0.61154,0.758398,0.463791
9,71,9,1,2,9,1,I,8,L,7,L,12,0.78603,0.4795,0.376901
9,72,8,2,1,2,1,I,6,S,1,S,10,0.773326,0.396075,0.306295
9,73,2,9,2,8,1,C,7,L,6,S,10,0.319412,0.836648,0.267235
9,74,8,9,2,1,0,I,1,S,1,S,10,0.770975,0.368382,0.284013
9,75,1,9,8,1,1,I,8,L,7,L,12,0.534179,0.751759,0.401574
9,76,9,8,2,8,1,I,1,S,6,S,20,0.759233,0.64503,0.489728
9,77,9,1,9,8,1,C,8,L,1,S,10,0.788515,0.360615,0.28435
9,78,9,8,9,1,1,C,1,S,8,L,10,0.797854,0.351386,0.280355
9,79,9,1,8,1,1,C,8,L,7,L,9,0.834273,0.285841,0.238469
9,80,1,9,8,9,1,C,8,L,1,S,10,0.392633,0.766851,0.301091
9,81,1,2,2,1,1,I,1,S,1,S,14,0.50787,0.774461,0.393325
9,82,1,8,8,2,1,I,7,L,6,S,11,0.478166,0.758126,0.36251
9,83,9,2,8,9,1,I,7,L,1,S,10,0.807713,0.34803,0.281108
9,84,2,9,1,9,1,C,7,L,8,L,10,0.333683,0.821076,0.273979
9,85,8,2,8,2,1,C,6,S,6,S,9,0.834366,0.290747,0.242589
9,86,9,1,2,8,1,I,8,L,6,S,13,0.783742,0.53269,0.417492
9,87,9,1,8,9,1,I,8,L,1,S,10,0.811995,0.343024,0.278533
9,88,1,9,1,2,1,C,8,L,1,S,9,0.352456,0.751109,0.264733
9,89,8,9,8,2,0,I,1,S,6,S,10,0.839653,0.319752,0.26848
9,90,8,1,1,2,1,I,7,L,1,S,10,0.776471,0.392006,0.304381
9,91,2,9,2,1,1,I,7,L,1,S,13,0.500079,0.752264,0.376192
9,92,8,2,8,9,1,I,6,S,1,S,9,0.760812,0.352175,0.267939
9,93,1,2,9,1,1,I,1,S,8,L,17,0.630865,0.758495,0.478508
9,94,9,2,9,1,1,C,7,L,8,L,9,0.852684,0.272869,0.232671
9,95,2,9,8,2,1,I,7,L,6,S,15,0.590525,0.751704,0.4439
9,96,9,2,9,8,1,C,7,L,1,S,10,0.784233,0.365622,0.286733
9,97,1,2,1,2,1,C,1,S,1,S,11,0.376661,0.796622,0.300056
9,98,2,9,9,1,1,I,7,L,8,L,17,0.619521,0.772692,0.478699
9,99,8,9,9,2,0,I,1,S,7,L,9,0.774866,0.332597,0.257719
9,100,8,1,1,9,1,I,7,L,8,L,11,0.757825,0.487328,0.369309
9,101,8,2,2,9,1,I,6,S,7,L,11,0.778535,0.455734,0.354805
9,102,9,8,9,8,1,C,1,S,1,S,13,0.757883,0.444864,0.337155
9,103,8,1,8,9,1,I,7,L,1,S,9,0.763758,0.348218,0.265954
9,104,1,8,9,8,1,I,7,L,1,S,10,0.354064,0.804636,0.284893
9,105,1,8,1,9,1,C,7,L,8,L,9,0.28444,0.841004,0.239215
9,106,9,2,2,8,1,I,7,L,6,S,13,0.779584,0.53758,0.419088
9,107,8,1,2,8,1,I,7,L,6,S,12,0.785568,0.505987,0.397487
9,108,2,1,9,1,1,C,1,S,8,L,10,0.787092,0.360585,0.283814
9,109,2,9,1,8,1,C,7,L,7,L,9,0.339739,0.768173,0.260979
9,110,1,2,8,9,1,C,1,S,1,S,13,0.453613,0.787687,0.357305
9,111,8,2,2,8,1,I,6,S,6,S,12,0.782601,0.509896,0.399045
9,112,8,2,1,9,1,I,6,S,8,L,11,0.75469,0.491371,0.370833
9,113,1,8,9,2,1,I,7,L,7,L,12,0.515247,0.773485,0.398536
9,114,9,8,8,2,1,C,1,S,6,S,11,0.812453,0.365923,0.297296
9,115,2,9,8,9,1,C,7,L,1,S,12,0.455296,0.755834,0.344128
9,116,9,1,1,9,1,I,8,L,8,L,12,0.760517,0.516937,0.39314
9,117,9,8,2,9,1,I,1,S,7,L,19,0.759118,0.62719,0.476111
9,118,1,8,8,9,1,C,7,L,1,S,10,0.377544,0.787045,0.297144
9,119,9,2,1,8,1,I,7,L,7,L,13,0.763343,0.561469,0.428594
9,120,2,8,8,1,1,I,6,S,7,L,15,0.589116,0.769948,0.453589
9,121,1,9,9,8,1,I,8,L,1,S,10,0.369154,0.784442,0.28958
9,122,8,2,8,1,1,C,6,S,7,L,8,0.75419,0.305403,0.230332
9,123,1,9,9,2,1,I,8,L,7,L,12,0.531697,0.751977,0.399824
9,124,8,2,1,8,1,I,6,S,7,L,12,0.766513,0.53419,0.409463
9,125,9,8,1,2,1,I,1,S,1,S,17,0.763078,0.571239,0.4359
9,126,2,8,1,9,1,C,6,S,8,L,9,0.345063,0.758632,0.261776
9,127,8,9,9,1,0,I,1,S,8,L,9,0.798911,0.315357,0.251942
9,128,1,8,2,8,1,C,7,L,6,S,9,0.271231,0.854988,0.231899
9,129,8,1,8,2,1,C,7,L,6,S,9,0.837312,0.28679,0.240132
9,130,8,9,2,9,0,C,1,S,7,L,14,0.781104,0.540189,0.421944
9,131,8,1,9,8,1,C,7,L,1,S,10,0.825654,0.336423,0.277769
9,132,2,8,8,9,1,C,6,S,1,S,12,0.422671,0.798959,0.337697
9,133,8,9,8,1,0,I,1,S,7,L,9,0.776688,0.333047,0.258674
9,134,2,9,9,8,1,I,7,L,1,S,12,0.411941,0.790257,0.325539
9,135,2,1,1,9,1,I,1,S,8,L,21,0.768273,0.642632,0.493717
9,136,2,8,9,1,1,I,6,S,8,L,15,0.609687,0.752061,0.458522
9,137,9,2,2,1,1,C,7,L,1,S,10,0.834796,0.319238,0.266499
9,138,2,1,1,8,0,I,1,S,7,L,13,0.499605,0.758932,0.379166
9,139,2,8,9,8,1,I,6,S,1,S,11,0.404635,0.771034,0.311987
9,140,9,8,9,2,1,C,1,S,7,L,10,0.771848,0.370146,0.285696
9,141,2,1,2,1,1,C,1,S,1,S,12,0.779406,0.406084,0.316505
9,142,9,2,1,9,1,I,7,L,8,L,12,0.756111,0.522002,0.394691
9,143,9,1,1,2,1,I,8,L,1,S,11,0.795866,0.40827,0.324928
9,144,8,1,2,9,1,I,7,L,7,L,11,0.78167,0.451691,0.353073
10,1,8,1,8,9,1,I,7,L,1,S,11,0.788148,0.40921,0.322518
10,2,1,9,9,2,1,I,8,L,7,L,11,0.468165,0.757045,0.354421
10,3,2,1,9,1,1,C,1,S,8,L,11,0.817534,0.366194,0.299376
10,4,1,2,8,2,1,I,1,S,6,S,16,0.604365,0.77456,0.468117
10,5,8,9,8,1,0,I,1,S,7,L,13,0.76069,0.502321,0.38211
10,6,1,2,9,8,1,I,1,S,1,S,11,0.423844,0.751341,0.318451
10,7,9,2,8,9,1,I,7,L,1,S,12,0.787581,0.438723,0.34553
10,8,2,8,8,9,1,C,6,S,1,S,10,0.355698,0.794791,0.282706
10,9,1,9,1,2,1,C,8,L,1,S,10,0.355436,0.799994,0.284347
10,10,8,1,2,8,1,I,7,L,6,S,12,0.773741,0.484529,0.3749
10,11,1,2,2,8,1,C,1,S,6,S,10,0.351344,0.794678,0.279205
10,12,1,2,2,1,1,I,1,S,1,S,13,0.503199,0.762099,0.383487
10,13,1,9,8,2,1,I,8,L,6,S,12,0.53541,0.752078,0.40267
10,14,1,2,2,9,1,C,1,S,7,L,9,0.329974,0.780624,0.257586
10,15,9,1,2,8,1,I,8,L,6,S,11,0.773605,0.452002,0.349671
10,16,1,2,8,1,1,I,1,S,7,L,16,0.625921,0.757558,0.474172
10,17,2,8,9,2,1,I,6,S,7,L,12,0.505479,0.756826,0.382559
10,18,2,9,8,1,1,I,7,L,7,L,14,0.575406,0.778919,0.448194
10,19,9,2,2,9,1,I,7,L,7,L,15,0.76307,0.602228,0.459542
10,20,1,9,9,1,1,I,8,L,8,L,12,0.515561,0.767303,0.395591
10,21,1,8,1,2,1,C,7,L,1,S,10,0.367817,0.78766,0.289714
10,22,2,8,2,8,1,C,6,S,6,S,9,0.344717,0.758416,0.261439
10,23,2,1,9,2,1,C,1,S,7,L,11,0.773175,0.398223,0.307896
10,24,8,2,8,1,1,C,6,S,7,L,9,0.762876,0.345908,0.263885
10,25,9,8,8,1,1,C,1,S,7,L,10,0.797744,0.358632,0.286096
10,26,9,8,2,9,0,I,1,S,7,L,13,0.498389,0.76293,0.380236
10,27,8,9,2,1,1,I,1,S,1,S,18,0.601212,0.754276,0.45348
10,28,2,9,1,9,1,C,7,L,8,L,9,0.278009,0.847591,0.235638
10,29,2,9,8,9,1,C,7,L,1,S,10,0.341183,0.809724,0.276264
10,30,8,2,2,9,1,I,6,S,7,L,18,0.770009,0.630965,0.485849
10,31,1,8,8,2,1,I,7,L,6,S,13,0.546997,0.777791,0.425449
10,32,1,8,9,2,1,I,7,L,7,L,12,0.482114,0.788256,0.380029
10,33,9,2,2,1,1,C,7,L,1,S,10,0.785837,0.357632,0.28104
10,34,9,1,2,1,1,C,8,L,1,S,9,0.777346,0.329801,0.256369
10,35,2,9,9,8,1,I,7,L,1,S,10,0.382454,0.766481,0.293144
10,36,8,1,1,2,1,I,7,L,1,S,10,0.762801,0.38485,0.293564
10,37,2,9,9,2,1,I,7,L,7,L,12,0.489881,0.773282,0.378816
10,38,8,1,2,9,1,I,7,L,7,L,14,0.781659,0.568303,0.444219
10,39,8,2,1,8,1,I,6,S,7,L,16,0.759943,0.594445,0.451744
10,40,8,9,2,8,1,C,1,S,6,S,11,0.38982,0.776535,0.302709
10,41,1,8,1,8,1,C,7,L,7,L,9,0.323654,0.789613,0.255562
10,42,9,8,2,1,1,C,1,S,1,S,12,0.795904,0.398899,0.317485
10,43,9,8,8,2,1,C,1,S,6,S,10,0.771917,0.376732,0.290806
10,44,8,9,8,2,1,I,1,S,6,S,21,0.643016,0.770677,0.495558
10,45,1,9,9,8,1,I,8,L,1,S,10,0.364089,0.791899,0.288322
10,46,1,8,8,1,1,I,7,L,7,L,13,0.572402,0.758795,0.434336
10,47,2,8,1,8,1,C,6,S,7,L,9,0.341601,0.76536,0.261448
10,48,2,9,2,8,1,C,7,L,6,S,9,0.331528,0.771289,0.255704
10,49,9,1,8,2,1,C,8,L,6,S,8,0.751571,0.304676,0.228986
10,50,8,2,1,2,1,I,6,S,1,S,12,0.760391,0.435879,0.331438
10,51,8,9,9,1,1,I,1,S,8,L,20,0.651354,0.750324,0.488726
10,52,2,8,9,8,1,I,6,S,1,S,10,0.39697,0.751548,0.298342
10,53,9,1,9,1,1,C,8,L,8,L,9,0.844307,0.280902,0.237168
10,54,9,2,9,1,1,C,7,L,8,L,9,0.770156,0.337286,0.259763
10,55,1,8,2,9,1,C,7,L,7,L,9,0.275252,0.85358,0.23495
10,56,1,9,8,1,1,I,8,L,7,L,13,0.559927,0.771095,0.431757
10,57,1,2,1,9,1,C,1,S,8,L,9,0.327973,0.786016,0.257792
10,58,2,8,8,1,1,I,6,S,7,L,14,0.590369,0.76365,0.450835
10,59,9,1,9,8,1,C,8,L,1,S,10,0.812445,0.347731,0.282513
10,60,8,1,1,9,1,I,7,L,8,L,14,0.778442,0.574467,0.447189
10,61,2,1,1,9,0,I,1,S,8,L,12,0.472201,0.757968,0.357913
10,62,8,2,9,1,1,C,6,S,8,L,10,0.804663,0.34673,0.279
10,63,9,1,1,8,1,I,8,L,7,L,11,0.768554,0.461756,0.354884
10,64,2,8,2,1,1,I,6,S,1,S,12,0.451079,0.795466,0.358818
10,65,2,8,9,1,1,I,6,S,8,L,13,0.551363,0.761615,0.419926
10,66,9,8,1,9,0,I,1,S,8,L,12,0.480035,0.753484,0.361699
10,67,1,9,2,9,1,C,8,L,7,L,8,0.300432,0.754606,0.226708
10,68,1,8,9,8,1,I,7,L,1,S,10,0.37647,0.779565,0.293483
10,69,8,9,2,9,1,C,1,S,7,L,10,0.357452,0.789544,0.282224
10,70,8,2,2,1,1,C,6,S,1,S,11,0.798997,0.373436,0.298374
10,71,2,8,1,9,1,C,6,S,8,L,9,0.291198,0.834719,0.243069
10,72,2,1,8,1,1,C,1,S,7,L,10,0.793147,0.360699,0.286087
10,73,8,1,8,2,1,C,7,L,6,S,9,0.825306,0.29372,0.242409
10,74,8,1,9,1,1,C,7,L,8,L,9,0.808139,0.306577,0.247757
10,75,9,8,2,8,1,I,1,S,6,S,20,0.767805,0.628086,0.482247
10,76,2,1,9,8,1,C,1,S,1,S,14,0.776882,0.445474,0.346081
10,77,9,8,1,2,1,I,1,S,1,S,14,0.758152,0.467736,0.354615
10,78,8,2,2,8,1,I,6,S,6,S,16,0.766855,0.58339,0.447376
10,79,2,9,2,1,1,I,7,L,1,S,11,0.439421,0.764372,0.335881
10,80,9,2,8,1,1,C,7,L,7,L,9,0.811485,0.307714,0.249705
10,81,9,1,8,9,1,I,8,L,1,S,10,0.771173,0.390975,0.301509
10,82,8,9,9,2,1,I,1,S,7,L,20,0.621121,0.775633,0.481762
10,83,2,8,1,2,1,C,6,S,1,S,10,0.388317,0.759643,0.294982
10,84,1,2,1,2,1,C,1,S,1,S,11,0.411815,0.762758,0.314116
10,85,9,2,2,8,1,I,7,L,6,S,13,0.759147,0.52626,0.399509
10,86,2,1,2,9,0,I,1,S,7,L,12,0.475173,0.751746,0.357209
10,87,9,8,9,1,1,C,1,S,8,L,10,0.752995,0.39086,0.294316
10,88,8,9,9,8,1,I,1,S,1,S,14,0.460348,0.765118,0.352221
10,89,9,1,2,9,1,I,8,L,7,L,12,0.752492,0.541766,0.407675
10,90,9,2,1,8,1,I,7,L,7,L,13,0.752796,0.537465,0.404601
10,91,8,1,2,1,1,C,7,L,1,S,10,0.831227,0.32204,0.267688
10,92,1,9,1,8,1,C,8,L,7,L,9,0.312118,0.800641,0.249895
10,93,1,2,1,8,1,C,1,S,7,L,10,0.34721,0.803145,0.27886
10,94,2,1,1,8,1,I,1,S,7,L,21,0.776571,0.630012,0.489249
10,95,2,1,2,8,1,I,1,S,6,S,20,0.752411,0.638866,0.48069
10,96,8,9,1,9,1,C,1,S,8,L,10,0.355038,0.795389,0.282393
10,97,9,1,8,1,1,C,8,L,7,L,8,0.772849,0.28997,0.224103
10,98,9,1,1,9,1,I,8,L,8,L,13,0.787506,0.546458,0.430339
10,99,9,2,1,2,1,I,7,L,1,S,11,0.781599,0.39972,0.312421
10,100,9,2,9,2,1,C,7,L,7,L,10,0.826632,0.328285,0.271371
10,101,1,8,9,1,1,I,7,L,8,L,12,0.528346,0.754464,0.398618
10,102,2,9,9,1,1,I,7,L,8,L,13,0.535912,0.777723,0.416791
10,103,1,2,9,1,1,I,1,S,8,L,15,0.597681,0.756011,0.451853
10,104,1,8,8,9,1,C,7,L,1,S,10,0.335198,0.822809,0.275804
10,105,1,2,9,2,1,I,1,S,7,L,14,0.559204,0.756239,0.422892
10,106,9,8,8,9,1,I,1,S,1,S,17,0.752866,0.570551,0.429549
10,107,9,8,9,8,1,C,1,S,1,S,14,0.788791,0.438137,0.345599
10,108,1,9,1,9,1,C,8,L,8,L,8,0.298918,0.759339,0.22698
10,109,1,9,2,8,1,C,8,L,6,S,9,0.315234,0.793698,0.250201
10,110,2,9,8,2,1,I,7,L,6,S,13,0.555285,0.762554,0.423434
10,111,9,1,9,2,1,C,8,L,7,L,9,0.809542,0.306219,0.247897
10,112,1,9,8,9,1,C,8,L,1,S,10,0.322818,0.835142,0.269599
10,113,2,1,8,9,1,I,1,S,1,S,18,0.766563,0.57425,0.440199
10,114,8,1,9,2,1,C,7,L,7,L,9,0.773375,0.331894,0.256678
10,115,8,2,9,2,1,C,6,S,7,L,10,0.764149,0.375914,0.287255
10,116,8,2,1,9,1,I,6,S,8,L,18,0.766846,0.636605,0.488178
10,117,2,8,8,2,1,I,6,S,6,S,14,0.566098,0.782177,0.442789
10,118,8,9,1,8,1,C,1,S,7,L,11,0.384769,0.786289,0.30254
10,119,9,2,8,2,1,C,7,L,6,S,9,0.787322,0.324429,0.255431
10,120,2,9,1,8,1,C,7,L,7,L,9,0.328412,0.778232,0.25558
10,121,2,1,2,1,1,C,1,S,1,S,12,0.78807,0.403383,0.317894
10,122,9,2,9,8,1,C,7,L,1,S,11,0.793628,0.388302,0.308167
10,123,1,9,2,1,1,I,8,L,1,S,11,0.419641,0.791559,0.332171
10,124,8,1,9,8,1,C,7,L,1,S,10,0.771455,0.376755,0.29065
10,125,8,1,8,1,1,C,7,L,7,L,9,0.849468,0.277004,0.235306
10,126,1,8,1,9,1,C,7,L,8,L,8,0.309166,0.7503,0.231968
10,127,8,9,1,2,1,C,1,S,1,S,14,0.429709,0.794716,0.341497
10,128,9,1,1,2,1,I,8,L,1,S,10,0.803792,0.355826,0.28601
10,129,2,9,2,9,1,C,7,L,7,L,9,0.28001,0.842199,0.235824
10,130,8,2,8,2,1,C,6,S,6,S,10,0.823585,0.332601,0.273925
10,131,2,1,1,2,1,I,1,S,1,S,15,0.791456,0.450361,0.356441
10,132,2,9,1,2,1,C,7,L,1,S,10,0.373801,0.774575,0.289537
10,133,2,8,2,9,1,C,6,S,7,L,9,0.293199,0.829326,0.243158
10,134,8,2,9,8,1,C,6,S,1,S,12,0.776942,0.420018,0.32633
10,135,2,1,8,2,1,C,1,S,6,S,10,0.76732,0.378799,0.29066
10,136,9,2,1,9,1,I,7,L,8,L,15,0.759817,0.608284,0.462184
10,137,9,8,9,2,1,C,1,S,7,L,11,0.779224,0.39505,0.307832
10,138,1,8,2,1,1,I,7,L,1,S,11,0.43242,0.778656,0.336707
10,139,1,2,8,9,1,C,1,S,1,S,11,0.367696,0.811504,0.298386
10,140,8,1,1,8,1,I,7,L,7,L,12,0.767941,0.495204,0.380288
10,141,8,9,8,9,1,C,1,S,1,S,12,0.421096,0.762103,0.320919
10,142,8,2,8,9,1,I,6,S,1,S,14,0.780423,0.490441,0.382751
10,143,1,8,2,8,1,C,7,L,6,S,9,0.32677,0.78267,0.255753
10,144,9,8,1,8,1,I,1,S,7,L,20,0.761641,0.637388,0.485461
11,1,2,8,8,1,1,I,6,S,7,L,11,0.465203,0.761308,0.354163
11,2,1,8,2,1,1,I,7,L,1,S,9,0.333154,0.783084,0.260888
11,3,8,9,8,9,0,C,1,S,1,S,20,0.757145,0.617684,0.467676
11,4,9,2,1,9,1,I,7,L,8,L,11,0.782134,0.472011,0.369176
11,5,2,9,1,9,1,C,7,L,8,L,9,0.336635,0.775213,0.260964
11,6,2,1,9,1,1,C,1,S,8,L,10,0.771541,0.37896,0.292383
11,7,1,9,1,2,1,C,8,L,1,S,10,0.390735,0.769316,0.300599
11,8,1,2,2,8,1,C,1,S,6,S,10,0.373023,0.776429,0.289626
11,9,1,9,8,1,1,I,8,L,7,L,12,0.478556,0.793693,0.379826
11,10,2,9,9,1,1,I,7,L,8,L,15,0.592907,0.778171,0.461383
11,11,1,8,8,2,1,I,7,L,6,S,11,0.461448,0.784266,0.361898
11,12,2,1,2,8,0,I,1,S,6,S,13,0.487122,0.76351,0.371923
11,13,8,9,1,2,0,C,1,S,1,S,14,0.778148,0.443081,0.344783
11,14,2,8,1,8,1,C,6,S,7,L,9,0.291141,0.833719,0.24273
11,15,8,9,8,2,0,I,1,S,6,S,11,0.774475,0.401387,0.310864
11,16,8,1,1,8,1,I,7,L,7,L,13,0.780013,0.536121,0.418181
11,17,9,1,1,2,1,I,8,L,1,S,9,0.788778,0.332159,0.262
11,18,1,8,9,8,1,I,7,L,1,S,10,0.421523,0.761853,0.321138
11,19,9,8,9,2,1,C,1,S,7,L,9,0.759195,0.348225,0.26437
11,20,1,9,2,9,1,C,8,L,7,L,9,0.298217,0.828005,0.246925
11,21,8,2,9,1,1,C,6,S,8,L,9,0.82823,0.292003,0.241846
11,22,1,2,8,2,1,I,1,S,6,S,19,0.636632,0.759509,0.483528
11,23,1,8,8,9,1,C,7,L,1,S,9,0.330315,0.789105,0.260654
11,24,8,9,1,9,1,C,1,S,8,L,13,0.490581,0.756577,0.371162
11,25,8,9,2,1,0,I,1,S,1,S,20,0.770447,0.599203,0.461654
11,26,2,1,9,2,1,C,1,S,7,L,10,0.782804,0.370717,0.290198
11,27,1,9,1,8,1,C,8,L,7,L,9,0.302718,0.823395,0.249257
11,28,8,2,9,2,1,C,6,S,7,L,9,0.838849,0.284311,0.238494
11,29,9,8,8,2,1,C,1,S,6,S,10,0.778036,0.365992,0.284755
11,30,9,8,2,9,1,I,1,S,7,L,17,0.751912,0.629831,0.473577
11,31,2,1,2,1,1,C,1,S,1,S,19,0.759316,0.595964,0.452524
11,32,9,1,8,9,1,I,8,L,1,S,10,0.816539,0.364927,0.297977
11,33,8,1,8,2,1,C,7,L,6,S,9,0.792339,0.318512,0.252369
11,34,9,1,9,2,1,C,8,L,7,L,8,0.810913,0.264112,0.214172
11,35,2,1,2,9,0,I,1,S,7,L,13,0.490707,0.75915,0.37252
11,36,8,1,2,8,1,I,7,L,6,S,13,0.771519,0.54558,0.420925
11,37,1,8,9,2,1,I,7,L,7,L,12,0.5341,0.774468,0.413643
11,38,8,1,1,2,1,I,7,L,1,S,10,0.788991,0.36232,0.285868
11,39,9,2,1,2,1,I,7,L,1,S,9,0.778741,0.338791,0.26383
11,40,8,1,1,9,1,I,7,L,8,L,13,0.784149,0.531057,0.416428
11,41,1,2,9,1,1,I,1,S,8,L,20,0.656868,0.757874,0.497823
11,42,2,8,9,1,1,I,6,S,8,L,13,0.5503,0.779866,0.42916
11,43,8,2,1,2,1,I,6,S,1,S,10,0.772481,0.373791,0.288746
11,44,9,2,1,8,1,I,7,L,7,L,11,0.778094,0.477106,0.371233
11,45,9,8,1,9,1,I,1,S,8,L,17,0.759182,0.622427,0.472535
11,46,2,9,2,8,1,C,7,L,6,S,9,0.325608,0.787957,0.256565
11,47,8,2,8,9,1,I,6,S,1,S,11,0.77045,0.428039,0.329782
11,48,9,8,2,1,1,C,1,S,1,S,14,0.775227,0.494933,0.383686
11,49,8,2,2,9,1,I,6,S,7,L,13,0.756274,0.554867,0.419631
11,50,8,2,8,2,1,C,6,S,6,S,9,0.778123,0.328438,0.255565
11,51,1,9,9,2,1,I,8,L,7,L,13,0.573491,0.75994,0.435819
11,52,2,8,8,9,1,C,6,S,1,S,9,0.353537,0.753781,0.26649
11,53,1,9,9,8,1,I,8,L,1,S,11,0.46038,0.762136,0.350873
11,54,2,8,1,2,1,C,6,S,1,S,10,0.378359,0.780899,0.29546
11,55,9,2,8,9,1,I,7,L,1,S,10,0.805823,0.372139,0.299878
11,56,9,2,8,2,1,C,7,L,6,S,8,0.750835,0.307674,0.231013
11,57,8,9,8,1,0,I,1,S,7,L,11,0.750447,0.419316,0.314674
11,58,8,9,9,1,0,I,1,S,8,L,10,0.767822,0.382324,0.293557
11,59,2,9,8,9,1,C,7,L,1,S,10,0.369493,0.779103,0.287873
11,60,1,8,1,8,1,C,7,L,7,L,8,0.305242,0.758196,0.231433
11,61,1,8,2,8,1,C,7,L,6,S,8,0.298569,0.765269,0.228485
11,62,2,8,2,1,1,I,6,S,1,S,10,0.325763,0.834273,0.271775
11,63,9,1,9,8,1,C,8,L,1,S,9,0.839375,0.288327,0.242015
11,64,1,2,2,9,1,C,1,S,7,L,10,0.376408,0.77215,0.290643
11,65,8,2,1,8,1,I,6,S,7,L,13,0.761183,0.549767,0.418474
11,66,2,1,9,8,1,C,1,S,1,S,12,0.801325,0.398688,0.319479
11,67,8,2,8,1,1,C,6,S,7,L,9,0.760417,0.342089,0.26013
11,68,8,9,9,8,0,I,1,S,1,S,12,0.794338,0.404668,0.321443
11,69,8,1,8,9,1,I,7,L,1,S,11,0.78848,0.415429,0.327557
11,70,2,1,1,8,0,I,1,S,7,L,13,0.495616,0.754051,0.37372
11,71,9,1,2,1,1,C,8,L,1,S,9,0.751105,0.369553,0.277573
11,72,1,8,1,2,1,C,7,L,1,S,10,0.352394,0.819885,0.288922
11,73,2,8,9,2,1,I,6,S,7,L,13,0.56117,0.771409,0.432892
11,74,9,2,2,9,1,I,7,L,7,L,11,0.773088,0.482443,0.372971
11,75,8,2,2,8,1,I,6,S,6,S,13,0.752689,0.559227,0.420924
11,76,9,2,9,2,1,C,7,L,7,L,8,0.80205,0.269916,0.216486
11,77,8,1,2,9,1,I,7,L,7,L,13,0.775104,0.54122,0.419501
11,78,1,9,8,9,1,C,8,L,1,S,10,0.333795,0.830731,0.277294
11,79,1,8,2,9,1,C,7,L,7,L,8,0.301256,0.762016,0.229562
11,80,8,2,9,8,1,C,6,S,1,S,10,0.84161,0.315759,0.265746
11,81,1,9,9,1,1,I,8,L,8,L,13,0.562621,0.768396,0.432316
11,82,1,9,1,9,1,C,8,L,8,L,9,0.30615,0.819132,0.250777
11,83,9,2,2,8,1,I,7,L,6,S,11,0.769534,0.486914,0.374697
11,84,9,2,8,1,1,C,7,L,7,L,9,0.841272,0.285772,0.240412
11,85,9,1,2,9,1,I,8,L,7,L,11,0.78405,0.474892,0.372339
11,86,9,1,2,8,1,I,8,L,6,S,11,0.780497,0.479363,0.374141
11,87,2,1,8,1,1,C,1,S,7,L,11,0.755608,0.414763,0.313398
11,88,2,9,1,8,1,C,7,L,7,L,9,0.333203,0.779476,0.259724
11,89,2,8,2,9,1,C,6,S,7,L,9,0.28664,0.838329,0.240299
11,90,8,1,9,2,1,C,7,L,7,L,9,0.853064,0.274385,0.234068
11,91,2,9,8,2,1,I,7,L,6,S,13,0.546938,0.753057,0.411876
11,92,8,1,9,1,1,C,7,L,8,L,9,0.842445,0.282076,0.237634
11,93,1,8,8,1,1,I,7,L,7,L,10,0.436499,0.750636,0.327652
11,94,2,8,9,8,1,I,6,S,1,S,11,0.447655,0.774254,0.346599
11,95,9,1,8,1,1,C,8,L,7,L,9,0.851309,0.27914,0.237634
11,96,1,2,8,9,1,C,1,S,1,S,12,0.405965,0.79185,0.321463
11,97,9,1,8,2,1,C,8,L,6,S,8,0.759698,0.301871,0.229331
11,98,2,8,8,2,1,I,6,S,6,S,12,0.491449,0.786549,0.386549
11,99,1,8,9,1,1,I,7,L,8,L,12,0.522828,0.783049,0.4094
11,100,1,2,1,8,1,C,1,S,7,L,10,0.381248,0.76703,0.292429
11,101,2,8,2,8,1,C,6,S,6,S,9,0.283545,0.8422,0.238802
11,102,9,1,1,9,1,I,8,L,8,L,11,0.793096,0.46446,0.368361
11,103,2,9,9,8,1,I,7,L,1,S,13,0.500617,0.787908,0.39444
11,104,2,1,8,2,1,C,1,S,6,S,11,0.779636,0.396834,0.309386
11,105,8,1,9,8,1,C,7,L,1,S,9,0.762699,0.341349,0.260347
11,106,9,8,1,2,1,I,1,S,1,S,12,0.794683,0.403445,0.32061
11,107,1,9,8,2,1,I,8,L,6,S,12,0.50413,0.774522,0.39046
11,108,8,9,2,9,1,C,1,S,7,L,13,0.481535,0.76674,0.369212
11,109,2,9,8,1,1,I,7,L,7,L,13,0.520879,0.772857,0.402565
11,110,9,8,2,8,1,I,1,S,6,S,18,0.779725,0.618456,0.482226
11,111,8,9,2,8,1,C,1,S,6,S,13,0.477951,0.7711,0.368548
11,112,9,8,9,1,1,C,1,S,8,L,10,0.834042,0.325341,0.271348
11,113,1,2,8,1,1,I,1,S,7,L,19,0.618044,0.775327,0.479186
11,114,9,2,9,8,1,C,7,L,1,S,9,0.829338,0.294959,0.244621
11,115,2,1,1,9,0,I,1,S,8,L,14,0.513219,0.762035,0.391091
11,116,1,2,1,9,1,C,1,S,8,L,10,0.385054,0.762226,0.293498
11,117,1,9,2,8,1,C,8,L,6,S,9,0.295123,0.831876,0.245506
11,118,8,9,9,2,0,I,1,S,7,L,10,0.779085,0.374081,0.29144
11,119,2,9,2,1,1,I,7,L,1,S,10,0.373837,0.771062,0.288251
11,120,9,8,1,8,1,I,1,S,7,L,17,0.755727,0.62632,0.473327
11,121,8,2,1,9,1,I,6,S,8,L,13,0.76532,0.544704,0.416873
11,122,9,1,9,1,1,C,8,L,8,L,8,0.801487,0.270962,0.217172
11,123,2,9,1,2,1,C,7,L,1,S,11,0.409732,0.778814,0.319105
11,124,9,1,1,8,1,I,8,L,7,L,11,0.789056,0.469555,0.370505
11,125,2,8,1,9,1,C,6,S,8,L,9,0.294572,0.829456,0.244335
11,126,1,2,2,1,1,I,1,S,1,S,12,0.413953,0.778661,0.322329
11,127,2,9,2,9,1,C,7,L,7,L,9,0.328702,0.784086,0.257731
11,128,9,8,8,1,1,C,1,S,7,L,10,0.756694,0.382052,0.289096
11,129,1,2,9,8,1,I,1,S,1,S,18,0.615631,0.758517,0.466967
11,130,1,2,9,2,0,I,1,S,7,L,13,0.750559,0.522024,0.39181
11,131,9,8,9,8,1,C,1,S,1,S,11,0.82133,0.358776,0.294673
11,132,1,9,2,1,1,I,8,L,1,S,10,0.338139,0.822691,0.278184
11,133,8,1,2,1,1,C,7,L,1,S,11,0.794585,0.404941,0.32176
11,134,2,1,1,2,1,I,1,S,1,S,14,0.789721,0.433816,0.342594
11,135,8,1,8,1,1,C,7,L,7,L,9,0.774632,0.332162,0.257303
11,136,8,9,1,8,1,C,1,S,7,L,13,0.486445,0.76164,0.370496
11,137,9,2,2,1,1,C,7,L,1,S,10,0.810167,0.364098,0.29498
11,138,8,2,2,1,1,C,6,S,1,S,11,0.776555,0.417552,0.324252
11,139,1,2,1,2,1,C,1,S,1,S,14,0.486918,0.754636,0.367446
11,140,2,1,8,9,1,I,1,S,1,S,20,0.774558,0.603944,0.467789
11,141,9,8,8,9,1,I,1,S,1,S,14,0.763845,0.512965,0.391826
11,142,1,8,1,9,1,C,7,L,8,L,8,0.308172,0.754694,0.232575
11,143,9,2,9,1,1,C,7,L,8,L,8,0.792624,0.276765,0.219371
11,144,2,9,9,2,1,I,7,L,7,L,15,0.602623,0.770318,0.464211
12,1,1,9,9,2,1,I,8,L,7,L,10,0.423971,0.760828,0.322569
12,2,8,1,9,1,1,C,7,L,8,L,9,0.762517,0.341056,0.260061
12,3,2,9,2,1,1,I,7,L,1,S,10,0.396031,0.759405,0.300748
12,4,1,8,1,2,1,C,7,L,1,S,9,0.286218,0.83824,0.23992
12,5,2,8,2,9,1,C,6,S,7,L,10,0.333699,0.81852,0.273139
12,6,9,2,2,9,1,I,7,L,7,L,10,0.772896,0.405348,0.313292
12,7,1,8,2,9,1,C,7,L,7,L,9,0.321681,0.791248,0.25453
12,8,8,1,8,1,1,C,7,L,7,L,9,0.751314,0.351142,0.263818
12,9,2,9,1,8,1,C,7,L,7,L,9,0.276194,0.852769,0.23553
12,10,8,9,1,9,1,C,1,S,8,L,9,0.341686,0.766502,0.261903
12,11,2,1,8,1,1,C,1,S,7,L,11,0.797675,0.376738,0.300514
12,12,2,9,2,9,1,C,7,L,7,L,9,0.340041,0.765338,0.260246
12,13,1,9,1,9,1,C,8,L,8,L,8,0.277241,0.79138,0.219403
12,14,1,2,8,2,0,I,1,S,6,S,13,0.750515,0.468403,0.351543
12,15,9,1,2,9,1,I,8,L,7,L,10,0.757257,0.415937,0.314971
12,16,9,1,8,9,1,I,8,L,1,S,10,0.808085,0.356222,0.287858
12,17,2,8,2,8,1,C,6,S,6,S,10,0.339217,0.812973,0.275774
12,18,2,1,1,2,1,I,1,S,1,S,18,0.760644,0.626793,0.476766
12,19,1,2,1,2,1,C,1,S,1,S,12,0.412985,0.795548,0.328549
12,20,9,8,1,8,1,I,1,S,7,L,20,0.776078,0.638892,0.49583
12,21,8,1,9,2,1,C,7,L,7,L,9,0.759035,0.343659,0.260849
12,22,9,1,9,2,1,C,8,L,7,L,9,0.817002,0.29987,0.244994
12,23,8,9,9,8,1,I,1,S,1,S,12,0.432205,0.77193,0.333632
12,24,9,8,8,1,1,C,1,S,7,L,11,0.785922,0.385487,0.302963
12,25,1,8,1,8,1,C,7,L,7,L,8,0.296084,0.766411,0.226922
12,26,2,9,8,1,1,I,7,L,7,L,11,0.456859,0.761494,0.347896
12,27,1,8,8,2,1,I,7,L,6,S,11,0.429107,0.796438,0.341757
12,28,8,2,2,8,1,I,6,S,6,S,11,0.771827,0.441846,0.341028
12,29,1,8,2,8,1,C,7,L,6,S,9,0.326253,0.787071,0.256785
12,30,1,9,2,8,1,C,8,L,6,S,9,0.306682,0.814561,0.249811
12,31,9,1,9,1,1,C,8,L,8,L,9,0.820484,0.297267,0.243903
12,32,8,2,8,2,1,C,6,S,6,S,9,0.766372,0.340852,0.261219
12,33,9,2,2,1,1,C,7,L,1,S,9,0.779234,0.334731,0.260834
12,34,1,8,9,2,1,I,7,L,7,L,11,0.446334,0.782246,0.349143
12,35,8,1,2,1,1,C,7,L,1,S,10,0.784835,0.363864,0.285574
12,36,9,8,8,9,1,I,1,S,1,S,14,0.770469,0.471822,0.363524
12,37,1,9,1,8,1,C,8,L,7,L,8,0.279105,0.790062,0.220511
12,38,9,2,9,8,1,C,7,L,1,S,9,0.769318,0.343721,0.26443
12,39,2,1,2,8,1,I,1,S,6,S,16,0.756122,0.577878,0.436946
12,40,8,9,2,1,1,I,1,S,1,S,13,0.445541,0.795676,0.354506
12,41,8,2,1,9,1,I,6,S,8,L,13,0.762658,0.563844,0.43002
12,42,9,8,2,1,1,C,1,S,1,S,12,0.768989,0.418959,0.322175
12,43,9,1,8,1,1,C,8,L,7,L,9,0.809281,0.307353,0.248735
12,44,2,8,9,1,1,I,6,S,8,L,13,0.508869,0.784119,0.399014
12,45,8,1,8,9,1,I,7,L,1,S,11,0.806572,0.386747,0.311939
12,46,8,1,8,2,1,C,7,L,6,S,10,0.840211,0.318808,0.267866
12,47,1,2,1,8,1,C,1,S,7,L,11,0.396208,0.793023,0.314202
12,48,1,9,8,2,1,I,8,L,6,S,10,0.409415,0.773268,0.316588
12,49,1,9,9,8,1,I,8,L,1,S,9,0.360131,0.755115,0.271941
12,50,1,9,2,9,1,C,8,L,7,L,9,0.30211,0.818738,0.247349
12,51,9,2,1,2,1,I,7,L,1,S,11,0.779616,0.467163,0.364207
12,52,2,9,1,2,1,C,7,L,1,S,9,0.304577,0.81233,0.247417
12,53,1,8,1,9,1,C,7,L,8,L,8,0.29422,0.767729,0.225881
12,54,8,1,2,9,1,I,7,L,7,L,12,0.787615,0.46385,0.365336
12,55,2,8,1,2,1,C,6,S,1,S,9,0.33107,0.77647,0.257066
12,56,8,2,9,1,1,C,6,S,8,L,9,0.781293,0.327888,0.256177
12,57,9,2,8,9,1,I,7,L,1,S,10,0.823724,0.345633,0.284706
12,58,2,9,9,1,1,I,7,L,8,L,12,0.474042,0.792391,0.375627
12,59,8,1,1,8,1,I,7,L,7,L,14,0.775647,0.575488,0.446376
12,60,8,9,1,8,1,C,1,S,7,L,9,0.343645,0.765029,0.262899
12,61,2,8,1,8,1,C,6,S,7,L,9,0.302687,0.816909,0.247268
12,62,2,8,8,1,1,I,6,S,7,L,12,0.491104,0.759478,0.372983
12,63,1,9,9,1,1,I,8,L,8,L,10,0.428281,0.75768,0.3245
12,64,8,2,8,1,1,C,6,S,7,L,9,0.770091,0.337974,0.260271
12,65,2,1,8,9,1,I,1,S,1,S,14,0.789688,0.457975,0.361657
12,66,2,9,1,9,1,C,7,L,8,L,9,0.274235,0.854242,0.234263
12,67,2,1,1,9,1,I,1,S,8,L,19,0.763393,0.643502,0.491244
12,68,9,1,8,2,1,C,8,L,6,S,9,0.805563,0.310231,0.24991
12,69,9,8,9,8,1,C,1,S,1,S,13,0.801732,0.411058,0.329559
12,70,8,2,9,2,1,C,6,S,7,L,9,0.777812,0.330491,0.257059
12,71,9,1,1,2,1,I,8,L,1,S,11,0.763443,0.478342,0.365187
12,72,1,8,9,8,1,I,7,L,1,S,10,0.361414,0.801055,0.289513
12,73,2,1,9,2,1,C,1,S,7,L,11,0.80919,0.366758,0.296777
12,74,2,9,8,2,1,I,7,L,6,S,11,0.451147,0.765707,0.345447
12,75,2,8,9,2,1,I,6,S,7,L,13,0.503216,0.78826,0.396665
12,76,2,1,2,1,1,C,1,S,1,S,12,0.783625,0.408252,0.319916
12,77,9,2,1,9,1,I,7,L,8,L,12,0.786254,0.517616,0.406978
12,78,1,9,2,1,1,I,8,L,1,S,10,0.354039,0.818324,0.289719
12,79,9,2,9,1,1,C,7,L,8,L,9,0.834915,0.287632,0.240148
12,80,8,9,8,1,1,I,1,S,7,L,15,0.551039,0.780438,0.430051
12,81,8,1,1,9,1,I,7,L,8,L,14,0.774042,0.576526,0.446255
12,82,9,2,8,1,1,C,7,L,7,L,9,0.823712,0.297718,0.245234
12,83,1,2,2,1,0,I,1,S,1,S,18,0.764428,0.506943,0.387522
12,84,2,8,8,2,1,I,6,S,6,S,12,0.484673,0.764189,0.370382
12,85,8,9,8,9,1,C,1,S,1,S,11,0.41137,0.757944,0.311795
12,86,2,8,1,9,1,C,6,S,8,L,9,0.300728,0.818382,0.246111
12,87,9,1,2,1,1,C,8,L,1,S,9,0.764803,0.344366,0.263372
12,88,1,2,9,8,1,I,1,S,1,S,28,0.640802,0.756592,0.484825
12,89,2,9,9,2,1,I,7,L,7,L,11,0.468374,0.751515,0.35199
12,90,1,8,9,1,1,I,7,L,8,L,11,0.45132,0.778643,0.351417
12,91,2,9,8,9,1,C,7,L,1,S,10,0.354037,0.800613,0.283447
12,92,9,1,1,8,1,I,8,L,7,L,12,0.771942,0.527699,0.407353
12,93,1,8,2,1,1,I,7,L,1,S,10,0.375461,0.788424,0.296022
12,94,8,2,1,2,1,I,6,S,1,S,12,0.760343,0.516778,0.392929
12,95,1,2,8,9,1,C,1,S,1,S,17,0.4619,0.786862,0.363452
12,96,9,1,9,8,1,C,8,L,1,S,9,0.754887,0.353356,0.266743
12,97,2,9,2,8,1,C,7,L,6,S,9,0.344612,0.761161,0.262305
12,98,9,2,2,8,1,I,7,L,6,S,10,0.778414,0.399801,0.31121
12,99,1,2,2,8,1,C,1,S,6,S,13,0.453881,0.761272,0.345527
12,100,8,1,1,2,1,I,7,L,1,S,13,0.77454,0.534084,0.413669
12,101,1,2,9,2,0,I,1,S,7,L,13,0.770592,0.452159,0.34843
12,102,1,9,1,2,1,C,8,L,1,S,8,0.30334,0.755859,0.229282
12,103,8,1,2,8,1,I,7,L,6,S,12,0.794618,0.45602,0.362362
12,104,1,2,1,9,1,C,1,S,8,L,11,0.394266,0.794494,0.313242
12,105,8,2,9,8,1,C,6,S,1,S,10,0.792482,0.361341,0.286357
12,106,1,2,9,1,0,I,1,S,8,L,13,0.776246,0.448018,0.347772
12,107,8,9,9,2,1,I,1,S,7,L,15,0.563819,0.769322,0.433759
12,108,9,8,9,1,1,C,1,S,8,L,11,0.802423,0.371904,0.298425
12,109,2,8,9,8,1,I,6,S,1,S,11,0.393243,0.794037,0.31225
12,110,9,2,1,8,1,I,7,L,7,L,12,0.788112,0.516255,0.406866
12,111,8,9,2,8,1,C,1,S,6,S,11,0.353053,0.829638,0.292906
12,112,1,2,2,9,1,C,1,S,7,L,13,0.446465,0.769714,0.34365
12,113,9,8,2,9,1,I,1,S,7,L,17,0.758961,0.593456,0.45041
12,114,9,8,9,2,1,C,1,S,7,L,11,0.797437,0.375508,0.299444
12,115,8,2,8,9,1,I,6,S,1,S,10,0.764535,0.389918,0.298106
12,116,2,1,8,2,1,C,1,S,6,S,11,0.791963,0.38095,0.301698
12,117,8,9,1,2,1,C,1,S,1,S,10,0.341135,0.810778,0.276585
12,118,9,8,1,2,1,I,1,S,1,S,19,0.771685,0.625914,0.483008
12,119,2,9,9,8,1,I,7,L,1,S,10,0.381985,0.772036,0.294906
12,120,9,8,2,8,1,I,1,S,6,S,17,0.766002,0.585855,0.448766
12,121,1,2,8,1,0,I,1,S,7,L,13,0.757376,0.463351,0.350931
12,122,8,2,1,8,1,I,6,S,7,L,13,0.764399,0.562634,0.430077
12,123,8,1,9,8,1,C,7,L,1,S,10,0.770789,0.376496,0.290199
12,124,9,1,1,9,1,I,8,L,8,L,12,0.770084,0.52906,0.407421
12,125,2,1,9,8,1,C,1,S,1,S,12,0.757043,0.431267,0.326487
12,126,9,8,1,9,1,I,1,S,8,L,20,0.775322,0.638935,0.495381
12,127,2,1,2,9,1,I,1,S,7,L,17,0.779527,0.578053,0.450608
12,128,8,2,2,1,1,C,6,S,1,S,10,0.806529,0.34871,0.281245
12,129,2,8,2,1,1,I,6,S,1,S,11,0.412761,0.776757,0.320615
12,130,2,8,8,9,1,C,6,S,1,S,10,0.384527,0.758805,0.291781
12,131,2,1,9,1,1,C,1,S,8,L,11,0.814176,0.363155,0.295672
12,132,9,2,9,2,1,C,7,L,7,L,9,0.831433,0.290235,0.241311
12,133,8,9,2,9,1,C,1,S,7,L,10,0.38338,0.753582,0.288908
12,134,8,9,8,2,1,I,1,S,6,S,14,0.547964,0.752163,0.412158
12,135,1,9,8,9,1,C,8,L,1,S,9,0.340455,0.775255,0.263939
12,136,8,2,2,9,1,I,6,S,7,L,11,0.765471,0.448674,0.343447
12,137,1,9,8,1,1,I,8,L,7,L,10,0.41418,0.769686,0.318788
12,138,9,8,8,2,1,C,1,S,6,S,11,0.78021,0.3897,0.304048
12,139,1,8,8,1,1,I,7,L,7,L,11,0.434819,0.792226,0.344475
12,140,1,8,8,9,1,C,7,L,1,S,10,0.333467,0.829632,0.276655
12,141,8,9,9,1,1,I,1,S,8,L,15,0.569345,0.765117,0.435615
12,142,9,2,8,2,1,C,7,L,6,S,9,0.819994,0.300596,0.246487
12,143,2,1,1,8,1,I,1,S,7,L,19,0.764274,0.643318,0.491672
12,144,9,1,2,8,1,I,8,L,6,S,10,0.762775,0.41039,0.313035
13,1,9,1,1,8,1,I,8,L,7,L,11,0.753869,0.485637,0.366106
13,2,2,1,1,9,0,I,1,S,8,L,14,0.515896,0.761256,0.392729
13,3,9,1,2,1,1,C,8,L,1,S,9,0.838148,0.284541,0.238487
13,4,2,8,9,8,1,I,6,S,1,S,10,0.393134,0.771017,0.303113
13,5,2,9,2,9,1,C,7,L,7,L,9,0.321572,0.792837,0.254954
13,6,1,9,1,8,1,C,8,L,7,L,9,0.286569,0.832719,0.238632
13,7,8,9,1,2,1,C,1,S,1,S,13,0.430307,0.773284,0.332749
13,8,2,1,2,9,1,I,1,S,7,L,21,0.752758,0.652768,0.491376
13,9,9,1,9,2,1,C,8,L,7,L,9,0.850063,0.277624,0.235998
13,10,2,9,8,2,1,I,7,L,6,S,12,0.512981,0.766108,0.392999
13,11,1,2,1,2,1,C,1,S,1,S,11,0.360423,0.818595,0.295041
13,12,9,8,1,9,0,I,1,S,8,L,11,0.397715,0.780228,0.310308
13,13,2,9,9,2,1,I,7,L,7,L,12,0.529358,0.752891,0.398549
13,14,8,1,2,1,1,C,7,L,1,S,9,0.798444,0.310894,0.248231
13,15,2,8,1,9,1,C,6,S,8,L,9,0.279997,0.846898,0.237129
13,16,9,1,9,1,1,C,8,L,8,L,8,0.78456,0.281319,0.220711
13,17,2,9,1,2,1,C,7,L,1,S,10,0.344687,0.812723,0.280135
13,18,1,2,8,2,1,I,1,S,6,S,14,0.570516,0.754364,0.430377
13,19,8,9,9,8,1,I,1,S,1,S,19,0.6011,0.750812,0.451313
13,20,2,1,8,1,1,C,1,S,7,L,10,0.78494,0.370518,0.290834
13,21,8,2,9,1,1,C,6,S,8,L,9,0.776217,0.332724,0.258266
13,22,1,9,1,9,1,C,8,L,8,L,9,0.279722,0.843579,0.235968
13,23,2,1,9,8,1,C,1,S,1,S,13,0.800285,0.412265,0.32993
13,24,8,9,8,9,1,C,1,S,1,S,14,0.461393,0.755119,0.348407
13,25,1,2,1,9,1,C,1,S,8,L,9,0.340796,0.761215,0.259419
13,26,1,9,1,2,1,C,8,L,1,S,9,0.351587,0.752972,0.264735
13,27,8,9,2,8,1,C,1,S,6,S,11,0.412558,0.752386,0.310403
13,28,8,1,1,9,1,I,7,L,8,L,13,0.777593,0.534831,0.415881
13,29,8,1,9,1,1,C,7,L,8,L,8,0.751618,0.303238,0.227919
13,30,1,2,8,9,1,C,1,S,1,S,11,0.393914,0.783335,0.308566
13,31,9,2,8,2,1,C,7,L,6,S,9,0.766353,0.341226,0.261499
13,32,9,1,2,8,1,I,8,L,6,S,11,0.782781,0.446706,0.349673
13,33,8,1,9,2,1,C,7,L,7,L,9,0.810359,0.303978,0.246331
13,34,1,2,8,1,1,I,1,S,7,L,16,0.609495,0.774535,0.472075
13,35,1,2,2,1,1,I,1,S,1,S,14,0.570908,0.751464,0.429017
13,36,2,8,1,8,1,C,6,S,7,L,9,0.286845,0.836038,0.239813
13,37,8,1,8,9,1,I,7,L,1,S,10,0.766256,0.383317,0.293719
13,38,9,8,1,8,0,I,1,S,7,L,11,0.406349,0.766986,0.311664
13,39,9,1,8,2,1,C,8,L,6,S,9,0.837029,0.288338,0.241348
13,40,2,1,2,8,1,I,1,S,6,S,21,0.762943,0.639882,0.488194
13,41,2,1,9,1,1,C,1,S,8,L,10,0.793014,0.363821,0.288515
13,42,1,2,2,9,1,C,1,S,7,L,10,0.327631,0.824312,0.27007
13,43,1,8,9,1,1,I,7,L,8,L,12,0.539079,0.76448,0.412115
13,44,1,8,8,9,1,C,7,L,1,S,9,0.351962,0.758312,0.266897
13,45,1,9,2,1,1,I,8,L,1,S,12,0.489725,0.789998,0.386881
13,46,1,8,8,1,1,I,7,L,7,L,12,0.531259,0.771189,0.409701
13,47,9,8,8,9,0,I,1,S,1,S,16,0.455115,0.782363,0.356065
13,48,9,2,1,2,1,I,7,L,1,S,11,0.761184,0.428074,0.325843
13,49,9,1,8,9,1,I,8,L,1,S,10,0.810904,0.35345,0.286614
13,50,8,2,8,9,1,I,6,S,1,S,12,0.771866,0.428504,0.330747
13,51,1,2,1,8,1,C,1,S,7,L,9,0.347643,0.750355,0.260856
13,52,1,8,2,8,1,C,7,L,6,S,9,0.291383,0.826041,0.240694
13,53,1,2,9,2,1,I,1,S,7,L,15,0.579795,0.774761,0.449202
13,54,2,9,8,1,1,I,7,L,7,L,13,0.574069,0.756766,0.434436
13,55,2,9,1,9,1,C,7,L,8,L,9,0.300814,0.820401,0.246788
13,56,2,9,2,1,1,I,7,L,1,S,12,0.514026,0.762568,0.39198
13,57,2,9,9,8,1,I,7,L,1,S,11,0.405347,0.799827,0.324208
13,58,8,2,9,2,1,C,6,S,7,L,10,0.812947,0.33821,0.274947
13,59,1,9,8,9,1,C,8,L,1,S,10,0.346609,0.81353,0.281977
13,60,1,8,1,8,1,C,7,L,7,L,9,0.268866,0.855543,0.230027
13,61,8,1,1,2,1,I,7,L,1,S,11,0.801272,0.395406,0.316828
13,62,9,8,9,1,1,C,1,S,8,L,11,0.775437,0.416438,0.322921
13,63,9,2,9,2,1,C,7,L,7,L,9,0.779387,0.330511,0.257596
13,64,2,1,1,2,1,I,1,S,1,S,18,0.75813,0.576511,0.43707
13,65,9,1,1,9,1,I,8,L,8,L,12,0.787919,0.501287,0.394973
13,66,8,2,2,8,1,I,6,S,6,S,15,0.753104,0.575459,0.433381
13,67,8,9,8,2,0,I,1,S,6,S,15,0.752659,0.540362,0.406709
13,68,8,1,2,8,1,I,7,L,6,S,12,0.779163,0.480335,0.374259
13,69,9,8,8,2,1,C,1,S,6,S,13,0.771844,0.464109,0.35822
13,70,9,2,2,8,1,I,7,L,6,S,13,0.776681,0.51419,0.399362
13,71,2,8,9,1,1,I,6,S,8,L,13,0.556389,0.78149,0.434812
13,72,2,1,8,2,1,C,1,S,6,S,11,0.790644,0.391123,0.309239
13,73,1,9,9,2,1,I,8,L,7,L,12,0.505057,0.780321,0.394106
13,74,1,8,9,8,1,I,7,L,1,S,10,0.374006,0.792163,0.296274
13,75,8,9,2,1,0,I,1,S,1,S,15,0.75266,0.537833,0.404806
13,76,9,2,9,1,1,C,7,L,8,L,9,0.828475,0.294344,0.243856
13,77,2,9,9,1,1,I,7,L,8,L,13,0.581491,0.750256,0.436267
13,78,9,2,1,8,1,I,7,L,7,L,14,0.780944,0.552372,0.431372
13,79,9,8,8,1,1,C,1,S,7,L,11,0.767371,0.423223,0.324769
13,80,2,8,8,2,1,I,6,S,6,S,11,0.485769,0.754819,0.366668
13,81,8,2,9,8,1,C,6,S,1,S,11,0.782122,0.385751,0.301704
13,82,9,8,1,2,0,I,1,S,1,S,14,0.439859,0.779702,0.342959
13,83,8,2,2,9,1,I,6,S,7,L,16,0.771374,0.586719,0.45258
13,84,9,8,2,9,0,I,1,S,7,L,12,0.399842,0.802499,0.320873
13,85,9,8,2,1,1,C,1,S,1,S,13,0.772595,0.460863,0.35606
13,86,2,9,2,8,1,C,7,L,6,S,9,0.330178,0.780038,0.257552
13,87,1,8,1,9,1,C,7,L,8,L,8,0.299016,0.755931,0.226035
13,88,8,1,8,1,1,C,7,L,7,L,9,0.851697,0.274216,0.233549
13,89,9,2,2,9,1,I,7,L,7,L,13,0.763115,0.533693,0.407269
13,90,8,1,1,8,1,I,7,L,7,L,13,0.786906,0.521233,0.410162
13,91,8,2,2,1,1,C,6,S,1,S,10,0.799299,0.346343,0.276832
