ANN,trial,N1,N2,P1,P2,Succ.,Cong,Ndist,Ndist,Pdist,Pdist,rt,a1,a2,x_acc
1,1,9,1,9,8,1,C,8,L,1,S,9,0.837624,0.301344,0.252413
1,2,8,1,9,8,1,C,7,L,1,S,9,0.799524,0.326751,0.261245
1,3,1,2,2,8,1,C,1,S,6,S,10,0.374735,0.773384,0.289814
1,4,8,2,9,1,1,C,6,S,8,L,8,0.788008,0.280915,0.221363
1,5,1,9,9,2,1,I,8,L,7,L,11,0.502853,0.761747,0.383046
1,6,1,8,2,1,1,I,7,L,1,S,9,0.355017,0.76738,0.272432
1,7,8,1,8,1,1,C,7,L,7,L,8,0.812964,0.262041,0.21303
1,8,8,2,9,8,1,C,6,S,1,S,9,0.752488,0.360964,0.271621
1,9,2,1,1,2,1,I,1,S,1,S,11,0.758195,0.442847,0.335765
1,10,2,1,9,2,1,C,1,S,7,L,9,0.825209,0.297704,0.245668
1,11,8,9,9,1,0,I,1,S,8,L,11,0.792861,0.397442,0.315116
1,12,8,1,1,2,1,I,7,L,1,S,9,0.760624,0.367617,0.279618
1,13,8,1,1,9,1,I,7,L,8,L,11,0.767459,0.508602,0.390332
1,14,8,9,1,8,1,C,1,S,7,L,11,0.390001,0.799218,0.311696
1,15,1,2,8,9,1,C,1,S,1,S,11,0.412378,0.756619,0.312013
1,16,8,2,8,9,1,I,6,S,1,S,10,0.755287,0.424475,0.320601
1,17,8,9,1,2,1,C,1,S,1,S,14,0.457864,0.770651,0.352853
1,18,1,9,2,8,1,C,8,L,6,S,8,0.278791,0.786897,0.21938
1,19,8,1,2,9,1,I,7,L,7,L,11,0.781287,0.488426,0.381601
1,20,1,2,9,2,0,I,1,S,7,L,13,0.759698,0.504304,0.383119
1,21,9,8,2,9,0,I,1,S,7,L,12,0.467168,0.758118,0.354169
1,22,9,2,2,9,1,I,7,L,7,L,11,0.783113,0.489196,0.383096
1,23,1,8,2,9,1,C,7,L,7,L,8,0.251582,0.823416,0.207157
1,24,1,2,2,9,1,C,1,S,7,L,10,0.363544,0.788087,0.286505
1,25,8,1,9,1,1,C,7,L,8,L,8,0.829718,0.250445,0.207799
1,26,8,2,1,8,1,I,6,S,7,L,12,0.768246,0.536595,0.412237
1,27,2,9,1,2,1,C,7,L,1,S,10,0.319094,0.839782,0.267969
1,28,2,8,8,9,1,C,6,S,1,S,9,0.30735,0.808571,0.248515
1,29,8,9,2,1,0,I,1,S,1,S,15,0.754186,0.479889,0.361925
1,30,1,8,8,9,1,C,7,L,1,S,8,0.304553,0.756165,0.230292
1,31,8,9,1,9,1,C,1,S,8,L,10,0.393473,0.758296,0.298369
1,32,9,1,9,2,1,C,8,L,7,L,8,0.852312,0.238181,0.203005
1,33,1,2,9,8,1,I,1,S,1,S,14,0.459792,0.767934,0.35309
1,34,9,8,8,2,1,C,1,S,6,S,11,0.81687,0.368733,0.301207
1,35,2,9,9,1,1,I,7,L,8,L,13,0.570828,0.757702,0.432517
1,36,8,2,2,9,1,I,6,S,7,L,12,0.772976,0.52826,0.408333
1,37,1,9,9,8,1,I,8,L,1,S,9,0.347822,0.770656,0.268051
1,38,8,1,8,9,1,I,7,L,1,S,10,0.80523,0.387801,0.312269
1,39,2,8,9,1,1,I,6,S,8,L,12,0.539239,0.763034,0.411458
1,40,9,1,8,1,1,C,8,L,7,L,8,0.848103,0.239015,0.202709
1,41,8,1,2,1,1,C,7,L,1,S,9,0.826666,0.296183,0.244844
1,42,9,8,8,1,1,C,1,S,7,L,10,0.767348,0.379462,0.291179
1,43,2,8,8,1,1,I,6,S,7,L,12,0.518567,0.778168,0.403532
1,44,1,8,8,2,1,I,7,L,6,S,10,0.45074,0.760627,0.342845
1,45,9,1,1,9,1,I,8,L,8,L,10,0.759612,0.475866,0.361474
1,46,2,1,2,8,1,I,1,S,6,S,14,0.780418,0.565123,0.441032
1,47,9,1,9,1,1,C,8,L,8,L,8,0.864857,0.227419,0.196685
1,48,2,9,8,9,1,C,7,L,1,S,9,0.33477,0.771611,0.258312
1,49,1,2,9,1,0,I,1,S,8,L,12,0.758256,0.476679,0.361445
1,50,9,8,2,8,0,I,1,S,6,S,13,0.490987,0.761524,0.373898
1,51,1,9,2,1,1,I,8,L,1,S,10,0.363299,0.808849,0.293854
1,52,8,9,9,8,1,I,1,S,1,S,26,0.505086,0.769385,0.388606
1,53,8,1,1,8,1,I,7,L,7,L,11,0.776774,0.496711,0.385832
1,54,1,2,8,2,1,I,1,S,6,S,21,0.650568,0.766295,0.498527
1,55,8,9,2,9,1,C,1,S,7,L,11,0.394514,0.790933,0.312034
1,56,2,1,1,9,1,I,1,S,8,L,14,0.755747,0.597138,0.451286
1,57,9,8,1,8,0,I,1,S,7,L,12,0.462438,0.766453,0.354437
1,58,2,1,9,1,1,C,1,S,8,L,9,0.839382,0.285823,0.239915
1,59,8,2,9,2,1,C,6,S,7,L,8,0.775463,0.291677,0.226185
1,60,8,2,1,9,1,I,6,S,8,L,12,0.758982,0.548176,0.416056
1,61,1,9,8,2,1,I,8,L,6,S,11,0.477407,0.780133,0.372441
1,62,8,1,8,2,1,C,7,L,6,S,8,0.798247,0.274713,0.219289
1,63,1,2,1,2,1,C,1,S,1,S,12,0.409806,0.784541,0.32151
1,64,8,1,2,8,1,I,7,L,6,S,11,0.792865,0.473422,0.37536
1,65,1,2,1,9,1,C,1,S,8,L,10,0.350235,0.807993,0.282987
1,66,2,9,2,9,1,C,7,L,7,L,9,0.271488,0.854356,0.231948
1,67,1,2,2,1,1,I,1,S,1,S,18,0.569682,0.775188,0.441611
1,68,2,9,2,8,1,C,7,L,6,S,9,0.281926,0.840603,0.236987
1,69,8,1,9,2,1,C,7,L,7,L,8,0.817173,0.261208,0.213452
1,70,8,2,2,8,1,I,6,S,6,S,12,0.784628,0.513451,0.402868
1,71,2,1,2,1,1,C,1,S,1,S,10,0.7978,0.347864,0.277526
1,72,2,9,8,1,1,I,7,L,7,L,13,0.550777,0.772714,0.425593
1,73,2,8,2,9,1,C,6,S,7,L,8,0.28341,0.777337,0.220305
1,74,2,9,9,2,1,I,7,L,7,L,13,0.55672,0.770101,0.428731
1,75,2,1,8,1,1,C,1,S,7,L,9,0.820335,0.29902,0.245296
1,76,8,9,2,8,1,C,1,S,6,S,11,0.406092,0.775929,0.315099
1,77,9,2,9,1,1,C,7,L,8,L,8,0.830922,0.251873,0.209287
1,78,2,9,1,9,1,C,7,L,8,L,8,0.295863,0.763445,0.225875
1,79,9,2,2,8,1,I,7,L,6,S,11,0.794691,0.474192,0.376836
1,80,9,1,8,2,1,C,8,L,6,S,8,0.833387,0.251686,0.209752
1,81,9,8,2,1,1,C,1,S,1,S,13,0.807166,0.401133,0.323781
1,82,9,2,1,8,1,I,7,L,7,L,11,0.7786,0.497481,0.387338
1,83,9,1,2,9,1,I,8,L,7,L,10,0.772922,0.45596,0.352421
1,84,1,8,1,2,1,C,7,L,1,S,9,0.288974,0.838813,0.242395
1,85,9,2,8,9,1,I,7,L,1,S,10,0.806848,0.388813,0.313713
1,86,2,1,8,2,1,C,1,S,6,S,9,0.802968,0.313443,0.251685
1,87,2,8,1,9,1,C,6,S,8,L,8,0.272416,0.794359,0.216396
1,88,1,9,8,1,1,I,8,L,7,L,11,0.497159,0.763862,0.379761
1,89,2,8,1,2,1,C,6,S,1,S,9,0.325079,0.786631,0.255717
1,90,2,8,2,1,1,I,6,S,1,S,10,0.38109,0.781929,0.297985
1,91,9,2,8,2,1,C,7,L,6,S,8,0.799452,0.276141,0.220761
1,92,1,9,1,2,1,C,8,L,1,S,9,0.308922,0.811522,0.250697
1,93,9,8,1,2,1,I,1,S,1,S,19,0.75265,0.614165,0.462251
1,94,8,9,8,1,0,I,1,S,7,L,11,0.772013,0.412365,0.318351
1,95,8,2,2,1,1,C,6,S,1,S,9,0.77963,0.330396,0.257586
1,96,2,9,9,8,1,I,7,L,1,S,10,0.372212,0.782119,0.291114
1,97,9,2,2,1,1,C,7,L,1,S,9,0.828074,0.297422,0.246288
1,98,8,9,8,9,1,C,1,S,1,S,13,0.442937,0.775416,0.34346
1,99,2,9,1,8,1,C,7,L,7,L,8,0.3038,0.75307,0.228783
1,100,8,2,8,1,1,C,6,S,7,L,8,0.771254,0.292511,0.2256
1,101,2,8,9,8,1,I,6,S,1,S,10,0.341826,0.823252,0.281409
1,102,9,2,1,9,1,I,7,L,8,L,11,0.769285,0.509372,0.391852
1,103,9,1,1,8,1,I,8,L,7,L,10,0.768755,0.463986,0.356692
1,104,9,2,9,8,1,C,7,L,1,S,9,0.800931,0.32799,0.262698
1,105,9,1,1,2,1,I,8,L,1,S,9,0.798723,0.34221,0.273331
1,106,1,9,2,9,1,C,8,L,7,L,8,0.269495,0.798968,0.215318
1,107,1,8,9,2,1,I,7,L,7,L,11,0.480987,0.790799,0.380364
1,108,2,1,1,8,1,I,1,S,7,L,14,0.764451,0.586706,0.448508
1,109,9,1,2,8,1,I,8,L,6,S,10,0.784112,0.441257,0.345995
1,110,8,2,1,2,1,I,6,S,1,S,10,0.777725,0.395715,0.307758
1,111,2,8,9,2,1,I,6,S,7,L,12,0.52444,0.775766,0.406843
1,112,2,8,1,8,1,C,6,S,7,L,8,0.280354,0.783985,0.219793
1,113,9,2,8,1,1,C,7,L,7,L,8,0.814169,0.263469,0.214508
1,114,2,1,8,9,1,I,1,S,1,S,12,0.775773,0.478566,0.371259
1,115,1,9,1,9,1,C,8,L,8,L,8,0.258501,0.81599,0.210934
1,116,8,9,9,2,0,I,1,S,7,L,11,0.777707,0.410249,0.319054
1,117,2,1,9,8,1,C,1,S,1,S,10,0.758536,0.389187,0.295212
1,118,9,2,9,2,1,C,7,L,7,L,8,0.818378,0.262636,0.214935
1,119,1,9,1,8,1,C,8,L,7,L,8,0.266438,0.805616,0.214647
1,120,9,8,9,1,1,C,1,S,8,L,10,0.787722,0.365163,0.287647
1,121,2,8,2,8,1,C,6,S,6,S,8,0.292707,0.765266,0.223998
1,122,1,2,8,1,0,I,1,S,7,L,13,0.753755,0.506917,0.382091
1,123,1,8,2,8,1,C,7,L,6,S,8,0.260879,0.811344,0.211663
1,124,9,2,1,2,1,I,7,L,1,S,9,0.762031,0.368856,0.28108
1,125,1,8,1,9,1,C,7,L,8,L,8,0.240589,0.840438,0.2022
1,126,1,8,9,8,1,I,7,L,1,S,9,0.327874,0.797948,0.261626
1,127,9,8,8,9,1,I,1,S,1,S,20,0.752208,0.63669,0.478924
1,128,1,8,9,1,1,I,7,L,8,L,11,0.496141,0.777991,0.385993
1,129,1,9,8,9,1,C,8,L,1,S,9,0.291193,0.833461,0.242698
1,130,9,1,2,1,1,C,8,L,1,S,8,0.766822,0.299377,0.229569
1,131,1,9,9,1,1,I,8,L,8,L,12,0.519948,0.790849,0.411201
1,132,9,8,9,8,1,C,1,S,1,S,14,0.752299,0.468568,0.352504
1,133,8,2,8,2,1,C,6,S,6,S,8,0.756538,0.305182,0.230882
1,134,8,9,8,2,0,I,1,S,6,S,11,0.752261,0.428635,0.322446
1,135,2,9,2,1,1,I,7,L,1,S,11,0.400785,0.799228,0.320319
1,136,1,2,1,8,1,C,1,S,7,L,10,0.359377,0.796114,0.286105
1,137,2,1,2,9,1,I,1,S,7,L,14,0.769305,0.578652,0.44516
1,138,1,8,1,8,1,C,7,L,7,L,8,0.248526,0.830064,0.206292
1,139,2,9,8,2,1,I,7,L,6,S,12,0.532048,0.750844,0.399485
1,140,9,8,9,2,1,C,1,S,7,L,10,0.772718,0.377711,0.291864
1,141,9,1,8,9,1,I,8,L,1,S,9,0.780995,0.36415,0.284399
1,142,1,8,8,1,1,I,7,L,7,L,11,0.475293,0.792914,0.376867
1,143,2,8,8,2,1,I,6,S,6,S,11,0.496221,0.752318,0.373316
1,144,9,8,1,9,0,I,1,S,8,L,11,0.445295,0.751207,0.334509
2,1,2,8,1,9,1,C,6,S,8,L,8,0.26067,0.808426,0.210733
2,2,1,8,2,8,1,C,7,L,6,S,8,0.262955,0.811577,0.213408
2,3,8,2,8,1,1,C,6,S,7,L,8,0.790628,0.27274,0.215636
2,4,9,1,1,9,1,I,8,L,8,L,11,0.752227,0.518566,0.39008
2,5,2,8,2,9,1,C,6,S,7,L,8,0.258187,0.812895,0.209879
2,6,8,2,8,2,1,C,6,S,6,S,9,0.85417,0.269762,0.230422
2,7,8,1,8,1,1,C,7,L,7,L,8,0.811739,0.257175,0.208759
2,8,1,8,8,2,1,I,7,L,6,S,10,0.43931,0.760442,0.334069
2,9,9,8,8,2,1,C,1,S,6,S,14,0.755232,0.509883,0.38508
2,10,9,2,2,8,1,I,7,L,6,S,12,0.784978,0.519259,0.407607
2,11,1,2,9,1,0,I,1,S,8,L,12,0.771572,0.461187,0.355839
2,12,2,8,8,1,1,I,6,S,7,L,12,0.521553,0.781599,0.407645
2,13,9,2,8,1,1,C,7,L,7,L,8,0.793494,0.273939,0.217369
2,14,2,8,9,1,1,I,6,S,8,L,12,0.532494,0.774395,0.412361
2,15,1,9,1,8,1,C,8,L,7,L,8,0.262275,0.814582,0.213644
2,16,1,9,2,9,1,C,8,L,7,L,8,0.242501,0.842485,0.204303
2,17,8,9,1,2,1,C,1,S,1,S,12,0.392107,0.80056,0.313905
2,18,2,1,1,9,1,I,1,S,8,L,20,0.762487,0.649494,0.495231
2,19,8,2,1,9,1,I,6,S,8,L,12,0.763689,0.540422,0.412714
2,20,9,2,2,9,1,I,7,L,7,L,12,0.764865,0.545225,0.417023
2,21,2,8,8,2,1,I,6,S,6,S,11,0.459155,0.783746,0.359861
2,22,1,2,2,9,1,C,1,S,7,L,10,0.350384,0.806923,0.282733
2,23,9,8,8,9,0,I,1,S,1,S,12,0.403566,0.789284,0.318529
2,24,2,1,8,9,1,I,1,S,1,S,17,0.752052,0.596343,0.448481
2,25,9,2,8,2,1,C,7,L,6,S,9,0.857517,0.270597,0.232042
2,26,9,2,9,2,1,C,7,L,7,L,8,0.761114,0.298522,0.227209
2,27,8,9,8,1,0,I,1,S,7,L,12,0.756139,0.47079,0.355983
2,28,2,9,8,2,1,I,7,L,6,S,11,0.452936,0.795052,0.360108
2,29,8,2,9,1,1,C,6,S,8,L,8,0.799871,0.267329,0.213829
2,30,2,1,2,8,1,I,1,S,6,S,20,0.77314,0.63789,0.493179
2,31,9,8,2,1,0,C,1,S,1,S,20,0.595542,0.771598,0.459519
2,32,1,2,1,2,1,C,1,S,1,S,12,0.396597,0.798161,0.316549
2,33,2,9,2,9,1,C,7,L,7,L,8,0.254055,0.821745,0.208769
2,34,1,2,8,2,1,I,1,S,6,S,21,0.645179,0.762074,0.491674
2,35,2,9,8,9,1,C,7,L,1,S,9,0.288463,0.832666,0.240193
2,36,9,1,1,2,1,I,8,L,1,S,10,0.798701,0.384376,0.307001
2,37,9,8,8,1,1,C,1,S,7,L,12,0.778371,0.446316,0.347399
2,38,1,2,1,9,1,C,1,S,8,L,10,0.353457,0.801783,0.283396
2,39,8,9,8,2,1,I,1,S,6,S,21,0.640896,0.764895,0.490218
2,40,8,9,2,1,1,I,1,S,1,S,18,0.570037,0.769409,0.438591
2,41,1,8,1,2,1,C,7,L,1,S,9,0.286442,0.839323,0.240418
2,42,9,8,1,9,0,I,1,S,8,L,10,0.363367,0.789737,0.286964
2,43,1,2,2,8,1,C,1,S,6,S,10,0.369979,0.780603,0.288806
2,44,2,9,1,9,1,C,7,L,8,L,8,0.256539,0.817276,0.209663
2,45,1,8,1,8,1,C,7,L,7,L,8,0.266059,0.806287,0.21452
2,46,8,1,1,9,1,I,7,L,8,L,12,0.789403,0.520769,0.411097
2,47,8,2,1,2,1,I,6,S,1,S,10,0.769267,0.402973,0.309994
2,48,2,8,9,8,1,I,6,S,1,S,10,0.345583,0.82278,0.284339
2,49,8,1,2,1,1,C,7,L,1,S,9,0.806175,0.309565,0.249564
2,50,2,1,2,1,1,C,1,S,1,S,12,0.793762,0.393103,0.31203
2,51,2,9,1,8,1,C,7,L,7,L,8,0.27383,0.793842,0.217377
2,52,8,9,1,8,1,C,1,S,7,L,10,0.370673,0.775027,0.287282
2,53,9,1,2,1,1,C,8,L,1,S,9,0.809678,0.310163,0.251132
2,54,8,2,9,2,1,C,6,S,7,L,8,0.758249,0.297322,0.225444
2,55,2,9,8,1,1,I,7,L,7,L,11,0.513058,0.751152,0.385384
2,56,8,9,1,9,1,C,1,S,8,L,10,0.350117,0.802732,0.28105
2,57,9,1,9,2,1,C,8,L,7,L,8,0.782402,0.282726,0.221206
2,58,1,2,1,8,1,C,1,S,7,L,10,0.374013,0.774079,0.289516
2,59,1,2,9,8,1,I,1,S,1,S,16,0.523904,0.75541,0.395762
2,60,1,8,8,1,1,I,7,L,7,L,11,0.502953,0.766286,0.385405
2,61,2,1,9,2,1,C,1,S,7,L,10,0.775985,0.363689,0.282217
2,62,1,9,2,8,1,C,8,L,6,S,8,0.259171,0.819872,0.212487
2,63,9,8,9,8,0,C,1,S,1,S,18,0.548614,0.765732,0.420092
2,64,2,8,9,2,1,I,6,S,7,L,11,0.477426,0.771579,0.368372
2,65,9,1,8,2,1,C,8,L,6,S,8,0.770203,0.290626,0.223841
2,66,2,9,9,2,1,I,7,L,7,L,11,0.471207,0.782885,0.368901
2,67,8,1,9,2,1,C,7,L,7,L,8,0.77936,0.281758,0.219591
2,68,1,8,9,1,1,I,7,L,8,L,11,0.513986,0.759226,0.390232
2,69,8,2,9,8,1,C,6,S,1,S,9,0.769926,0.339837,0.26165
2,70,1,9,9,1,1,I,8,L,8,L,11,0.508496,0.769324,0.391198
2,71,8,2,2,1,1,C,6,S,1,S,9,0.782233,0.327073,0.255847
2,72,9,1,9,8,1,C,8,L,1,S,9,0.797371,0.322927,0.257493
2,73,1,9,1,2,1,C,8,L,1,S,9,0.281918,0.848582,0.239231
2,74,8,2,8,9,1,I,6,S,1,S,10,0.760901,0.412515,0.313883
2,75,9,1,8,1,1,C,8,L,7,L,8,0.814781,0.258144,0.21033
2,76,1,8,2,1,1,I,7,L,1,S,9,0.361064,0.760951,0.274752
2,77,8,9,2,9,1,C,1,S,7,L,10,0.347044,0.807872,0.280367
2,78,2,8,2,1,1,I,6,S,1,S,10,0.363194,0.80559,0.292586
2,79,1,2,8,9,1,C,1,S,1,S,12,0.385826,0.81136,0.313044
2,80,2,1,1,8,1,I,1,S,7,L,20,0.77652,0.633209,0.4917
2,81,9,8,9,2,1,C,1,S,7,L,13,0.759399,0.485203,0.368462
2,82,9,8,2,9,0,I,1,S,7,L,10,0.360294,0.794877,0.286389
2,83,8,1,1,2,1,I,7,L,1,S,10,0.794798,0.384169,0.305337
2,84,9,8,1,2,0,I,1,S,1,S,12,0.414338,0.776086,0.321562
2,85,8,1,9,1,1,C,7,L,8,L,8,0.820982,0.251765,0.206694
2,86,9,2,9,1,1,C,7,L,8,L,8,0.802737,0.268529,0.215558
2,87,2,9,2,8,1,C,7,L,6,S,8,0.270726,0.799132,0.216346
2,88,1,8,9,2,1,I,7,L,7,L,11,0.461102,0.798018,0.367968
2,89,9,1,2,8,1,I,8,L,6,S,11,0.769113,0.497258,0.382448
2,90,8,1,9,8,1,C,7,L,1,S,9,0.793868,0.32233,0.255887
2,91,2,8,8,9,1,C,6,S,1,S,9,0.29348,0.822578,0.24141
2,92,2,1,9,8,1,C,1,S,1,S,12,0.761377,0.421554,0.320962
2,93,8,9,9,8,1,I,1,S,1,S,16,0.51811,0.760034,0.393781
2,94,1,8,9,8,1,I,7,L,1,S,9,0.348757,0.773716,0.269839
2,95,8,9,9,1,0,I,1,S,8,L,12,0.767081,0.463586,0.355608
2,96,1,2,9,2,1,I,1,S,7,L,21,0.657176,0.752804,0.494724
2,97,8,2,2,9,1,I,6,S,7,L,12,0.760402,0.545576,0.414858
2,98,9,2,1,9,1,I,7,L,8,L,12,0.768152,0.54007,0.414856
2,99,2,1,8,1,1,C,1,S,7,L,10,0.816569,0.333302,0.272164
2,100,1,8,8,9,1,C,7,L,1,S,9,0.279589,0.846638,0.236711
2,101,9,2,1,2,1,I,7,L,1,S,10,0.773052,0.403406,0.311854
2,102,2,1,1,2,1,I,1,S,1,S,17,0.763202,0.583374,0.445232
2,103,9,1,8,9,1,I,8,L,1,S,10,0.790335,0.393918,0.311327
2,104,2,9,9,8,1,I,7,L,1,S,9,0.357631,0.759743,0.271707
2,105,8,9,9,2,1,I,1,S,7,L,21,0.652894,0.755624,0.493342
2,106,2,9,2,1,1,I,7,L,1,S,10,0.357478,0.816483,0.291874
2,107,2,8,1,8,1,C,6,S,7,L,8,0.277961,0.784993,0.218197
2,108,2,9,1,2,1,C,7,L,1,S,9,0.295316,0.82535,0.243739
2,109,9,8,2,8,0,I,1,S,6,S,10,0.379888,0.768556,0.291965
2,110,1,9,1,9,1,C,8,L,8,L,8,0.244984,0.838016,0.205301
2,111,1,8,2,9,1,C,7,L,7,L,8,0.246285,0.83419,0.205448
2,112,2,1,8,2,1,C,1,S,6,S,10,0.759003,0.374807,0.284479
2,113,9,2,1,8,1,I,7,L,7,L,12,0.789403,0.512514,0.40458
2,114,1,9,2,1,1,I,8,L,1,S,9,0.35654,0.77021,0.274611
2,115,8,1,2,8,1,I,7,L,6,S,11,0.764879,0.497432,0.380475
2,116,1,2,2,1,1,I,1,S,1,S,18,0.575522,0.765076,0.440318
2,117,8,2,2,8,1,I,6,S,6,S,12,0.780515,0.519611,0.405564
2,118,9,1,9,1,1,C,8,L,8,L,8,0.824024,0.252733,0.208258
2,119,8,2,1,8,1,I,6,S,7,L,12,0.78494,0.512866,0.402569
2,120,9,2,2,1,1,C,7,L,1,S,9,0.78558,0.327908,0.257598
2,121,9,8,9,1,1,C,1,S,8,L,11,0.758854,0.435833,0.330733
2,122,2,8,1,2,1,C,6,S,1,S,9,0.300333,0.815263,0.24485
2,123,1,2,8,1,0,I,1,S,7,L,12,0.76063,0.468391,0.356272
2,124,8,1,8,9,1,I,7,L,1,S,10,0.786432,0.393711,0.309627
2,125,1,9,8,9,1,C,8,L,1,S,8,0.307776,0.752255,0.231526
2,126,8,9,8,9,1,C,1,S,1,S,12,0.381335,0.813758,0.310315
2,127,9,8,1,8,0,I,1,S,7,L,10,0.383923,0.762032,0.292562
2,128,9,2,8,9,1,I,7,L,1,S,10,0.764686,0.412948,0.315776
2,129,2,9,9,1,1,I,7,L,8,L,12,0.525958,0.785805,0.4133
2,130,8,1,8,2,1,C,7,L,6,S,8,0.767162,0.289658,0.222214
2,131,1,9,9,8,1,I,8,L,1,S,9,0.344233,0.782974,0.269525
2,132,2,1,2,9,1,I,1,S,7,L,20,0.759925,0.653227,0.496403
2,133,8,1,2,9,1,I,7,L,7,L,12,0.786116,0.525924,0.413437
2,134,9,1,1,8,1,I,8,L,7,L,11,0.773405,0.490522,0.379372
2,135,1,9,8,2,1,I,8,L,6,S,10,0.434216,0.77028,0.334468
2,136,1,9,9,2,1,I,8,L,7,L,10,0.451198,0.759163,0.342533
2,137,8,9,2,8,1,C,1,S,6,S,10,0.366639,0.781551,0.286547
2,138,9,1,2,9,1,I,8,L,7,L,12,0.790616,0.525399,0.415389
2,139,1,8,1,9,1,C,7,L,8,L,8,0.248768,0.829721,0.206408
2,140,8,1,1,8,1,I,7,L,7,L,11,0.769172,0.490696,0.377429
2,141,9,2,9,8,1,C,7,L,1,S,9,0.773273,0.340672,0.263433
2,142,1,9,8,1,1,I,8,L,7,L,11,0.497462,0.776383,0.386221
2,143,2,1,9,1,1,C,1,S,8,L,10,0.827415,0.326572,0.270211
2,144,2,8,2,8,1,C,6,S,6,S,8,0.274857,0.790282,0.217215
3,1,1,8,8,9,1,C,7,L,1,S,9,0.298844,0.824747,0.246471
3,2,1,2,2,1,1,I,1,S,1,S,12,0.462526,0.766546,0.354548
3,3,1,2,1,9,1,C,1,S,8,L,9,0.292114,0.821357,0.23993
3,4,8,9,8,1,0,I,1,S,7,L,11,0.767316,0.421221,0.32321
3,5,1,9,1,9,1,C,8,L,8,L,8,0.241227,0.837162,0.201946
3,6,2,1,9,8,1,C,1,S,1,S,11,0.765784,0.397143,0.304126
3,7,9,1,1,8,1,I,8,L,7,L,11,0.766301,0.498591,0.382071
3,8,8,1,9,8,1,C,7,L,1,S,9,0.816163,0.303906,0.248037
3,9,2,9,2,1,1,I,7,L,1,S,10,0.406033,0.75993,0.308556
3,10,8,2,2,8,1,I,6,S,6,S,12,0.781336,0.495709,0.387315
3,11,8,1,8,1,1,C,7,L,7,L,8,0.786557,0.280144,0.220349
3,12,9,1,2,1,1,C,8,L,1,S,9,0.823919,0.297686,0.245269
3,13,2,8,9,1,1,I,6,S,8,L,12,0.532439,0.769243,0.409575
3,14,9,2,8,1,1,C,7,L,7,L,8,0.767593,0.290903,0.223295
3,15,9,1,8,1,1,C,8,L,7,L,8,0.802298,0.267662,0.214745
3,16,1,9,9,2,1,I,8,L,7,L,11,0.497134,0.775404,0.385479
3,17,2,8,1,2,1,C,6,S,1,S,9,0.32549,0.781231,0.254283
3,18,2,9,1,9,1,C,7,L,8,L,8,0.27913,0.783255,0.21863
3,19,9,2,9,1,1,C,7,L,8,L,8,0.780578,0.281759,0.219934
3,20,8,9,8,2,0,I,1,S,6,S,11,0.769536,0.418934,0.322384
3,21,9,8,1,8,0,I,1,S,7,L,11,0.403256,0.781734,0.315239
3,22,9,1,9,8,1,C,8,L,1,S,9,0.833907,0.290036,0.241863
3,23,1,8,1,9,1,C,7,L,8,L,8,0.233186,0.846892,0.197483
3,24,8,1,2,1,1,C,7,L,1,S,9,0.806174,0.311556,0.251169
3,25,9,8,2,8,0,I,1,S,6,S,12,0.432583,0.770707,0.333395
3,26,1,8,2,8,1,C,7,L,6,S,8,0.275564,0.791611,0.21814
3,27,9,1,9,2,1,C,8,L,7,L,8,0.816856,0.256728,0.20971
3,28,9,2,2,8,1,I,7,L,6,S,11,0.76402,0.473278,0.361594
3,29,1,8,2,9,1,C,7,L,7,L,8,0.258477,0.812326,0.209967
3,30,8,2,8,9,1,I,6,S,1,S,10,0.769788,0.384156,0.295719
3,31,8,9,2,9,1,C,1,S,7,L,11,0.405156,0.777017,0.314813
3,32,2,8,8,1,1,I,6,S,7,L,12,0.51669,0.780931,0.403499
3,33,1,2,2,9,1,C,1,S,7,L,9,0.320634,0.782081,0.250762
3,34,2,8,1,9,1,C,6,S,8,L,8,0.268223,0.796408,0.213615
3,35,9,2,2,1,1,C,7,L,1,S,9,0.784238,0.324359,0.254375
3,36,9,8,8,9,0,I,1,S,1,S,17,0.499791,0.750099,0.374893
3,37,2,9,2,9,1,C,7,L,7,L,9,0.268102,0.858157,0.230074
3,38,8,1,1,8,1,I,7,L,7,L,12,0.789508,0.51563,0.407094
3,39,2,1,8,1,1,C,1,S,7,L,10,0.79899,0.349049,0.278886
3,40,2,1,2,9,1,I,1,S,7,L,19,0.751353,0.643778,0.483705
3,41,8,1,1,9,1,I,7,L,8,L,12,0.775605,0.532539,0.41304
3,42,9,8,8,1,1,C,1,S,7,L,11,0.783329,0.400386,0.313634
3,43,2,1,2,8,1,I,1,S,6,S,19,0.769157,0.624134,0.480057
3,44,2,1,1,9,1,I,1,S,8,L,20,0.759657,0.651185,0.494677
3,45,9,1,8,2,1,C,8,L,6,S,8,0.804153,0.265625,0.213603
3,46,2,1,8,9,1,I,1,S,1,S,15,0.779992,0.487498,0.380244
3,47,8,2,9,1,1,C,6,S,8,L,8,0.761798,0.296871,0.226156
3,48,8,9,9,8,0,I,1,S,1,S,14,0.754459,0.484674,0.365667
3,49,2,1,9,1,1,C,1,S,8,L,10,0.814616,0.33792,0.275275
3,50,1,9,8,1,1,I,8,L,7,L,11,0.479467,0.788873,0.378239
3,51,9,2,9,2,1,C,7,L,7,L,8,0.782152,0.279968,0.218978
3,52,9,1,2,9,1,I,8,L,7,L,11,0.784213,0.473038,0.370962
3,53,1,2,2,8,1,C,1,S,6,S,9,0.340662,0.756848,0.257829
3,54,8,1,8,2,1,C,7,L,6,S,8,0.788413,0.278106,0.219262
3,55,2,8,1,8,1,C,6,S,7,L,8,0.280094,0.78155,0.218907
3,56,2,8,8,2,1,I,6,S,6,S,12,0.518819,0.778695,0.404002
3,57,8,2,1,2,1,I,6,S,1,S,10,0.752749,0.40256,0.303027
3,58,2,8,9,2,1,I,6,S,7,L,12,0.534073,0.767404,0.40985
3,59,1,9,9,1,1,I,8,L,8,L,11,0.495398,0.777309,0.385077
3,60,8,9,1,2,1,C,1,S,1,S,14,0.45206,0.769784,0.347989
3,61,2,9,8,9,1,C,7,L,1,S,9,0.350574,0.752829,0.263922
3,62,9,8,9,1,1,C,1,S,8,L,11,0.799259,0.388822,0.310769
3,63,2,8,9,8,1,I,6,S,1,S,10,0.405929,0.766697,0.311225
3,64,1,9,8,2,1,I,8,L,6,S,11,0.481687,0.786585,0.378888
3,65,1,9,1,2,1,C,8,L,1,S,9,0.2948,0.827203,0.243859
3,66,8,9,1,8,1,C,1,S,7,L,11,0.387244,0.80257,0.31079
3,67,9,2,8,2,1,C,7,L,6,S,8,0.769448,0.288865,0.222267
3,68,8,1,9,2,1,C,7,L,7,L,8,0.801116,0.269209,0.215668
3,69,1,2,9,2,1,I,1,S,7,L,15,0.604494,0.758854,0.458722
3,70,1,9,8,9,1,C,8,L,1,S,9,0.307528,0.814145,0.250372
3,71,1,8,8,2,1,I,7,L,6,S,11,0.472591,0.797434,0.37686
3,72,1,9,1,8,1,C,8,L,7,L,8,0.253097,0.822304,0.208123
3,73,1,2,9,8,1,I,1,S,1,S,12,0.482059,0.752405,0.362703
3,74,9,8,2,1,1,C,1,S,1,S,14,0.775765,0.450949,0.34983
3,75,2,9,8,1,1,I,7,L,7,L,12,0.530674,0.763839,0.405349
3,76,1,9,2,9,1,C,8,L,7,L,8,0.266517,0.802597,0.213906
3,77,1,2,8,1,1,I,1,S,7,L,15,0.589618,0.771164,0.454693
3,78,8,2,9,2,1,C,6,S,7,L,8,0.763372,0.295081,0.225256
3,79,8,1,2,8,1,I,7,L,6,S,11,0.788877,0.457841,0.361181
3,80,2,9,2,8,1,C,7,L,6,S,9,0.288129,0.832924,0.23999
3,81,9,8,9,8,1,C,1,S,1,S,13,0.756148,0.454957,0.344015
3,82,1,2,1,2,1,C,1,S,1,S,10,0.365509,0.767491,0.280525
3,83,8,1,8,9,1,I,7,L,1,S,10,0.818293,0.350715,0.286987
3,84,9,8,8,2,1,C,1,S,6,S,11,0.785548,0.398098,0.312725
3,85,2,8,2,8,1,C,6,S,6,S,9,0.275774,0.848268,0.23393
3,86,8,9,9,2,0,I,1,S,7,L,11,0.784983,0.407752,0.320079
3,87,9,2,2,9,1,I,7,L,7,L,12,0.782778,0.506118,0.396178
3,88,1,9,9,8,1,I,8,L,1,S,9,0.377734,0.751092,0.283713
3,89,9,1,1,2,1,I,8,L,1,S,9,0.750973,0.366148,0.274967
3,90,2,9,9,1,1,I,7,L,8,L,12,0.546423,0.752151,0.410993
3,91,1,8,1,2,1,C,7,L,1,S,9,0.286116,0.837806,0.23971
3,92,2,1,1,2,1,I,1,S,1,S,16,0.770002,0.537035,0.413518
3,93,2,1,9,2,1,C,1,S,7,L,10,0.816393,0.335993,0.274302
3,94,2,9,8,2,1,I,7,L,6,S,12,0.532803,0.761602,0.405784
3,95,9,2,8,9,1,I,7,L,1,S,10,0.79441,0.365085,0.290027
3,96,9,8,2,9,0,I,1,S,7,L,11,0.421168,0.756181,0.318479
3,97,2,9,1,2,1,C,7,L,1,S,9,0.337846,0.765887,0.258752
3,98,1,8,2,1,1,I,7,L,1,S,9,0.359062,0.769344,0.276242
3,99,8,1,1,2,1,I,7,L,1,S,10,0.801254,0.369118,0.295757
3,100,8,9,8,9,1,C,1,S,1,S,15,0.464262,0.764575,0.354963
3,101,8,2,8,1,1,C,6,S,7,L,9,0.857917,0.269897,0.231549
3,102,2,8,8,9,1,C,6,S,1,S,9,0.338218,0.768173,0.25981
3,103,9,8,1,9,0,I,1,S,8,L,11,0.389275,0.799083,0.311063
3,104,1,2,8,9,1,C,1,S,1,S,11,0.35146,0.824882,0.289913
3,105,2,1,1,8,1,I,1,S,7,L,20,0.768341,0.642009,0.493282
3,106,1,9,2,1,1,I,8,L,1,S,9,0.367746,0.758742,0.279024
3,107,8,2,8,2,1,C,6,S,6,S,8,0.750669,0.303978,0.228187
3,108,9,8,9,2,1,C,1,S,7,L,11,0.800995,0.386917,0.309918
3,109,1,9,2,8,1,C,8,L,6,S,8,0.283605,0.781882,0.221745
3,110,2,8,2,1,1,I,6,S,1,S,10,0.392696,0.776614,0.304974
3,111,8,9,2,1,0,I,1,S,1,S,15,0.757115,0.495146,0.374882
3,112,2,1,8,2,1,C,1,S,6,S,10,0.801211,0.346768,0.277834
3,113,8,1,9,1,1,C,7,L,8,L,8,0.799542,0.270999,0.216675
3,114,8,2,2,9,1,I,6,S,7,L,12,0.75696,0.526551,0.398578
3,115,9,2,1,8,1,I,7,L,7,L,12,0.764462,0.531668,0.40644
3,116,1,8,8,1,1,I,7,L,7,L,10,0.464846,0.752006,0.349567
3,117,8,9,9,1,0,I,1,S,8,L,11,0.783247,0.409657,0.320863
3,118,8,1,2,9,1,I,7,L,7,L,11,0.765184,0.48817,0.37354
3,119,9,1,9,1,1,C,8,L,8,L,8,0.815282,0.258518,0.210765
3,120,8,2,1,8,1,I,6,S,7,L,13,0.776975,0.550581,0.427788
3,121,9,2,1,9,1,I,7,L,8,L,12,0.750559,0.548576,0.411739
3,122,2,1,2,1,1,C,1,S,1,S,12,0.821122,0.373833,0.306962
3,123,2,9,9,2,1,I,7,L,7,L,12,0.548057,0.750312,0.411214
3,124,9,2,9,8,1,C,7,L,1,S,9,0.794226,0.316709,0.251539
3,125,1,2,1,8,1,C,1,S,7,L,9,0.305142,0.804856,0.245596
3,126,1,2,8,2,1,I,1,S,6,S,15,0.591222,0.769291,0.454821
3,127,2,8,2,9,1,C,6,S,7,L,8,0.293514,0.761842,0.223611
3,128,8,2,2,1,1,C,6,S,1,S,9,0.761944,0.341776,0.260414
3,129,2,9,9,8,1,I,7,L,1,S,10,0.419266,0.750013,0.314455
3,130,9,1,1,9,1,I,8,L,8,L,11,0.75232,0.51594,0.388152
3,131,1,8,1,8,1,C,7,L,7,L,8,0.245056,0.832034,0.203895
3,132,1,8,9,8,1,I,7,L,1,S,9,0.36905,0.761694,0.281103
3,133,1,8,9,2,1,I,7,L,7,L,11,0.488038,0.786253,0.383721
3,134,9,2,1,2,1,I,7,L,1,S,10,0.77737,0.383489,0.298113
3,135,9,1,8,9,1,I,8,L,1,S,9,0.763701,0.35309,0.269655
3,136,9,8,1,2,0,I,1,S,1,S,15,0.482623,0.75117,0.362532
3,137,1,2,9,1,1,I,1,S,8,L,15,0.603326,0.760354,0.458742
3,138,2,9,1,8,1,C,7,L,7,L,8,0.291001,0.768397,0.223604
3,139,9,1,2,8,1,I,8,L,6,S,10,0.758065,0.439304,0.333021
3,140,1,8,9,1,1,I,7,L,8,L,11,0.486302,0.788158,0.383283
3,141,8,9,1,9,1,C,1,S,8,L,10,0.38904,0.763846,0.297166
3,142,8,2,9,8,1,C,6,S,1,S,9,0.771932,0.334126,0.257922
3,143,8,9,2,8,1,C,1,S,6,S,12,0.409647,0.798745,0.327203
3,144,8,2,1,9,1,I,6,S,8,L,13,0.763414,0.566716,0.432639
4,1,1,9,9,2,1,I,8,L,7,L,11,0.470576,0.790565,0.372021
4,2,2,1,1,2,1,I,1,S,1,S,15,0.754031,0.559448,0.421841
4,3,9,8,8,9,1,I,1,S,1,S,14,0.778595,0.449891,0.350283
4,4,1,2,1,9,1,C,1,S,8,L,10,0.337877,0.811764,0.274277
4,5,8,1,8,1,1,C,7,L,7,L,8,0.806039,0.263047,0.212026
4,6,8,1,9,2,1,C,7,L,7,L,8,0.784394,0.27955,0.219277
4,7,8,1,2,9,1,I,7,L,7,L,11,0.758952,0.499424,0.379039
4,8,1,9,2,9,1,C,8,L,7,L,8,0.256804,0.812061,0.208541
4,9,1,2,8,2,1,I,1,S,6,S,19,0.631426,0.766816,0.484187
4,10,8,2,8,1,1,C,6,S,7,L,8,0.778248,0.28452,0.221427
4,11,8,2,8,2,1,C,6,S,6,S,9,0.853941,0.274224,0.234171
4,12,2,1,2,9,1,I,1,S,7,L,18,0.761429,0.635575,0.483945
4,13,2,1,9,1,1,C,1,S,8,L,9,0.765943,0.341312,0.261426
4,14,2,1,8,9,1,I,1,S,1,S,13,0.801204,0.42091,0.337235
4,15,2,1,9,2,1,C,1,S,7,L,10,0.815279,0.338087,0.275635
4,16,1,8,9,1,1,I,7,L,8,L,12,0.548992,0.750201,0.411854
4,17,1,9,8,2,1,I,8,L,6,S,10,0.449734,0.754449,0.339302
4,18,9,2,8,1,1,C,7,L,7,L,8,0.780285,0.283506,0.221216
4,19,1,8,2,8,1,C,7,L,6,S,8,0.282682,0.775806,0.219306
4,20,2,9,1,2,1,C,7,L,1,S,9,0.301456,0.820537,0.247356
4,21,9,8,2,8,1,I,1,S,6,S,21,0.774418,0.643348,0.49822
4,22,2,9,8,2,1,I,7,L,6,S,11,0.47639,0.779039,0.371126
4,23,2,8,9,8,1,I,6,S,1,S,10,0.373947,0.778809,0.291233
4,24,8,1,9,1,1,C,7,L,8,L,8,0.814504,0.256513,0.208931
4,25,2,9,8,1,1,I,7,L,7,L,12,0.520715,0.788297,0.410478
4,26,9,1,8,9,1,I,8,L,1,S,9,0.769392,0.345505,0.265829
4,27,1,9,9,8,1,I,8,L,1,S,9,0.32846,0.78851,0.258994
4,28,2,9,9,8,1,I,7,L,1,S,9,0.348867,0.765824,0.26717
4,29,2,8,1,2,1,C,6,S,1,S,9,0.344685,0.761237,0.262387
4,30,2,8,8,1,1,I,6,S,7,L,13,0.570174,0.758766,0.432628
4,31,9,1,8,1,1,C,8,L,7,L,8,0.807897,0.262175,0.21181
4,32,1,9,2,8,1,C,8,L,6,S,8,0.251486,0.81937,0.20606
4,33,8,2,1,8,1,I,6,S,7,L,12,0.754659,0.544496,0.410909
4,34,2,9,2,1,1,I,7,L,1,S,10,0.36833,0.804889,0.296464
4,35,1,8,8,2,1,I,7,L,6,S,12,0.497397,0.790868,0.393375
4,36,8,1,8,9,1,I,7,L,1,S,9,0.767282,0.346559,0.265908
4,37,1,8,2,1,1,I,7,L,1,S,10,0.385019,0.775881,0.298728
4,38,8,1,2,8,1,I,7,L,6,S,11,0.752244,0.508465,0.38249
4,39,9,1,9,1,1,C,8,L,8,L,8,0.816362,0.255641,0.208695
4,40,9,8,8,2,1,C,1,S,6,S,10,0.764541,0.378001,0.288997
4,41,9,8,2,1,1,C,1,S,1,S,12,0.783925,0.402528,0.315551
4,42,1,9,1,9,1,C,8,L,8,L,8,0.253492,0.817456,0.207219
4,43,1,2,1,8,1,C,1,S,7,L,10,0.331759,0.820136,0.272087
4,44,9,8,2,9,1,I,1,S,7,L,21,0.77865,0.638373,0.497069
4,45,9,2,9,2,1,C,7,L,7,L,8,0.75864,0.300009,0.227599
4,46,9,1,2,1,1,C,8,L,1,S,9,0.80505,0.309518,0.249177
4,47,2,8,2,8,1,C,6,S,6,S,9,0.271952,0.85692,0.233042
4,48,8,2,2,1,1,C,6,S,1,S,9,0.77093,0.33488,0.258169
4,49,9,2,9,1,1,C,7,L,8,L,8,0.78875,0.276972,0.218462
4,50,1,9,1,2,1,C,8,L,1,S,9,0.28105,0.843224,0.236988
4,51,2,8,9,2,1,I,6,S,7,L,13,0.544618,0.779204,0.424369
4,52,8,9,9,1,1,I,1,S,8,L,20,0.63825,0.776943,0.495884
4,53,2,8,2,1,1,I,6,S,1,S,11,0.406696,0.797203,0.324219
4,54,8,2,2,9,1,I,6,S,7,L,12,0.765606,0.529335,0.405262
4,55,1,2,8,1,1,I,1,S,7,L,20,0.638964,0.773554,0.494273
4,56,8,2,2,8,1,I,6,S,6,S,12,0.758834,0.538272,0.408459
4,57,9,1,9,8,1,C,8,L,1,S,9,0.775446,0.338068,0.262153
4,58,8,9,1,9,1,C,1,S,8,L,10,0.335377,0.815888,0.27363
4,59,9,8,8,1,1,C,1,S,7,L,10,0.805773,0.346619,0.279296
4,60,2,1,2,1,1,C,1,S,1,S,11,0.766347,0.396653,0.303974
4,61,9,8,1,2,1,I,1,S,1,S,18,0.762906,0.600499,0.458124
4,62,1,2,9,2,1,I,1,S,7,L,19,0.641239,0.758033,0.48608
4,63,8,2,9,1,1,C,6,S,8,L,8,0.786713,0.277986,0.218695
4,64,1,8,9,8,1,I,7,L,1,S,10,0.343113,0.814913,0.279608
4,65,9,1,9,2,1,C,8,L,7,L,8,0.786252,0.278678,0.219111
4,66,9,1,8,2,1,C,8,L,6,S,8,0.774841,0.287746,0.222958
4,67,8,2,9,2,1,C,6,S,7,L,8,0.756603,0.301023,0.227755
4,68,2,8,1,8,1,C,6,S,7,L,8,0.304566,0.75363,0.22953
4,69,2,1,8,2,1,C,1,S,6,S,10,0.800367,0.349554,0.279772
4,70,1,8,1,2,1,C,7,L,1,S,9,0.316245,0.793854,0.251052
4,71,9,8,1,9,1,I,1,S,8,L,21,0.775427,0.642731,0.498391
4,72,9,8,9,1,1,C,1,S,8,L,10,0.815496,0.339086,0.276524
4,73,9,2,1,8,1,I,7,L,7,L,12,0.757505,0.542808,0.41118
4,74,9,2,9,8,1,C,7,L,1,S,10,0.822302,0.338748,0.278553
4,75,1,2,2,1,1,I,1,S,1,S,16,0.53524,0.777052,0.41591
4,76,2,9,1,9,1,C,7,L,8,L,8,0.272342,0.797042,0.217068
4,77,9,8,1,8,0,I,1,S,7,L,13,0.514235,0.750946,0.386163
4,78,8,2,8,9,1,I,6,S,1,S,10,0.810785,0.350503,0.284183
4,79,9,1,1,9,1,I,8,L,8,L,11,0.756835,0.504933,0.382151
4,80,9,2,2,1,1,C,7,L,1,S,9,0.773324,0.333626,0.258001
4,81,1,8,1,8,1,C,7,L,7,L,8,0.279586,0.780927,0.218336
4,82,1,9,2,1,1,I,8,L,1,S,9,0.358064,0.75996,0.272115
4,83,9,2,1,9,1,I,7,L,8,L,12,0.763865,0.534445,0.408244
4,84,1,9,8,9,1,C,8,L,1,S,9,0.322407,0.795947,0.256619
4,85,1,8,1,9,1,C,7,L,8,L,8,0.284688,0.773892,0.220318
4,86,2,8,9,1,1,I,6,S,8,L,13,0.579232,0.751318,0.435187
4,87,2,8,8,9,1,C,6,S,1,S,10,0.365077,0.789114,0.288087
4,88,1,2,2,8,1,C,1,S,6,S,10,0.335644,0.814009,0.273217
4,89,8,9,2,9,1,C,1,S,7,L,10,0.339606,0.809275,0.274834
4,90,1,8,2,9,1,C,7,L,7,L,8,0.288,0.768497,0.221327
4,91,1,8,8,1,1,I,7,L,7,L,12,0.539509,0.757832,0.408857
4,92,8,1,1,8,1,I,7,L,7,L,12,0.789801,0.516946,0.408285
4,93,9,2,8,2,1,C,7,L,6,S,9,0.856336,0.272969,0.233753
4,94,2,1,9,8,1,C,1,S,1,S,12,0.765407,0.425437,0.325633
4,95,8,2,9,8,1,C,6,S,1,S,10,0.819655,0.340199,0.278846
4,96,1,9,9,1,1,I,8,L,8,L,11,0.507163,0.762277,0.386599
4,97,8,9,1,8,1,C,1,S,7,L,10,0.329259,0.82426,0.271394
4,98,2,9,9,2,1,I,7,L,7,L,11,0.491957,0.766978,0.37732
4,99,2,8,8,2,1,I,6,S,6,S,12,0.529882,0.753203,0.399108
4,100,9,8,9,8,1,C,1,S,1,S,13,0.757022,0.445866,0.33753
4,101,2,9,9,1,1,I,7,L,8,L,12,0.530198,0.780666,0.413907
4,102,8,1,2,1,1,C,7,L,1,S,9,0.802939,0.310572,0.24937
4,103,8,9,1,2,1,C,1,S,1,S,11,0.388514,0.777024,0.301885
4,104,8,9,9,2,1,I,1,S,7,L,19,0.634953,0.766747,0.486849
4,105,2,9,8,9,1,C,7,L,1,S,9,0.342813,0.773261,0.265084
4,106,2,1,2,8,1,I,1,S,6,S,18,0.756199,0.641815,0.48534
4,107,2,9,2,9,1,C,7,L,7,L,8,0.275654,0.791646,0.218221
4,108,9,1,1,2,1,I,8,L,1,S,10,0.791402,0.388678,0.307601
4,109,9,1,2,8,1,I,8,L,6,S,11,0.754599,0.507165,0.382706
4,110,8,9,2,8,1,C,1,S,6,S,10,0.333144,0.818133,0.272556
4,111,2,1,1,9,1,I,1,S,8,L,18,0.757599,0.640743,0.485426
4,112,8,1,8,2,1,C,7,L,6,S,8,0.772983,0.288619,0.223097
4,113,1,2,2,9,1,C,1,S,7,L,10,0.342106,0.805151,0.275447
4,114,8,9,2,1,1,I,1,S,1,S,15,0.533431,0.754571,0.402511
4,115,8,2,1,9,1,I,6,S,8,L,12,0.761019,0.536133,0.408008
4,116,1,9,1,8,1,C,8,L,7,L,8,0.24839,0.824491,0.204795
4,117,2,1,1,8,1,I,1,S,7,L,18,0.752721,0.646563,0.486681
4,118,1,2,9,8,1,I,1,S,1,S,13,0.4434,0.764309,0.338894
4,119,9,2,8,9,1,I,7,L,1,S,10,0.813432,0.349052,0.28393
4,120,2,9,2,8,1,C,7,L,6,S,8,0.270336,0.798956,0.215986
4,121,9,2,2,9,1,I,7,L,7,L,12,0.768452,0.527647,0.405471
4,122,8,1,9,8,1,C,7,L,1,S,9,0.773335,0.339122,0.262255
4,123,2,8,1,9,1,C,6,S,8,L,9,0.274113,0.854774,0.234304
4,124,9,2,2,8,1,I,7,L,6,S,12,0.76168,0.536583,0.408705
4,125,2,8,2,9,1,C,6,S,7,L,9,0.277955,0.848621,0.235878
4,126,8,1,1,2,1,I,7,L,1,S,10,0.789129,0.389876,0.307662
4,127,2,1,8,1,1,C,1,S,7,L,9,0.756613,0.348475,0.26366
4,128,1,9,8,1,1,I,8,L,7,L,11,0.497426,0.769952,0.382994
4,129,1,2,9,1,1,I,1,S,8,L,20,0.644307,0.768699,0.495278
4,130,8,2,1,2,1,I,6,S,1,S,10,0.754615,0.416107,0.314001
4,131,2,9,1,8,1,C,7,L,7,L,8,0.26724,0.804077,0.214881
4,132,1,8,8,9,1,C,7,L,1,S,10,0.334243,0.825218,0.275824
4,133,8,9,8,9,1,C,1,S,1,S,13,0.413895,0.7981,0.330329
4,134,1,8,9,2,1,I,7,L,7,L,12,0.513006,0.778581,0.399417
4,135,8,9,8,1,1,I,1,S,7,L,19,0.651566,0.752136,0.490066
4,136,1,2,8,9,1,C,1,S,1,S,13,0.418858,0.790381,0.331057
4,137,9,8,9,2,1,C,1,S,7,L,10,0.779453,0.366534,0.285696
4,138,8,9,9,8,1,I,1,S,1,S,13,0.438437,0.772028,0.338485
4,139,9,2,1,2,1,I,7,L,1,S,10,0.757262,0.414656,0.314004
4,140,8,1,1,9,1,I,7,L,8,L,11,0.754481,0.506233,0.381943
4,141,1,2,1,2,1,C,1,S,1,S,11,0.391851,0.7717,0.302392
4,142,8,9,8,2,1,I,1,S,6,S,19,0.62514,0.77553,0.484815
4,143,9,1,2,9,1,I,8,L,7,L,11,0.761307,0.498125,0.379226
4,144,9,1,1,8,1,I,8,L,7,L,11,0.750513,0.513427,0.385334
5,1,1,9,8,2,1,I,8,L,6,S,11,0.475982,0.78463,0.37347
5,2,1,2,9,2,1,I,1,S,7,L,17,0.618049,0.768728,0.475111
5,3,8,2,9,8,1,C,6,S,1,S,10,0.817984,0.339704,0.277872
5,4,1,2,8,9,1,C,1,S,1,S,11,0.389217,0.774488,0.301444
5,5,9,2,8,9,1,I,7,L,1,S,10,0.778283,0.381893,0.297221
5,6,9,1,1,8,1,I,8,L,7,L,11,0.772654,0.495575,0.382908
5,7,2,8,8,9,1,C,6,S,1,S,9,0.332157,0.77976,0.259003
5,8,1,9,1,8,1,C,8,L,7,L,8,0.258322,0.81312,0.210046
5,9,8,1,9,1,1,C,7,L,8,L,8,0.805688,0.269232,0.216917
5,10,1,2,2,1,1,I,1,S,1,S,13,0.467408,0.770177,0.359987
5,11,1,2,1,8,1,C,1,S,7,L,9,0.341457,0.762066,0.260213
5,12,2,1,9,8,1,C,1,S,1,S,12,0.75198,0.433935,0.326311
5,13,8,2,2,8,1,I,6,S,6,S,13,0.780596,0.540561,0.42196
5,14,2,9,8,9,1,C,7,L,1,S,9,0.316309,0.798536,0.252584
5,15,2,8,1,8,1,C,6,S,7,L,8,0.282114,0.785247,0.22153
5,16,1,8,2,9,1,C,7,L,7,L,8,0.264222,0.805026,0.212706
5,17,1,8,1,2,1,C,7,L,1,S,9,0.298706,0.822321,0.245632
5,18,9,8,8,9,1,I,1,S,1,S,20,0.767106,0.593857,0.455552
5,19,2,1,8,9,1,I,1,S,1,S,17,0.777533,0.54193,0.421369
5,20,1,2,8,2,1,I,1,S,6,S,17,0.616618,0.768378,0.473796
5,21,9,8,2,9,0,I,1,S,7,L,11,0.437847,0.753468,0.329904
5,22,8,9,1,2,1,C,1,S,1,S,11,0.38472,0.78371,0.301509
5,23,8,9,2,8,1,C,1,S,6,S,10,0.346928,0.800898,0.277854
5,24,1,2,8,1,1,I,1,S,7,L,17,0.637667,0.751595,0.479267
5,25,8,1,1,8,1,I,7,L,7,L,11,0.7532,0.510628,0.384605
5,26,2,9,9,1,1,I,7,L,8,L,11,0.515389,0.752726,0.387947
5,27,8,2,8,2,1,C,6,S,6,S,9,0.840382,0.283748,0.238456
5,28,8,2,2,9,1,I,6,S,7,L,13,0.759382,0.56751,0.430957
5,29,2,8,8,1,1,I,6,S,7,L,12,0.533641,0.773628,0.41284
5,30,2,8,2,1,1,I,6,S,1,S,10,0.367375,0.802113,0.294676
5,31,9,1,2,9,1,I,8,L,7,L,11,0.764625,0.503706,0.385146
5,32,9,1,8,1,1,C,8,L,7,L,8,0.821446,0.255439,0.209829
5,33,8,9,8,1,1,I,1,S,7,L,19,0.646423,0.761841,0.492472
5,34,1,8,9,2,1,I,7,L,7,L,11,0.491505,0.76844,0.377692
5,35,1,9,2,1,1,I,8,L,1,S,9,0.354068,0.764082,0.270537
5,36,1,9,9,1,1,I,8,L,8,L,11,0.504342,0.76598,0.386316
5,37,8,9,9,2,1,I,1,S,7,L,19,0.629839,0.776677,0.489181
5,38,9,2,2,9,1,I,7,L,7,L,13,0.787956,0.544987,0.429426
5,39,8,9,2,9,1,C,1,S,7,L,10,0.326437,0.828438,0.270433
5,40,9,8,2,1,1,C,1,S,1,S,13,0.762507,0.440498,0.335883
5,41,9,1,1,9,1,I,8,L,8,L,11,0.754561,0.519269,0.39182
5,42,1,2,9,8,1,I,1,S,1,S,13,0.465404,0.774784,0.360587
5,43,1,9,8,1,1,I,8,L,7,L,11,0.503522,0.764958,0.385173
5,44,9,2,1,2,1,I,7,L,1,S,11,0.803773,0.416134,0.334477
5,45,9,2,8,2,1,C,7,L,6,S,8,0.754374,0.302071,0.227875
5,46,9,2,1,8,1,I,7,L,7,L,12,0.757626,0.539112,0.408445
5,47,8,9,8,2,1,I,1,S,6,S,19,0.628096,0.776654,0.487813
5,48,8,1,2,9,1,I,7,L,7,L,12,0.787424,0.520412,0.409785
5,49,2,1,1,9,0,I,1,S,8,L,12,0.473242,0.762877,0.361025
5,50,9,1,8,9,1,I,8,L,1,S,9,0.762276,0.357561,0.27256
5,51,8,9,1,8,1,C,1,S,7,L,10,0.334457,0.820245,0.274337
5,52,9,8,2,8,0,I,1,S,6,S,12,0.461118,0.757432,0.349266
5,53,2,9,9,8,1,I,7,L,1,S,9,0.364434,0.754498,0.274964
5,54,8,1,8,2,1,C,7,L,6,S,8,0.783137,0.283072,0.221685
5,55,9,2,9,8,1,C,7,L,1,S,9,0.758888,0.349379,0.26514
5,56,9,1,9,2,1,C,8,L,7,L,8,0.799366,0.272572,0.217884
5,57,2,9,8,2,1,I,7,L,6,S,11,0.487029,0.771376,0.375682
5,58,2,1,9,1,1,C,1,S,8,L,10,0.802568,0.353754,0.283912
5,59,2,8,2,9,1,C,6,S,7,L,8,0.274891,0.792295,0.217795
5,60,9,2,1,9,1,I,7,L,8,L,13,0.777739,0.559984,0.435521
5,61,9,2,8,1,1,C,7,L,7,L,8,0.776498,0.286785,0.222688
5,62,8,1,9,2,1,C,7,L,7,L,8,0.783182,0.284919,0.223144
5,63,1,9,1,9,1,C,8,L,8,L,8,0.243274,0.833335,0.202729
5,64,9,8,1,9,0,I,1,S,8,L,11,0.427783,0.769031,0.328978
5,65,2,8,1,9,1,C,6,S,8,L,8,0.267067,0.805462,0.215112
5,66,1,8,1,9,1,C,7,L,8,L,8,0.256398,0.818192,0.209783
5,67,9,1,9,8,1,C,8,L,1,S,9,0.810401,0.313523,0.254079
5,68,1,9,9,8,1,I,8,L,1,S,9,0.354083,0.767111,0.271621
5,69,1,8,8,9,1,C,7,L,1,S,9,0.320289,0.79426,0.254393
5,70,8,2,8,9,1,I,6,S,1,S,10,0.750976,0.402564,0.302316
5,71,1,8,1,8,1,C,7,L,7,L,8,0.271445,0.797978,0.216607
5,72,2,1,2,9,0,I,1,S,7,L,13,0.501287,0.761207,0.381583
5,73,2,1,2,1,1,C,1,S,1,S,12,0.753497,0.429621,0.323718
5,74,2,1,9,2,1,C,1,S,7,L,10,0.775151,0.373109,0.289216
5,75,1,9,1,2,1,C,8,L,1,S,9,0.284376,0.83921,0.238651
5,76,2,8,8,2,1,I,6,S,6,S,11,0.50416,0.751186,0.378718
5,77,2,9,1,2,1,C,7,L,1,S,9,0.294727,0.826596,0.24362
5,78,1,9,2,8,1,C,8,L,6,S,8,0.26796,0.797651,0.213739
5,79,9,8,8,1,1,C,1,S,7,L,10,0.778282,0.374665,0.291595
5,80,8,2,8,1,1,C,6,S,7,L,8,0.756177,0.302748,0.228931
5,81,2,9,2,1,1,I,7,L,1,S,9,0.364419,0.751469,0.273849
5,82,8,9,9,1,1,I,1,S,8,L,19,0.648377,0.761591,0.493798
5,83,2,9,2,9,1,C,7,L,7,L,8,0.260554,0.808837,0.210746
5,84,2,8,9,1,1,I,6,S,8,L,12,0.534625,0.774465,0.414049
5,85,1,8,2,8,1,C,7,L,6,S,8,0.281084,0.782509,0.219951
5,86,2,1,2,8,1,I,1,S,6,S,21,0.772549,0.641936,0.495927
5,87,1,2,2,8,1,C,1,S,6,S,10,0.320427,0.832356,0.26671
5,88,9,2,9,2,1,C,7,L,7,L,8,0.754418,0.303918,0.229281
5,89,8,1,1,2,1,I,7,L,1,S,10,0.78567,0.395453,0.310696
5,90,8,9,2,1,1,I,1,S,1,S,14,0.502934,0.753725,0.379074
5,91,9,1,1,2,1,I,8,L,1,S,10,0.80489,0.380817,0.306516
5,92,2,9,9,2,1,I,7,L,7,L,11,0.487327,0.772925,0.376667
5,93,8,2,1,9,1,I,6,S,8,L,14,0.784651,0.576477,0.452333
5,94,2,8,2,8,1,C,6,S,6,S,8,0.291753,0.769779,0.224585
5,95,8,2,1,8,1,I,6,S,7,L,13,0.766898,0.560253,0.429656
5,96,1,2,1,2,1,C,1,S,1,S,11,0.352559,0.823551,0.29035
5,97,8,2,2,1,1,C,6,S,1,S,10,0.818424,0.336226,0.275176
5,98,8,1,8,1,1,C,7,L,7,L,8,0.805262,0.267787,0.215638
5,99,8,9,9,8,1,I,1,S,1,S,14,0.500592,0.758485,0.379691
5,100,8,2,9,2,1,C,6,S,7,L,9,0.840444,0.285562,0.239999
5,101,1,8,8,2,1,I,7,L,6,S,11,0.491207,0.766891,0.376702
5,102,1,9,9,2,1,I,8,L,7,L,11,0.47628,0.786179,0.374441
5,103,2,9,1,8,1,C,7,L,7,L,8,0.267778,0.801789,0.214701
5,104,8,1,2,8,1,I,7,L,6,S,11,0.766447,0.490584,0.376007
5,105,9,8,1,8,0,I,1,S,7,L,12,0.447483,0.777528,0.347931
5,106,8,1,9,8,1,C,7,L,1,S,9,0.792221,0.327272,0.259272
5,107,8,1,2,1,1,C,7,L,1,S,9,0.792206,0.324244,0.256868
5,108,1,2,1,9,1,C,1,S,8,L,9,0.324805,0.784505,0.254811
5,109,9,2,2,1,1,C,7,L,1,S,9,0.758873,0.346351,0.262836
5,110,2,8,9,8,1,I,6,S,1,S,10,0.366936,0.805591,0.2956
5,111,2,1,8,2,1,C,1,S,6,S,10,0.774998,0.371401,0.287835
5,112,9,2,2,8,1,I,7,L,6,S,12,0.771261,0.519016,0.400297
5,113,2,1,8,1,1,C,1,S,7,L,10,0.801904,0.352557,0.282717
5,114,1,9,8,9,1,C,8,L,1,S,9,0.305959,0.811149,0.248178
5,115,2,1,1,8,0,I,1,S,7,L,13,0.508802,0.753949,0.383611
5,116,9,8,9,1,1,C,1,S,8,L,10,0.778946,0.375861,0.292776
5,117,9,1,8,2,1,C,8,L,6,S,8,0.799322,0.270725,0.216396
5,118,2,8,1,2,1,C,6,S,1,S,9,0.310575,0.80782,0.250889
5,119,8,2,9,1,1,C,6,S,8,L,8,0.756604,0.304194,0.230154
5,120,1,8,9,1,1,I,7,L,8,L,12,0.521687,0.789879,0.412069
5,121,1,2,9,1,1,I,1,S,8,L,17,0.639394,0.751593,0.480564
5,122,9,8,9,2,1,C,1,S,7,L,10,0.751529,0.395216,0.297017
5,123,1,2,2,9,1,C,1,S,7,L,9,0.333691,0.769927,0.256918
5,124,2,8,9,2,1,I,6,S,7,L,11,0.504457,0.752735,0.379723
5,125,2,1,1,2,1,I,1,S,1,S,19,0.775854,0.602706,0.467612
5,126,2,9,8,1,1,I,7,L,7,L,11,0.514569,0.751704,0.386804
5,127,2,9,1,9,1,C,7,L,8,L,8,0.25273,0.822004,0.207745
5,128,1,8,2,1,1,I,7,L,1,S,10,0.354757,0.817572,0.290039
5,129,8,9,8,9,1,C,1,S,1,S,12,0.388552,0.802723,0.3119
5,130,1,8,9,8,1,I,7,L,1,S,9,0.368413,0.750222,0.276392
5,131,9,1,9,1,1,C,8,L,8,L,8,0.821873,0.256885,0.211127
5,132,9,8,9,8,1,C,1,S,1,S,13,0.760503,0.445105,0.338504
5,133,1,8,8,1,1,I,7,L,7,L,12,0.520703,0.789042,0.410856
5,134,2,9,2,8,1,C,7,L,6,S,8,0.277416,0.786321,0.218138
5,135,8,9,1,9,1,C,1,S,8,L,9,0.345592,0.76109,0.263026
5,136,9,1,2,8,1,I,8,L,6,S,11,0.785902,0.475531,0.373721
5,137,8,1,1,9,1,I,7,L,8,L,12,0.777181,0.535819,0.416428
5,138,9,1,2,1,1,C,8,L,1,S,9,0.810386,0.310494,0.25162
5,139,8,2,1,2,1,I,6,S,1,S,11,0.774955,0.438078,0.339491
5,140,1,9,2,9,1,C,8,L,7,L,8,0.251098,0.820168,0.205943
5,141,9,8,8,2,1,C,1,S,6,S,10,0.751376,0.393508,0.295673
5,142,9,8,1,2,1,I,1,S,1,S,22,0.772761,0.629478,0.486436
5,143,9,2,9,1,1,C,7,L,8,L,8,0.776925,0.288231,0.223934
5,144,8,1,8,9,1,I,7,L,1,S,10,0.814523,0.357508,0.291198
6,1,9,2,9,1,1,C,7,L,8,L,8,0.84854,0.233385,0.198037
6,2,8,2,8,9,1,I,6,S,1,S,9,0.776595,0.340059,0.264088
6,3,2,1,9,2,1,C,1,S,7,L,9,0.76305,0.338357,0.258183
6,4,8,1,1,8,1,I,7,L,7,L,11,0.775011,0.493602,0.382547
6,5,8,1,2,8,1,I,7,L,6,S,10,0.755395,0.449526,0.33957
6,6,1,2,9,1,1,I,1,S,8,L,16,0.6108,0.77382,0.472649
6,7,1,2,1,2,1,C,1,S,1,S,10,0.349253,0.791352,0.276382
6,8,1,8,2,8,1,C,7,L,6,S,8,0.254485,0.825968,0.210196
6,9,8,1,8,2,1,C,7,L,6,S,8,0.793236,0.274949,0.218099
6,10,1,9,2,9,1,C,8,L,7,L,8,0.233534,0.851475,0.198848
6,11,9,8,1,8,1,I,1,S,7,L,19,0.757835,0.647373,0.490602
6,12,9,2,9,2,1,C,7,L,7,L,8,0.805889,0.264176,0.212897
6,13,1,9,9,8,1,I,8,L,1,S,9,0.304497,0.834394,0.25407
6,14,9,1,9,8,1,C,8,L,1,S,9,0.82765,0.30164,0.249652
6,15,9,2,8,9,1,I,7,L,1,S,9,0.803593,0.319598,0.256827
6,16,2,1,2,1,1,C,1,S,1,S,10,0.829306,0.3218,0.266871
6,17,1,2,9,2,1,I,1,S,7,L,15,0.576247,0.778438,0.448572
6,18,1,2,2,1,1,I,1,S,1,S,14,0.551618,0.768657,0.424005
6,19,1,8,2,9,1,C,7,L,7,L,8,0.242923,0.840403,0.204153
6,20,1,8,8,1,1,I,7,L,7,L,10,0.478507,0.756468,0.361976
6,21,8,9,9,8,1,I,1,S,1,S,14,0.480994,0.763612,0.367292
6,22,2,1,1,2,1,I,1,S,1,S,13,0.768152,0.501629,0.385327
6,23,8,1,9,8,1,C,7,L,1,S,9,0.801473,0.321551,0.257714
6,24,9,1,1,8,1,I,8,L,7,L,10,0.754657,0.46672,0.352214
6,25,1,8,8,9,1,C,7,L,1,S,9,0.296684,0.837527,0.248481
6,26,2,8,2,8,1,C,6,S,6,S,9,0.290895,0.830327,0.241538
6,27,2,9,1,8,1,C,7,L,7,L,8,0.285749,0.774637,0.221352
6,28,8,9,2,8,1,C,1,S,6,S,10,0.373126,0.768894,0.286895
6,29,9,8,1,2,1,I,1,S,1,S,17,0.775104,0.578438,0.44835
6,30,8,2,2,8,1,I,6,S,6,S,11,0.79664,0.458287,0.36509
6,31,9,8,8,2,1,C,1,S,6,S,10,0.791169,0.354631,0.280573
6,32,9,8,2,1,1,C,1,S,1,S,10,0.755233,0.380827,0.287613
6,33,8,9,1,9,1,C,1,S,8,L,10,0.334713,0.820537,0.274645
6,34,2,1,8,1,1,C,1,S,7,L,9,0.815541,0.300113,0.244754
6,35,2,8,9,8,1,I,6,S,1,S,10,0.378542,0.77933,0.295009
6,36,1,2,1,8,1,C,1,S,7,L,9,0.314858,0.795407,0.25044
6,37,2,9,9,1,1,I,7,L,8,L,12,0.54859,0.753235,0.413218
6,38,1,2,8,2,1,I,1,S,6,S,15,0.582593,0.77279,0.450222
6,39,8,1,9,1,1,C,7,L,8,L,8,0.830473,0.248862,0.206673
6,40,1,9,1,8,1,C,8,L,7,L,8,0.223261,0.866362,0.193425
6,41,2,8,8,1,1,I,6,S,7,L,13,0.571695,0.761708,0.435465
6,42,9,2,1,8,1,I,7,L,7,L,11,0.795378,0.476081,0.378664
6,43,2,1,2,9,1,I,1,S,7,L,15,0.761321,0.594481,0.452591
6,44,9,8,1,9,1,I,1,S,8,L,19,0.750424,0.65558,0.491963
6,45,9,8,2,8,1,I,1,S,6,S,19,0.780114,0.621145,0.484564
6,46,8,9,8,9,1,C,1,S,1,S,13,0.429055,0.779895,0.334618
6,47,1,2,2,9,1,C,1,S,7,L,9,0.326731,0.778164,0.254251
6,48,2,8,1,8,1,C,6,S,7,L,8,0.302368,0.754788,0.228224
6,49,8,2,9,8,1,C,6,S,1,S,9,0.794284,0.325283,0.258367
6,50,8,2,9,1,1,C,6,S,8,L,8,0.824077,0.252005,0.207671
6,51,9,8,8,9,1,I,1,S,1,S,13,0.774262,0.43739,0.338655
6,52,9,1,9,1,1,C,8,L,8,L,8,0.854336,0.230665,0.197065
6,53,9,1,1,9,1,I,8,L,8,L,11,0.791428,0.486013,0.384644
6,54,8,9,8,1,1,I,1,S,7,L,20,0.651565,0.763692,0.497594
6,55,8,2,1,9,1,I,6,S,8,L,11,0.75636,0.511784,0.387093
6,56,8,1,2,1,1,C,7,L,1,S,8,0.76738,0.294427,0.225937
6,57,2,1,8,9,1,I,1,S,1,S,11,0.767243,0.404964,0.310706
6,58,1,8,1,2,1,C,7,L,1,S,8,0.284741,0.784737,0.223447
6,59,9,2,9,8,1,C,7,L,1,S,9,0.821282,0.304822,0.250345
6,60,2,8,8,9,1,C,6,S,1,S,10,0.3538,0.800666,0.283275
6,61,9,8,9,2,1,C,1,S,7,L,10,0.784062,0.360472,0.282632
6,62,9,1,8,9,1,I,8,L,1,S,9,0.809961,0.316416,0.256285
6,63,9,2,2,8,1,I,7,L,6,S,10,0.775896,0.432144,0.335299
6,64,8,2,1,8,1,I,6,S,7,L,11,0.767124,0.49809,0.382097
6,65,1,8,9,1,1,I,7,L,8,L,10,0.474565,0.759894,0.360619
6,66,2,8,1,9,1,C,6,S,8,L,8,0.293486,0.766189,0.224866
6,67,1,9,2,1,1,I,8,L,1,S,9,0.380625,0.770214,0.293162
6,68,8,2,2,9,1,I,6,S,7,L,11,0.78085,0.478723,0.37381
6,69,2,9,1,2,1,C,7,L,1,S,9,0.310553,0.800131,0.248483
6,70,9,1,2,1,1,C,8,L,1,S,8,0.791242,0.276229,0.218564
6,71,1,9,1,9,1,C,8,L,8,L,7,0.250215,0.750386,0.187758
6,72,9,1,2,8,1,I,8,L,6,S,10,0.782586,0.428616,0.335429
6,73,9,8,2,9,1,I,1,S,7,L,19,0.768383,0.634284,0.487373
6,74,2,9,8,2,1,I,7,L,6,S,12,0.502967,0.786896,0.395782
6,75,9,2,1,2,1,I,7,L,1,S,9,0.757834,0.371729,0.281709
6,76,1,8,1,8,1,C,7,L,7,L,8,0.23265,0.85529,0.198983
6,77,2,9,2,1,1,I,7,L,1,S,11,0.461771,0.77293,0.356916
6,78,8,1,1,9,1,I,7,L,8,L,11,0.764247,0.507295,0.387699
6,79,9,2,8,2,1,C,7,L,6,S,8,0.811303,0.259472,0.21051
6,80,8,2,1,2,1,I,6,S,1,S,10,0.794047,0.38857,0.308543
6,81,1,9,1,2,1,C,8,L,1,S,8,0.275352,0.795809,0.219128
6,82,9,2,2,1,1,C,7,L,1,S,8,0.785446,0.278949,0.2191
6,83,8,2,8,2,1,C,6,S,6,S,8,0.78684,0.278091,0.218813
6,84,2,1,9,1,1,C,1,S,8,L,9,0.811691,0.303438,0.246298
6,85,2,8,9,1,1,I,6,S,8,L,13,0.568194,0.764941,0.434635
6,86,1,9,9,1,1,I,8,L,8,L,10,0.464514,0.771594,0.358416
6,87,2,8,8,2,1,I,6,S,6,S,12,0.524749,0.76022,0.398925
6,88,9,1,1,2,1,I,8,L,1,S,9,0.764203,0.368547,0.281645
6,89,2,8,9,2,1,I,6,S,7,L,12,0.517341,0.7664,0.39649
6,90,1,8,9,2,1,I,7,L,7,L,10,0.422403,0.797646,0.336928
6,91,1,2,8,9,1,C,1,S,1,S,11,0.388489,0.785209,0.305045
6,92,8,1,8,9,1,I,7,L,1,S,9,0.783784,0.336327,0.263608
6,93,1,9,9,2,1,I,8,L,7,L,9,0.405801,0.752355,0.305306
6,94,9,2,8,1,1,C,7,L,7,L,8,0.852098,0.230274,0.196216
6,95,1,8,1,9,1,C,7,L,8,L,8,0.223768,0.866691,0.193938
6,96,9,1,8,1,1,C,8,L,7,L,8,0.857894,0.227555,0.195218
6,97,2,1,9,8,1,C,1,S,1,S,11,0.801434,0.374956,0.300503
6,98,8,9,1,8,1,C,1,S,7,L,10,0.345197,0.806998,0.278573
6,99,8,9,1,2,1,C,1,S,1,S,11,0.39185,0.773367,0.303044
6,100,8,1,8,1,1,C,7,L,7,L,8,0.834031,0.245752,0.204965
6,101,2,1,2,8,1,I,1,S,6,S,15,0.776508,0.576264,0.447474
6,102,8,9,8,2,1,I,1,S,6,S,19,0.639324,0.759282,0.485427
6,103,9,1,2,9,1,I,8,L,7,L,10,0.767682,0.448001,0.343922
6,104,2,8,2,1,1,I,6,S,1,S,12,0.485288,0.789568,0.383168
6,105,2,9,8,1,1,I,7,L,7,L,13,0.550157,0.787567,0.433285
6,106,1,8,8,2,1,I,7,L,6,S,10,0.42951,0.791806,0.340088
6,107,2,1,1,8,1,I,1,S,7,L,16,0.780057,0.601064,0.468864
6,108,8,9,2,9,1,C,1,S,7,L,10,0.358222,0.788279,0.282379
6,109,2,1,8,2,1,C,1,S,6,S,9,0.769489,0.332983,0.256227
6,110,2,9,2,8,1,C,7,L,6,S,9,0.271937,0.85375,0.232166
6,111,2,1,1,9,1,I,1,S,8,L,16,0.770916,0.611594,0.471488
6,112,8,9,9,2,1,I,1,S,7,L,19,0.634963,0.76352,0.484807
6,113,1,2,9,8,1,I,1,S,1,S,11,0.42268,0.755202,0.319209
6,114,2,9,8,9,1,C,7,L,1,S,10,0.333211,0.826379,0.275359
6,115,8,2,9,2,1,C,6,S,7,L,8,0.781426,0.282796,0.220984
6,116,9,2,2,9,1,I,7,L,7,L,10,0.760991,0.451529,0.343609
6,117,1,2,8,1,1,I,1,S,7,L,16,0.613509,0.771127,0.473094
6,118,8,2,2,1,1,C,6,S,1,S,8,0.760983,0.297569,0.226445
6,119,8,9,9,1,1,I,1,S,8,L,20,0.649782,0.765637,0.497497
6,120,1,9,2,8,1,C,8,L,6,S,8,0.245096,0.83704,0.205155
6,121,2,8,2,9,1,C,6,S,7,L,9,0.277412,0.847687,0.235159
6,122,1,9,8,2,1,I,8,L,6,S,10,0.419458,0.803506,0.337037
6,123,2,9,1,9,1,C,7,L,8,L,8,0.276867,0.786037,0.217628
6,124,9,1,8,2,1,C,8,L,6,S,8,0.817099,0.256752,0.209792
6,125,8,1,1,2,1,I,7,L,1,S,10,0.801719,0.384389,0.308172
6,126,8,9,2,1,1,I,1,S,1,S,18,0.627472,0.751874,0.471779
6,127,8,1,2,9,1,I,7,L,7,L,11,0.788737,0.474234,0.374046
6,128,1,9,8,9,1,C,8,L,1,S,8,0.307979,0.759376,0.233872
6,129,2,9,9,2,1,I,7,L,7,L,11,0.492873,0.750803,0.37005
6,130,9,1,9,2,1,C,8,L,7,L,8,0.811685,0.261456,0.21222
6,131,9,2,1,9,1,I,7,L,8,L,11,0.784614,0.489774,0.384284
6,132,8,2,8,1,1,C,6,S,7,L,8,0.827635,0.248894,0.205993
6,133,1,2,1,9,1,C,1,S,8,L,9,0.30499,0.808217,0.246498
6,134,1,2,2,8,1,C,1,S,6,S,9,0.340214,0.760805,0.258837
6,135,1,8,2,1,1,I,7,L,1,S,9,0.390501,0.758571,0.296223
6,136,8,1,9,2,1,C,7,L,7,L,8,0.787822,0.279654,0.220317
6,137,9,8,8,1,1,C,1,S,7,L,9,0.759104,0.346882,0.263319
6,138,2,9,2,9,1,C,7,L,7,L,8,0.296022,0.75975,0.224903
6,139,1,9,8,1,1,I,8,L,7,L,10,0.468456,0.768168,0.359853
6,140,9,8,9,8,1,C,1,S,1,S,12,0.770164,0.418628,0.322413
6,141,2,9,9,8,1,I,7,L,1,S,10,0.357954,0.805043,0.288168
6,142,1,8,9,8,1,I,7,L,1,S,9,0.314373,0.822751,0.258651
6,143,9,8,9,1,1,C,1,S,8,L,9,0.755255,0.350207,0.264496
6,144,2,8,1,2,1,C,6,S,1,S,9,0.329512,0.776708,0.255935
7,1,8,2,8,9,1,I,6,S,1,S,10,0.766433,0.398976,0.305788
7,2,1,2,1,9,1,C,1,S,8,L,9,0.342289,0.763636,0.261384
7,3,9,8,9,8,1,C,1,S,1,S,11,0.764454,0.404911,0.309536
7,4,8,9,8,2,0,I,1,S,6,S,13,0.769659,0.479404,0.368978
7,5,1,8,1,2,1,C,7,L,1,S,9,0.312571,0.80227,0.250767
7,6,9,1,2,1,1,C,8,L,1,S,9,0.829196,0.300404,0.249094
7,7,8,9,8,9,1,C,1,S,1,S,12,0.430953,0.756929,0.326201
7,8,2,1,2,9,1,I,1,S,7,L,19,0.762081,0.64611,0.492388
7,9,9,2,8,2,1,C,7,L,6,S,8,0.802217,0.266943,0.214146
7,10,2,1,1,8,1,I,1,S,7,L,20,0.77442,0.646965,0.501023
7,11,8,2,9,8,1,C,6,S,1,S,10,0.825251,0.332677,0.274542
7,12,1,9,8,9,1,C,8,L,1,S,9,0.294805,0.832276,0.245359
7,13,2,1,8,1,1,C,1,S,7,L,10,0.791134,0.357373,0.28273
7,14,2,1,2,8,1,I,1,S,6,S,19,0.759958,0.647274,0.491901
7,15,8,9,2,1,1,I,1,S,1,S,19,0.581074,0.76949,0.447131
7,16,9,2,9,1,1,C,7,L,8,L,8,0.824447,0.251935,0.207707
7,17,9,8,8,2,1,C,1,S,6,S,9,0.760485,0.341813,0.259944
7,18,2,8,1,2,1,C,6,S,1,S,10,0.321147,0.836335,0.268587
7,19,9,8,2,8,1,I,1,S,6,S,16,0.758158,0.619097,0.469373
7,20,8,1,9,2,1,C,7,L,7,L,8,0.796425,0.271155,0.215954
7,21,1,2,9,8,1,I,1,S,1,S,13,0.440748,0.773523,0.340929
7,22,2,8,8,9,1,C,6,S,1,S,9,0.345864,0.759109,0.262549
7,23,1,9,8,2,1,I,8,L,6,S,11,0.472961,0.790523,0.373887
7,24,2,9,1,9,1,C,7,L,8,L,8,0.278014,0.795148,0.221062
7,25,9,2,2,8,1,I,7,L,6,S,11,0.781382,0.486824,0.380396
7,26,9,8,8,1,1,C,1,S,7,L,9,0.755275,0.345937,0.261277
7,27,2,1,9,2,1,C,1,S,7,L,10,0.828091,0.330962,0.274066
7,28,8,1,9,1,1,C,7,L,8,L,8,0.792908,0.27399,0.217249
7,29,2,9,9,2,1,I,7,L,7,L,12,0.54692,0.757586,0.414339
7,30,1,8,9,1,1,I,7,L,8,L,12,0.516153,0.790924,0.408238
7,31,2,1,2,1,1,C,1,S,1,S,12,0.792995,0.401225,0.318169
7,32,8,2,9,2,1,C,6,S,7,L,8,0.781618,0.279226,0.218248
7,33,2,8,9,2,1,I,6,S,7,L,13,0.56438,0.766121,0.432384
7,34,8,2,2,8,1,I,6,S,6,S,12,0.764783,0.529603,0.405032
7,35,1,8,2,8,1,C,7,L,6,S,8,0.271435,0.79579,0.216005
7,36,9,8,9,1,1,C,1,S,8,L,9,0.785832,0.324651,0.255121
7,37,2,9,9,1,1,I,7,L,8,L,12,0.542961,0.760873,0.413125
7,38,8,1,9,8,1,C,7,L,1,S,9,0.762645,0.347591,0.265089
7,39,1,2,2,8,1,C,1,S,6,S,10,0.331855,0.819195,0.271854
7,40,9,1,1,8,1,I,8,L,7,L,11,0.773507,0.508861,0.393607
7,41,8,1,2,1,1,C,7,L,1,S,9,0.779647,0.332833,0.259493
7,42,2,8,9,1,1,I,6,S,8,L,13,0.560609,0.769322,0.431289
7,43,2,1,8,2,1,C,1,S,6,S,10,0.796829,0.352898,0.281199
7,44,1,2,8,9,1,C,1,S,1,S,11,0.393673,0.768725,0.302626
7,45,8,2,1,9,1,I,6,S,8,L,13,0.781948,0.556283,0.434984
7,46,9,2,9,8,1,C,7,L,1,S,9,0.79824,0.322686,0.257581
7,47,9,2,1,9,1,I,7,L,8,L,11,0.761227,0.515647,0.392524
7,48,2,9,8,9,1,C,7,L,1,S,9,0.330933,0.784088,0.25948
7,49,8,2,1,2,1,I,6,S,1,S,10,0.775595,0.385336,0.298865
7,50,1,8,9,2,1,I,7,L,7,L,12,0.520112,0.787636,0.409659
7,51,2,1,9,1,1,C,1,S,8,L,10,0.824027,0.334219,0.275406
7,52,1,8,1,9,1,C,7,L,8,L,8,0.255477,0.819853,0.209453
7,53,1,2,1,2,1,C,1,S,1,S,11,0.405696,0.751018,0.304685
7,54,9,8,1,8,1,I,1,S,7,L,17,0.770267,0.62884,0.484375
7,55,2,8,9,8,1,I,6,S,1,S,10,0.370803,0.783676,0.29059
7,56,2,9,2,8,1,C,7,L,6,S,8,0.293972,0.771085,0.226678
7,57,9,2,8,9,1,I,7,L,1,S,9,0.756002,0.370002,0.279722
7,58,2,9,1,2,1,C,7,L,1,S,9,0.337505,0.773968,0.261218
7,59,1,9,2,9,1,C,8,L,7,L,8,0.265492,0.810475,0.215175
7,60,8,2,9,1,1,C,6,S,8,L,8,0.778101,0.282062,0.219472
7,61,8,1,2,8,1,I,7,L,6,S,12,0.784778,0.517129,0.405832
7,62,1,2,9,1,1,I,1,S,8,L,19,0.638849,0.76649,0.489671
7,63,2,1,8,9,1,I,1,S,1,S,16,0.770576,0.55659,0.428895
7,64,1,2,2,9,1,C,1,S,7,L,10,0.335908,0.815549,0.27395
7,65,9,2,8,1,1,C,7,L,7,L,8,0.797777,0.27056,0.215847
7,66,8,9,2,9,1,C,1,S,7,L,10,0.384529,0.764712,0.294054
7,67,2,8,2,8,1,C,6,S,6,S,8,0.306273,0.750048,0.22972
7,68,2,8,2,9,1,C,6,S,7,L,9,0.273959,0.855848,0.234467
7,69,9,1,2,9,1,I,8,L,7,L,10,0.752615,0.468948,0.352938
7,70,2,9,8,1,1,I,7,L,7,L,12,0.509315,0.785526,0.40008
7,71,8,9,1,8,1,C,1,S,7,L,10,0.358266,0.798885,0.286213
7,72,9,8,2,9,1,I,1,S,7,L,16,0.761112,0.616939,0.46956
7,73,9,1,9,8,1,C,8,L,1,S,9,0.812193,0.315162,0.255972
7,74,9,2,2,1,1,C,7,L,1,S,9,0.815243,0.307928,0.251036
7,75,2,8,2,1,1,I,6,S,1,S,10,0.394736,0.762943,0.301161
7,76,8,1,1,9,1,I,7,L,8,L,12,0.764397,0.545582,0.417041
7,77,9,2,1,2,1,I,7,L,1,S,9,0.762575,0.359882,0.274437
7,78,8,9,9,1,0,I,1,S,8,L,12,0.776474,0.450938,0.350141
7,79,8,2,8,1,1,C,6,S,7,L,8,0.75143,0.300687,0.225945
7,80,1,8,8,9,1,C,7,L,1,S,9,0.305999,0.81239,0.24859
7,81,1,2,8,1,1,I,1,S,7,L,18,0.632293,0.755248,0.477538
7,82,1,9,8,1,1,I,8,L,7,L,11,0.467059,0.795195,0.371403
7,83,1,8,8,2,1,I,7,L,6,S,11,0.486104,0.768828,0.37373
7,84,9,2,1,8,1,I,7,L,7,L,11,0.758507,0.517658,0.392648
7,85,9,8,8,9,1,I,1,S,1,S,13,0.767703,0.491371,0.377227
7,86,9,1,8,1,1,C,8,L,7,L,8,0.810375,0.264088,0.21401
7,87,9,2,2,9,1,I,7,L,7,L,11,0.785426,0.483194,0.379513
7,88,2,8,8,2,1,I,6,S,6,S,12,0.534586,0.750903,0.401422
7,89,1,9,9,1,1,I,8,L,8,L,11,0.500879,0.77095,0.386153
7,90,8,9,1,9,1,C,1,S,8,L,10,0.361078,0.796753,0.28769
7,91,9,1,1,2,1,I,8,L,1,S,9,0.776528,0.352358,0.273616
7,92,2,9,1,8,1,C,7,L,7,L,8,0.275259,0.797169,0.219428
7,93,1,8,2,9,1,C,7,L,7,L,8,0.275092,0.792759,0.218081
7,94,1,9,1,8,1,C,8,L,7,L,8,0.243122,0.83959,0.204123
7,95,8,2,2,9,1,I,6,S,7,L,12,0.768715,0.526141,0.404452
7,96,9,8,1,2,1,I,1,S,1,S,13,0.785189,0.465642,0.365617
7,97,8,9,2,8,1,C,1,S,6,S,10,0.380476,0.768357,0.292342
7,98,1,8,8,1,1,I,7,L,7,L,11,0.480201,0.7735,0.371436
7,99,8,2,2,1,1,C,6,S,1,S,9,0.762412,0.342555,0.261168
7,100,2,1,1,2,1,I,1,S,1,S,15,0.759935,0.530709,0.403304
7,101,9,2,9,2,1,C,7,L,7,L,8,0.827965,0.2491,0.206246
7,102,8,9,8,1,0,I,1,S,7,L,13,0.763958,0.484084,0.36982
7,103,1,2,2,1,1,I,1,S,1,S,14,0.493024,0.763011,0.376183
7,104,1,2,1,8,1,C,1,S,7,L,9,0.339457,0.765783,0.25995
7,105,2,1,9,8,1,C,1,S,1,S,13,0.808518,0.407331,0.329335
7,106,9,1,1,9,1,I,8,L,8,L,11,0.776227,0.506849,0.39343
7,107,1,9,1,9,1,C,8,L,8,L,8,0.245877,0.837569,0.205939
7,108,2,9,2,9,1,C,7,L,7,L,8,0.297629,0.768054,0.228595
7,109,1,9,9,2,1,I,8,L,7,L,11,0.504949,0.767638,0.387618
7,110,1,9,2,1,1,I,8,L,1,S,9,0.354046,0.770202,0.272687
7,111,1,8,1,8,1,C,7,L,7,L,8,0.252722,0.821873,0.207705
7,112,8,9,9,8,1,I,1,S,1,S,16,0.492935,0.764563,0.37688
7,113,2,9,2,1,1,I,7,L,1,S,10,0.377713,0.790721,0.298666
7,114,9,1,2,8,1,I,8,L,6,S,11,0.796382,0.478026,0.380691
7,115,1,8,9,8,1,I,7,L,1,S,9,0.348237,0.765073,0.266427
7,116,9,8,9,2,1,C,1,S,7,L,9,0.789725,0.321548,0.253934
7,117,8,2,1,8,1,I,6,S,7,L,13,0.779552,0.557878,0.434895
7,118,2,8,1,8,1,C,6,S,7,L,8,0.28756,0.776131,0.223185
7,119,2,1,1,9,1,I,1,S,8,L,20,0.775468,0.646933,0.501676
7,120,8,1,2,9,1,I,7,L,7,L,12,0.788709,0.513667,0.405134
7,121,9,8,1,9,1,I,1,S,8,L,17,0.77185,0.628214,0.484887
7,122,9,1,8,9,1,I,8,L,1,S,9,0.769955,0.362478,0.279092
7,123,2,9,8,2,1,I,7,L,6,S,12,0.515198,0.780795,0.402264
7,124,9,1,9,2,1,C,8,L,7,L,8,0.840563,0.242627,0.203944
7,125,9,8,2,1,1,C,1,S,1,S,11,0.797458,0.376656,0.300368
7,126,1,2,8,2,1,I,1,S,6,S,18,0.636233,0.751669,0.478237
7,127,8,9,9,2,0,I,1,S,7,L,11,0.751029,0.442894,0.332626
7,128,1,9,9,8,1,I,8,L,1,S,9,0.337043,0.78496,0.264565
7,129,8,1,8,2,1,C,7,L,6,S,8,0.770677,0.288998,0.222724
7,130,2,8,8,1,1,I,6,S,7,L,12,0.528703,0.755635,0.399506
7,131,8,2,8,2,1,C,6,S,6,S,8,0.75587,0.297069,0.224546
7,132,2,8,1,9,1,C,6,S,8,L,8,0.290315,0.774111,0.224736
7,133,8,1,8,1,1,C,7,L,7,L,8,0.766237,0.292615,0.224213
7,134,8,9,1,2,1,C,1,S,1,S,13,0.414042,0.79466,0.329023
7,135,1,2,9,2,1,I,1,S,7,L,19,0.641178,0.764289,0.490045
7,136,9,1,8,2,1,C,8,L,6,S,8,0.814815,0.26047,0.212235
7,137,8,1,1,8,1,I,7,L,7,L,12,0.761822,0.547405,0.417025
7,138,1,9,2,8,1,C,8,L,6,S,8,0.261835,0.813506,0.213005
7,139,9,1,9,1,1,C,8,L,8,L,8,0.837046,0.245463,0.205463
7,140,8,1,8,9,1,I,7,L,1,S,10,0.785313,0.387957,0.304668
7,141,8,1,1,2,1,I,7,L,1,S,10,0.794475,0.374318,0.297386
7,142,2,9,9,8,1,I,7,L,1,S,10,0.35378,0.811454,0.287076
7,143,1,9,1,2,1,C,8,L,1,S,9,0.301378,0.822157,0.24778
7,144,1,8,2,1,1,I,7,L,1,S,9,0.365239,0.750315,0.274045
8,1,1,2,9,8,1,I,1,S,1,S,13,0.442004,0.782051,0.34567
8,2,8,1,8,2,1,C,7,L,6,S,8,0.812911,0.26277,0.213608
8,3,9,8,2,8,0,I,1,S,6,S,10,0.36806,0.778225,0.286433
8,4,9,2,8,2,1,C,7,L,6,S,9,0.836839,0.289549,0.242306
8,5,2,8,9,2,1,I,6,S,7,L,10,0.442899,0.766724,0.339581
8,6,9,2,9,1,1,C,7,L,8,L,8,0.760398,0.301421,0.2292
8,7,9,2,2,8,1,I,7,L,6,S,12,0.784395,0.501711,0.39354
8,8,1,9,2,8,1,C,8,L,6,S,8,0.304528,0.75397,0.229605
8,9,1,9,1,9,1,C,8,L,8,L,8,0.275755,0.795074,0.219246
8,10,8,2,1,9,1,I,6,S,8,L,13,0.777347,0.558688,0.434295
8,11,2,8,2,9,1,C,6,S,7,L,8,0.273353,0.794803,0.217262
8,12,9,8,1,9,0,I,1,S,8,L,10,0.331061,0.830986,0.275107
8,13,2,8,9,1,1,I,6,S,8,L,11,0.480273,0.790745,0.379774
8,14,2,1,2,9,1,I,1,S,7,L,16,0.7756,0.588544,0.456475
8,15,9,1,8,2,1,C,8,L,6,S,8,0.815382,0.261348,0.213098
8,16,2,9,2,9,1,C,7,L,7,L,8,0.291793,0.769267,0.224467
8,17,1,2,9,1,1,I,1,S,8,L,19,0.631374,0.778855,0.491749
8,18,2,9,9,2,1,I,7,L,7,L,11,0.469811,0.785503,0.369038
8,19,1,2,9,2,1,I,1,S,7,L,18,0.626201,0.767525,0.480625
8,20,2,1,9,1,1,C,1,S,8,L,9,0.771788,0.33094,0.255415
8,21,8,2,8,9,1,I,6,S,1,S,10,0.79309,0.369018,0.292665
8,22,1,2,2,9,1,C,1,S,7,L,10,0.362724,0.782826,0.28395
8,23,2,8,9,8,1,I,6,S,1,S,9,0.32788,0.799479,0.262133
8,24,9,1,1,8,1,I,8,L,7,L,10,0.758945,0.470661,0.357206
8,25,9,1,8,1,1,C,8,L,7,L,8,0.84106,0.241857,0.203417
8,26,2,9,9,8,1,I,7,L,1,S,9,0.34833,0.771176,0.268624
8,27,2,1,1,8,1,I,1,S,7,L,17,0.771982,0.620269,0.478836
8,28,9,8,2,1,0,C,1,S,1,S,16,0.582938,0.754801,0.440003
8,29,8,2,2,8,1,I,6,S,6,S,12,0.779171,0.505296,0.393712
8,30,9,1,9,1,1,C,8,L,8,L,8,0.844891,0.239172,0.202074
8,31,2,9,2,8,1,C,7,L,6,S,8,0.292936,0.768301,0.225063
8,32,1,2,2,8,1,C,1,S,6,S,10,0.364124,0.781463,0.284549
8,33,2,9,8,2,1,I,7,L,6,S,11,0.463083,0.790381,0.366012
8,34,2,9,8,9,1,C,7,L,1,S,9,0.337114,0.781799,0.263556
8,35,8,1,2,9,1,I,7,L,7,L,10,0.790935,0.421641,0.33349
8,36,8,1,8,1,1,C,7,L,7,L,8,0.838589,0.243279,0.204011
8,37,2,8,2,1,1,I,6,S,1,S,9,0.378164,0.750429,0.283786
8,38,1,9,1,2,1,C,8,L,1,S,9,0.296052,0.825755,0.244467
8,39,2,8,1,2,1,C,6,S,1,S,8,0.296907,0.76444,0.226967
8,40,2,9,9,1,1,I,7,L,8,L,11,0.502582,0.760856,0.382393
8,41,8,2,8,1,1,C,6,S,7,L,8,0.752956,0.306435,0.230732
8,42,8,2,2,9,1,I,6,S,7,L,12,0.777711,0.506744,0.3941
8,43,9,8,8,1,0,C,1,S,7,L,19,0.633493,0.776235,0.491739
8,44,8,1,9,8,1,C,7,L,1,S,9,0.827932,0.305922,0.253283
8,45,9,2,1,8,1,I,7,L,7,L,13,0.783249,0.554518,0.434326
8,46,2,1,9,8,1,C,1,S,1,S,11,0.757768,0.409374,0.310211
8,47,2,1,8,9,1,I,1,S,1,S,12,0.79285,0.409685,0.324819
8,48,9,8,9,1,0,C,1,S,8,L,19,0.636637,0.773663,0.492543
8,49,1,8,2,1,1,I,7,L,1,S,10,0.386012,0.79998,0.308802
8,50,9,2,2,1,1,C,7,L,1,S,9,0.785501,0.325208,0.255451
8,51,8,9,2,1,0,I,1,S,1,S,13,0.756851,0.460251,0.348341
8,52,8,1,1,2,1,I,7,L,1,S,9,0.762747,0.376753,0.287367
8,53,2,1,1,9,1,I,1,S,8,L,17,0.771485,0.620515,0.478718
8,54,1,2,8,9,1,C,1,S,1,S,12,0.431433,0.762167,0.328824
8,55,8,9,9,1,0,I,1,S,8,L,11,0.78518,0.405427,0.318333
8,56,2,9,8,1,1,I,7,L,7,L,11,0.497808,0.764301,0.380475
8,57,9,1,9,2,1,C,8,L,7,L,8,0.82002,0.257942,0.211518
8,58,2,8,8,9,1,C,6,S,1,S,9,0.316664,0.810102,0.25653
8,59,1,8,2,8,1,C,7,L,6,S,8,0.284321,0.781649,0.222239
8,60,1,9,8,9,1,C,8,L,1,S,9,0.350021,0.765547,0.267958
8,61,2,9,1,8,1,C,7,L,7,L,8,0.264953,0.808812,0.214297
8,62,9,1,2,1,1,C,8,L,1,S,8,0.775491,0.28939,0.224419
8,63,2,9,1,9,1,C,7,L,8,L,8,0.264163,0.809405,0.213815
8,64,8,2,1,8,1,I,6,S,7,L,13,0.778081,0.558152,0.434288
8,65,1,9,9,1,1,I,8,L,8,L,12,0.518785,0.785475,0.407493
8,66,2,1,2,8,1,I,1,S,6,S,16,0.776796,0.587488,0.456359
8,67,9,1,1,9,1,I,8,L,8,L,10,0.758111,0.471329,0.357319
8,68,8,9,9,8,0,I,1,S,1,S,21,0.753714,0.525915,0.39639
8,69,9,8,8,9,0,I,1,S,1,S,12,0.436731,0.756904,0.330564
8,70,1,9,9,2,1,I,8,L,7,L,11,0.483927,0.767958,0.371635
8,71,8,9,2,9,1,C,1,S,7,L,12,0.417032,0.7945,0.331332
8,72,2,1,1,2,1,I,1,S,1,S,14,0.753153,0.546539,0.411627
8,73,9,8,1,2,0,I,1,S,1,S,11,0.368803,0.809322,0.29848
8,74,9,1,2,9,1,I,8,L,7,L,10,0.79371,0.419932,0.333304
8,75,8,1,2,8,1,I,7,L,6,S,10,0.792335,0.420277,0.333
8,76,1,9,8,2,1,I,8,L,6,S,11,0.477198,0.772836,0.368796
8,77,8,9,9,2,0,I,1,S,7,L,11,0.752409,0.430074,0.323592
8,78,9,1,1,2,1,I,8,L,1,S,9,0.765425,0.37516,0.287157
8,79,1,8,8,9,1,C,7,L,1,S,9,0.32735,0.796731,0.26081
8,80,2,1,2,1,1,C,1,S,1,S,10,0.764809,0.365998,0.279918
8,81,1,9,8,1,1,I,8,L,7,L,12,0.514051,0.788966,0.405569
8,82,1,8,2,9,1,C,7,L,7,L,8,0.283178,0.782615,0.221619
8,83,9,1,8,9,1,I,8,L,1,S,9,0.819394,0.314952,0.258069
8,84,9,2,1,2,1,I,7,L,1,S,11,0.778265,0.448532,0.349076
8,85,1,8,8,1,1,I,7,L,7,L,11,0.48681,0.780366,0.37989
8,86,1,2,1,2,1,C,1,S,1,S,11,0.364141,0.813605,0.296267
8,87,1,9,9,8,1,I,8,L,1,S,9,0.361237,0.754924,0.272707
8,88,9,8,2,9,0,I,1,S,7,L,10,0.36666,0.779589,0.285844
8,89,8,9,1,8,1,C,1,S,7,L,11,0.395457,0.79942,0.316136
8,90,8,1,9,1,1,C,7,L,8,L,8,0.842419,0.240594,0.202681
8,91,9,2,8,1,1,C,7,L,7,L,8,0.756567,0.304106,0.230077
8,92,8,2,9,1,1,C,6,S,8,L,8,0.756786,0.30375,0.229874
8,93,9,2,2,9,1,I,7,L,7,L,12,0.782936,0.503159,0.393941
8,94,2,9,1,2,1,C,7,L,1,S,9,0.283145,0.842008,0.238411
8,95,8,1,2,1,1,C,7,L,1,S,8,0.77302,0.290812,0.224803
8,96,9,2,8,9,1,I,7,L,1,S,10,0.797932,0.365838,0.291914
8,97,8,2,9,8,1,C,6,S,1,S,10,0.80898,0.353768,0.286191
8,98,9,1,9,8,1,C,8,L,1,S,9,0.83061,0.304328,0.252778
8,99,9,8,8,2,0,C,1,S,6,S,18,0.626809,0.765935,0.480095
8,100,1,2,1,9,1,C,1,S,8,L,9,0.356247,0.750874,0.267497
8,101,9,2,1,9,1,I,7,L,8,L,13,0.782515,0.555054,0.434338
8,102,8,1,9,2,1,C,7,L,7,L,8,0.817549,0.259364,0.212043
8,103,8,9,1,9,1,C,1,S,8,L,11,0.394639,0.800066,0.315738
8,104,8,9,1,2,1,C,1,S,1,S,13,0.44089,0.782582,0.345033
8,105,8,2,1,2,1,I,6,S,1,S,11,0.773133,0.45197,0.349433
8,106,2,8,1,9,1,C,6,S,8,L,8,0.245723,0.834941,0.205164
8,107,8,9,8,9,1,C,1,S,1,S,19,0.497869,0.756529,0.376652
8,108,8,2,9,2,1,C,6,S,7,L,9,0.838129,0.288307,0.241638
8,109,1,8,1,2,1,C,7,L,1,S,8,0.306731,0.752251,0.230739
8,110,8,1,8,9,1,I,7,L,1,S,9,0.816716,0.316545,0.258527
8,111,2,8,8,2,1,I,6,S,6,S,10,0.436572,0.771269,0.336714
8,112,1,8,1,8,1,C,7,L,7,L,8,0.256337,0.82216,0.21075
8,113,9,8,9,8,0,C,1,S,1,S,13,0.447786,0.776021,0.347492
8,114,2,1,8,1,1,C,1,S,7,L,9,0.767428,0.333991,0.256314
8,115,2,1,8,2,1,C,1,S,6,S,10,0.826533,0.32342,0.267317
8,116,9,1,2,8,1,I,8,L,6,S,10,0.79511,0.418568,0.332808
8,117,9,8,1,8,0,I,1,S,7,L,10,0.331895,0.830318,0.275578
8,118,8,9,8,1,0,I,1,S,7,L,11,0.780406,0.408872,0.319086
8,119,2,8,8,1,1,I,6,S,7,L,11,0.475499,0.794189,0.377636
8,120,2,1,9,2,1,C,1,S,7,L,10,0.832861,0.318874,0.265578
8,121,8,1,1,9,1,I,7,L,8,L,10,0.755336,0.473037,0.357302
8,122,2,8,1,8,1,C,6,S,7,L,8,0.246512,0.834349,0.205677
8,123,1,2,1,8,1,C,1,S,7,L,9,0.357074,0.750221,0.267885
8,124,1,9,2,1,1,I,8,L,1,S,10,0.410299,0.766897,0.314657
8,125,8,2,8,2,1,C,6,S,6,S,9,0.83251,0.292355,0.243388
8,126,8,2,2,1,1,C,6,S,1,S,9,0.781172,0.328013,0.256235
8,127,9,2,9,8,1,C,7,L,1,S,10,0.813822,0.350588,0.285316
8,128,9,2,9,2,1,C,7,L,7,L,9,0.842457,0.285501,0.240522
8,129,1,9,2,9,1,C,8,L,7,L,8,0.303385,0.754936,0.229037
8,130,2,8,2,8,1,C,6,S,6,S,8,0.274496,0.793838,0.217905
8,131,1,2,8,2,1,I,1,S,6,S,18,0.621177,0.771666,0.479341
8,132,8,9,2,8,1,C,1,S,6,S,12,0.418492,0.793053,0.331886
8,133,1,8,1,9,1,C,7,L,8,L,8,0.255548,0.822753,0.210253
8,134,2,9,2,1,1,I,7,L,1,S,10,0.396563,0.784182,0.310978
8,135,9,8,9,2,0,C,1,S,7,L,18,0.631833,0.761794,0.481326
8,136,1,2,8,1,1,I,1,S,7,L,18,0.64567,0.750759,0.484742
8,137,1,8,9,1,1,I,7,L,8,L,11,0.491585,0.776921,0.381923
8,138,1,8,9,2,1,I,7,L,7,L,10,0.454064,0.752857,0.341845
8,139,1,9,1,8,1,C,8,L,7,L,8,0.276545,0.794482,0.21971
8,140,8,9,8,2,0,I,1,S,6,S,12,0.791733,0.421522,0.333732
8,141,1,8,8,2,1,I,7,L,6,S,10,0.447737,0.757402,0.339117
8,142,1,2,2,1,1,I,1,S,1,S,16,0.576812,0.76132,0.439139
8,143,8,1,1,8,1,I,7,L,7,L,10,0.75617,0.472369,0.357192
8,144,1,8,9,8,1,I,7,L,1,S,9,0.338566,0.786108,0.26615
9,1,1,9,2,8,1,C,8,L,6,S,8,0.26336,0.805266,0.212075
9,2,8,9,1,9,1,C,1,S,8,L,11,0.429411,0.758268,0.325609
9,3,1,2,8,1,1,I,1,S,7,L,14,0.576553,0.764131,0.440562
9,4,2,9,2,8,1,C,7,L,6,S,8,0.293806,0.765357,0.224867
9,5,9,8,2,8,1,I,1,S,6,S,20,0.765745,0.63912,0.489403
9,6,9,1,8,9,1,I,8,L,1,S,10,0.817995,0.356681,0.291763
9,7,1,8,2,8,1,C,7,L,6,S,8,0.279296,0.783501,0.218829
9,8,9,8,8,9,1,I,1,S,1,S,16,0.757854,0.544285,0.412489
9,9,1,9,1,9,1,C,8,L,8,L,8,0.238485,0.839249,0.200148
9,10,9,8,8,2,1,C,1,S,6,S,10,0.758105,0.37827,0.286769
9,11,2,9,1,9,1,C,7,L,8,L,8,0.268931,0.79934,0.214967
9,12,2,9,8,2,1,I,7,L,6,S,11,0.473357,0.772792,0.365807
9,13,1,2,2,1,1,I,1,S,1,S,11,0.434487,0.756879,0.328854
9,14,1,2,8,9,1,C,1,S,1,S,10,0.356857,0.785227,0.280214
9,15,1,2,8,2,1,I,1,S,6,S,13,0.5491,0.752661,0.413286
9,16,1,2,9,8,1,I,1,S,1,S,11,0.370456,0.815608,0.302147
9,17,9,2,1,8,1,I,7,L,7,L,13,0.784559,0.541672,0.424973
9,18,1,2,1,9,1,C,1,S,8,L,9,0.285887,0.833732,0.238353
9,19,1,9,9,1,1,I,8,L,8,L,11,0.471627,0.796893,0.375836
9,20,2,1,1,9,0,I,1,S,8,L,12,0.478524,0.755841,0.361688
9,21,8,2,9,2,1,C,6,S,7,L,9,0.853529,0.27453,0.234319
9,22,2,8,1,8,1,C,6,S,7,L,8,0.29947,0.756642,0.226591
9,23,1,9,8,2,1,I,8,L,6,S,10,0.432557,0.770966,0.333487
9,24,9,2,2,1,1,C,7,L,1,S,9,0.756527,0.34676,0.262333
9,25,9,2,9,2,1,C,7,L,7,L,9,0.832697,0.289068,0.240706
9,26,2,1,2,8,1,I,1,S,6,S,21,0.774199,0.640982,0.496248
9,27,2,8,1,9,1,C,6,S,8,L,8,0.289877,0.771621,0.223675
9,28,2,1,8,9,1,I,1,S,1,S,17,0.760937,0.563821,0.429032
9,29,9,2,9,1,1,C,7,L,8,L,8,0.751542,0.304874,0.229126
9,30,1,9,9,8,1,I,8,L,1,S,9,0.318236,0.805752,0.256419
9,31,8,1,8,1,1,C,7,L,7,L,8,0.80893,0.262434,0.212291
9,32,9,1,9,1,1,C,8,L,8,L,8,0.79609,0.273575,0.21779
9,33,9,8,9,8,1,C,1,S,1,S,13,0.750452,0.454699,0.34123
9,34,2,8,2,8,1,C,6,S,6,S,9,0.279786,0.845029,0.236427
9,35,9,2,8,1,1,C,7,L,7,L,9,0.859261,0.267277,0.229661
9,36,9,8,1,9,0,I,1,S,8,L,14,0.54203,0.752524,0.407891
9,37,1,2,9,1,1,I,1,S,8,L,14,0.579672,0.763865,0.442792
9,38,8,1,1,8,1,I,7,L,7,L,11,0.78008,0.485972,0.379097
9,39,1,8,9,1,1,I,7,L,8,L,11,0.490646,0.771719,0.378641
9,40,2,1,2,1,1,C,1,S,1,S,12,0.772529,0.416993,0.322139
9,41,9,1,1,9,1,I,8,L,8,L,11,0.750236,0.516662,0.387618
9,42,8,2,8,9,1,I,6,S,1,S,10,0.784712,0.380186,0.298337
9,43,1,8,8,1,1,I,7,L,7,L,11,0.488145,0.771189,0.376452
9,44,8,9,9,2,0,I,1,S,7,L,11,0.785449,0.389742,0.306122
9,45,8,2,2,1,1,C,6,S,1,S,9,0.777359,0.332222,0.258256
9,46,8,2,8,1,1,C,6,S,7,L,8,0.767473,0.29116,0.223457
9,47,2,8,2,1,1,I,6,S,1,S,10,0.40125,0.760891,0.305307
9,48,9,8,2,9,1,I,1,S,7,L,20,0.753806,0.654266,0.493189
9,49,2,8,2,9,1,C,6,S,7,L,8,0.303219,0.754909,0.228903
9,50,8,9,2,8,1,C,1,S,6,S,13,0.464557,0.774058,0.359594
9,51,9,1,2,8,1,I,8,L,6,S,11,0.782357,0.473296,0.370287
9,52,8,9,8,9,0,C,1,S,1,S,21,0.760012,0.611662,0.46487
9,53,9,2,1,2,1,I,7,L,1,S,11,0.785244,0.428914,0.336802
9,54,8,2,1,2,1,I,6,S,1,S,10,0.75507,0.415145,0.313464
9,55,2,1,9,8,1,C,1,S,1,S,14,0.777921,0.450107,0.350148
9,56,2,8,9,2,1,I,6,S,7,L,12,0.50561,0.779864,0.394307
9,57,1,8,2,9,1,C,7,L,7,L,8,0.267764,0.800772,0.214418
9,58,1,8,8,2,1,I,7,L,6,S,11,0.455795,0.794767,0.362251
9,59,9,1,9,2,1,C,8,L,7,L,8,0.771947,0.291362,0.224916
9,60,8,9,8,1,0,I,1,S,7,L,10,0.752735,0.387003,0.291311
9,61,8,1,9,2,1,C,7,L,7,L,8,0.786456,0.281535,0.221415
9,62,9,2,8,9,1,I,7,L,1,S,10,0.761692,0.396324,0.301877
9,63,8,2,1,9,1,I,6,S,8,L,12,0.758038,0.543523,0.412011
9,64,2,9,9,8,1,I,7,L,1,S,9,0.351914,0.761276,0.267904
9,65,8,2,1,8,1,I,6,S,7,L,12,0.770712,0.525305,0.404859
9,66,2,9,1,8,1,C,7,L,7,L,8,0.278524,0.784361,0.218463
9,67,8,1,8,2,1,C,7,L,6,S,8,0.78522,0.27975,0.219665
9,68,8,9,1,8,1,C,1,S,7,L,12,0.442086,0.773216,0.341828
9,69,8,1,2,8,1,I,7,L,6,S,10,0.751122,0.456113,0.342596
9,70,2,1,8,1,1,C,1,S,7,L,10,0.780237,0.368206,0.287288
9,71,2,8,9,8,1,I,6,S,1,S,10,0.354937,0.8048,0.285653
9,72,2,9,9,2,1,I,7,L,7,L,11,0.475351,0.773915,0.367881
9,73,9,8,9,1,1,C,1,S,8,L,10,0.791249,0.356835,0.282345
9,74,1,8,1,2,1,C,7,L,1,S,9,0.285506,0.834205,0.23817
9,75,1,8,9,2,1,I,7,L,7,L,11,0.457788,0.795891,0.36435
9,76,2,8,9,1,1,I,6,S,8,L,12,0.538652,0.755102,0.406737
9,77,9,2,2,8,1,I,7,L,6,S,12,0.766275,0.518079,0.396991
9,78,2,8,8,9,1,C,6,S,1,S,9,0.348619,0.755587,0.263412
9,79,8,9,8,2,0,I,1,S,6,S,11,0.783456,0.388618,0.304465
9,80,2,8,8,2,1,I,6,S,6,S,12,0.50334,0.779045,0.392125
9,81,2,1,1,8,0,I,1,S,7,L,13,0.508061,0.752373,0.382252
9,82,2,1,9,1,1,C,1,S,8,L,10,0.782475,0.369022,0.288751
9,83,2,9,2,9,1,C,7,L,7,L,8,0.282273,0.782628,0.220915
9,84,9,8,9,2,1,C,1,S,7,L,10,0.759818,0.379677,0.288485
9,85,1,2,1,2,1,C,1,S,1,S,10,0.327215,0.820186,0.268377
9,86,8,1,9,1,1,C,7,L,8,L,8,0.810599,0.263747,0.213793
9,87,9,8,8,1,1,C,1,S,7,L,10,0.789011,0.356018,0.280902
9,88,2,1,1,2,1,I,1,S,1,S,19,0.76805,0.609416,0.468062
9,89,9,2,9,8,1,C,7,L,1,S,10,0.799292,0.358112,0.286236
9,90,1,9,8,1,1,I,8,L,7,L,11,0.469126,0.796364,0.373595
9,91,1,9,2,9,1,C,8,L,7,L,8,0.251828,0.822536,0.207137
9,92,1,9,1,2,1,C,8,L,1,S,8,0.299801,0.75569,0.226557
9,93,8,9,9,1,0,I,1,S,8,L,10,0.754974,0.38782,0.292794
9,94,2,9,8,1,1,I,7,L,7,L,12,0.507935,0.791381,0.40197
9,95,1,2,2,9,1,C,1,S,7,L,9,0.300694,0.814907,0.245038
9,96,9,8,1,8,1,I,1,S,7,L,20,0.752856,0.65306,0.49166
9,97,9,1,1,8,1,I,8,L,7,L,11,0.762688,0.498305,0.380051
9,98,2,9,1,2,1,C,7,L,1,S,9,0.301614,0.813733,0.245433
9,99,8,9,2,1,0,I,1,S,1,S,13,0.77876,0.424121,0.330289
9,100,2,9,8,9,1,C,7,L,1,S,9,0.324583,0.787944,0.255753
9,101,2,1,9,2,1,C,1,S,7,L,10,0.751044,0.391864,0.294307
9,102,8,1,1,2,1,I,7,L,1,S,10,0.805493,0.379752,0.305887
9,103,9,1,2,9,1,I,8,L,7,L,11,0.766359,0.496501,0.380498
9,104,1,8,9,8,1,I,7,L,1,S,9,0.335806,0.781748,0.262515
9,105,9,2,2,9,1,I,7,L,7,L,13,0.787699,0.540464,0.425723
9,106,9,1,8,1,1,C,8,L,7,L,8,0.794421,0.272261,0.21629
9,107,2,8,1,2,1,C,6,S,1,S,9,0.32565,0.781376,0.254455
9,108,9,1,9,8,1,C,8,L,1,S,9,0.775702,0.342588,0.265746
9,109,8,9,2,9,1,C,1,S,7,L,12,0.44552,0.771676,0.343797
9,110,9,1,1,2,1,I,8,L,1,S,10,0.788353,0.39164,0.308751
9,111,8,1,9,8,1,C,7,L,1,S,9,0.791925,0.331524,0.262542
9,112,1,9,2,1,1,I,8,L,1,S,9,0.350799,0.773779,0.271441
9,113,1,2,9,2,1,I,1,S,7,L,13,0.551629,0.753174,0.415473
9,114,1,9,8,9,1,C,8,L,1,S,9,0.290904,0.83242,0.242155
9,115,8,2,2,8,1,I,6,S,6,S,12,0.790622,0.500406,0.395632
9,116,9,1,2,1,1,C,8,L,1,S,9,0.808265,0.310615,0.251059
9,117,9,8,1,2,1,I,1,S,1,S,18,0.763743,0.597811,0.456575
9,118,8,9,1,2,0,C,1,S,1,S,23,0.776329,0.626125,0.486079
9,119,8,2,2,9,1,I,6,S,7,L,12,0.774145,0.523765,0.40547
9,120,8,1,2,9,1,I,7,L,7,L,11,0.783752,0.484168,0.379468
9,121,1,9,1,8,1,C,8,L,7,L,8,0.248078,0.824269,0.204483
9,122,1,8,2,1,1,I,7,L,1,S,10,0.357917,0.817876,0.292731
9,123,8,1,8,9,1,I,7,L,1,S,9,0.764593,0.358193,0.273872
9,124,1,9,9,2,1,I,8,L,7,L,10,0.434269,0.772373,0.335418
9,125,1,8,8,9,1,C,7,L,1,S,9,0.308474,0.808416,0.249376
9,126,9,2,1,9,1,I,7,L,8,L,13,0.771935,0.559393,0.431815
9,127,1,2,1,8,1,C,1,S,7,L,9,0.296832,0.81685,0.242467
9,128,1,8,1,8,1,C,7,L,7,L,8,0.264014,0.802505,0.211873
9,129,2,9,9,1,1,I,7,L,8,L,12,0.510671,0.791627,0.404261
9,130,8,2,9,1,1,C,6,S,8,L,8,0.769142,0.292473,0.224953
9,131,2,1,2,9,0,I,1,S,7,L,13,0.511202,0.751166,0.383997
9,132,2,9,2,1,1,I,7,L,1,S,10,0.375026,0.79618,0.298588
9,133,1,2,2,8,1,C,1,S,6,S,9,0.314229,0.794655,0.249704
9,134,8,9,9,8,0,I,1,S,1,S,16,0.779561,0.459297,0.35805
9,135,2,1,8,2,1,C,1,S,6,S,11,0.820566,0.362164,0.29718
9,136,8,2,9,8,1,C,6,S,1,S,10,0.822312,0.341974,0.281209
9,137,8,2,8,2,1,C,6,S,6,S,9,0.852078,0.272893,0.232526
9,138,1,8,1,9,1,C,7,L,8,L,8,0.254421,0.817484,0.207985
9,139,9,8,2,1,1,C,1,S,1,S,12,0.788959,0.399178,0.314935
9,140,9,2,8,2,1,C,7,L,6,S,9,0.831247,0.28743,0.238925
9,141,8,1,2,1,1,C,7,L,1,S,9,0.824488,0.299551,0.246977
9,142,2,8,8,1,1,I,6,S,7,L,12,0.535916,0.754856,0.40454
9,143,8,1,1,9,1,I,7,L,8,L,11,0.767628,0.504329,0.387137
9,144,9,1,8,2,1,C,8,L,6,S,8,0.770711,0.289578,0.223181
10,1,1,8,2,1,1,I,7,L,1,S,9,0.359656,0.758277,0.272719
10,2,9,2,2,8,1,I,7,L,6,S,11,0.764072,0.502458,0.383914
10,3,9,8,9,8,1,C,1,S,1,S,13,0.76553,0.446968,0.342167
10,4,1,9,2,9,1,C,8,L,7,L,8,0.25877,0.811714,0.210047
10,5,8,1,8,2,1,C,7,L,6,S,8,0.796276,0.272051,0.216628
10,6,2,1,9,8,1,C,1,S,1,S,13,0.776365,0.432544,0.335812
10,7,2,1,2,9,1,I,1,S,7,L,19,0.753888,0.646987,0.487756
10,8,8,2,9,8,1,C,6,S,1,S,9,0.76355,0.348959,0.266448
10,9,8,1,2,1,1,C,7,L,1,S,9,0.792724,0.320766,0.254279
10,10,1,9,8,9,1,C,8,L,1,S,9,0.308314,0.813832,0.250915
10,11,9,2,9,2,1,C,7,L,7,L,8,0.81673,0.258696,0.211284
10,12,8,1,8,9,1,I,7,L,1,S,9,0.753185,0.363248,0.273593
10,13,2,9,2,1,1,I,7,L,1,S,10,0.368915,0.794767,0.293201
10,14,1,8,9,2,1,I,7,L,7,L,11,0.512773,0.756159,0.387738
10,15,8,1,1,8,1,I,7,L,7,L,12,0.778836,0.532735,0.414914
10,16,2,1,9,2,1,C,1,S,7,L,10,0.824569,0.330158,0.272238
10,17,1,2,9,1,1,I,1,S,8,L,20,0.633951,0.779421,0.494115
10,18,2,9,2,8,1,C,7,L,6,S,8,0.283524,0.779105,0.220895
10,19,2,9,9,1,1,I,7,L,8,L,12,0.536148,0.764781,0.410035
10,20,2,1,1,2,1,I,1,S,1,S,14,0.751498,0.493489,0.370856
10,21,1,8,9,8,1,I,7,L,1,S,9,0.336919,0.780777,0.263059
10,22,1,8,8,9,1,C,7,L,1,S,9,0.320117,0.800759,0.256337
10,23,8,2,2,8,1,I,6,S,6,S,12,0.789579,0.515265,0.406843
10,24,8,1,1,9,1,I,7,L,8,L,12,0.784273,0.525312,0.411988
10,25,8,9,2,1,1,I,1,S,1,S,22,0.612682,0.764713,0.468526
10,26,2,9,8,1,1,I,7,L,7,L,12,0.520693,0.777687,0.404936
10,27,9,1,2,1,1,C,8,L,1,S,9,0.807243,0.311969,0.251835
10,28,8,9,2,8,1,C,1,S,6,S,10,0.38932,0.756388,0.294477
10,29,9,2,9,8,1,C,7,L,1,S,9,0.778599,0.339756,0.264534
10,30,1,8,2,8,1,C,7,L,6,S,8,0.264283,0.807677,0.213455
10,31,1,8,1,2,1,C,7,L,1,S,9,0.318416,0.799626,0.254614
10,32,2,8,1,8,1,C,6,S,7,L,8,0.283787,0.783623,0.222382
10,33,1,8,1,9,1,C,7,L,8,L,8,0.254657,0.821347,0.209162
10,34,2,9,1,9,1,C,7,L,8,L,8,0.273898,0.792775,0.21714
10,35,8,2,8,9,1,I,6,S,1,S,10,0.818733,0.353227,0.289199
10,36,8,1,9,8,1,C,7,L,1,S,9,0.769987,0.343266,0.264311
10,37,2,1,2,8,1,I,1,S,6,S,20,0.778767,0.634707,0.494289
10,38,2,8,2,9,1,C,6,S,7,L,8,0.303329,0.755548,0.22918
10,39,9,1,1,9,1,I,8,L,8,L,11,0.758317,0.513232,0.389192
10,40,9,2,1,8,1,I,7,L,7,L,12,0.788663,0.527775,0.416237
10,41,2,9,2,9,1,C,7,L,7,L,8,0.28897,0.771284,0.222878
10,42,2,1,8,1,1,C,1,S,7,L,10,0.805152,0.345016,0.27779
10,43,9,1,1,8,1,I,8,L,7,L,11,0.752898,0.520805,0.392113
10,44,8,1,2,8,1,I,7,L,6,S,11,0.754387,0.507081,0.382535
10,45,9,8,2,1,1,C,1,S,1,S,12,0.776538,0.414285,0.321708
10,46,8,9,8,2,0,I,1,S,6,S,11,0.754014,0.432862,0.326384
10,47,8,2,2,1,1,C,6,S,1,S,9,0.786287,0.326459,0.256691
10,48,2,1,1,8,1,I,1,S,7,L,20,0.766866,0.649293,0.497921
10,49,8,9,1,8,1,C,1,S,7,L,10,0.372524,0.780041,0.290584
10,50,1,8,1,8,1,C,7,L,7,L,8,0.250186,0.827931,0.207137
10,51,2,9,8,2,1,I,7,L,6,S,12,0.525157,0.774838,0.406912
10,52,8,2,9,1,1,C,6,S,8,L,8,0.80029,0.268338,0.214748
10,53,2,8,9,1,1,I,6,S,8,L,13,0.551943,0.782692,0.432001
10,54,1,2,9,2,1,I,1,S,7,L,20,0.636754,0.77752,0.495089
10,55,1,9,8,2,1,I,8,L,6,S,11,0.485305,0.782122,0.379567
10,56,1,2,2,9,1,C,1,S,7,L,10,0.343591,0.804463,0.276406
10,57,8,9,9,1,0,I,1,S,8,L,11,0.765375,0.422658,0.323492
10,58,2,8,2,8,1,C,6,S,6,S,8,0.297883,0.763368,0.227395
10,59,8,9,8,1,0,I,1,S,7,L,12,0.785633,0.432581,0.33985
10,60,8,9,9,8,1,I,1,S,1,S,17,0.461257,0.785149,0.362156
10,61,1,2,1,8,1,C,1,S,7,L,9,0.347779,0.75651,0.263098
10,62,2,1,8,9,1,I,1,S,1,S,14,0.752816,0.49528,0.372855
10,63,9,8,8,2,1,C,1,S,6,S,10,0.804656,0.352836,0.283911
10,64,2,8,9,2,1,I,6,S,7,L,13,0.555684,0.780297,0.433599
10,65,8,9,1,9,1,C,1,S,8,L,10,0.377793,0.772506,0.291847
10,66,1,8,2,9,1,C,7,L,7,L,8,0.269728,0.799857,0.215744
10,67,1,2,1,9,1,C,1,S,8,L,10,0.325321,0.830168,0.270071
10,68,8,9,8,9,1,C,1,S,1,S,14,0.447191,0.769251,0.344002
10,69,8,2,1,8,1,I,6,S,7,L,12,0.772151,0.538759,0.416003
10,70,9,2,1,2,1,I,7,L,1,S,9,0.760097,0.358605,0.272574
10,71,2,9,9,8,1,I,7,L,1,S,10,0.336522,0.825937,0.277946
10,72,1,8,8,2,1,I,7,L,6,S,11,0.497579,0.768675,0.382476
10,73,9,2,8,2,1,C,7,L,6,S,8,0.803856,0.269305,0.216482
10,74,1,9,1,9,1,C,8,L,8,L,8,0.243698,0.833205,0.203051
10,75,9,1,9,8,1,C,8,L,1,S,9,0.784506,0.33447,0.262393
10,76,1,9,8,1,1,I,8,L,7,L,11,0.480853,0.784875,0.37741
10,77,2,8,8,1,1,I,6,S,7,L,12,0.53868,0.757109,0.40784
10,78,8,1,1,2,1,I,7,L,1,S,9,0.751485,0.362115,0.272124
10,79,9,8,8,9,1,I,1,S,1,S,15,0.776787,0.502203,0.390105
10,80,1,2,8,1,1,I,1,S,7,L,19,0.643893,0.75803,0.48809
10,81,8,1,9,2,1,C,7,L,7,L,8,0.80915,0.261442,0.211545
10,82,1,2,1,2,1,C,1,S,1,S,12,0.406132,0.778872,0.316325
10,83,8,9,2,9,1,C,1,S,7,L,11,0.37619,0.807527,0.303783
10,84,1,2,2,8,1,C,1,S,6,S,10,0.336848,0.814049,0.274211
10,85,9,2,2,1,1,C,7,L,1,S,9,0.801336,0.317256,0.254229
10,86,8,9,1,2,1,C,1,S,1,S,14,0.445873,0.76746,0.342189
10,87,9,8,9,2,1,C,1,S,7,L,10,0.819765,0.340556,0.279176
10,88,9,2,8,9,1,I,7,L,1,S,9,0.761797,0.359738,0.274047
10,89,8,2,1,9,1,I,6,S,8,L,12,0.777589,0.531335,0.41316
10,90,9,1,2,8,1,I,8,L,6,S,11,0.77023,0.496905,0.382731
10,91,9,1,9,1,1,C,8,L,8,L,8,0.81886,0.255532,0.209245
10,92,2,8,1,2,1,C,6,S,1,S,10,0.328007,0.832631,0.273109
10,93,9,1,2,9,1,I,8,L,7,L,11,0.777279,0.487071,0.37859
10,94,1,9,2,1,1,I,8,L,1,S,9,0.347853,0.77135,0.268316
10,95,9,2,2,9,1,I,7,L,7,L,11,0.771121,0.492624,0.379873
10,96,8,1,9,1,1,C,7,L,8,L,8,0.805975,0.263151,0.212093
10,97,2,1,2,1,1,C,1,S,1,S,12,0.785623,0.400897,0.314954
10,98,2,9,8,9,1,C,7,L,1,S,9,0.34212,0.768209,0.26282
10,99,1,8,8,1,1,I,7,L,7,L,11,0.493128,0.771428,0.380412
10,100,1,9,1,8,1,C,8,L,7,L,8,0.239227,0.839788,0.2009
10,101,2,8,2,1,1,I,6,S,1,S,10,0.386258,0.774615,0.299201
10,102,8,2,9,2,1,C,6,S,7,L,8,0.803464,0.26663,0.214227
10,103,9,2,9,1,1,C,7,L,8,L,8,0.813555,0.260405,0.211854
10,104,1,9,9,1,1,I,8,L,8,L,11,0.496666,0.771917,0.383385
10,105,1,9,9,8,1,I,8,L,1,S,9,0.325116,0.79385,0.258093
10,106,2,9,1,8,1,C,7,L,7,L,8,0.269427,0.799359,0.215369
10,107,9,1,1,2,1,I,8,L,1,S,9,0.766003,0.353318,0.270643
10,108,2,1,8,2,1,C,1,S,6,S,10,0.80946,0.342438,0.27719
10,109,2,8,1,9,1,C,6,S,8,L,8,0.288258,0.777039,0.223988
10,110,9,2,1,9,1,I,7,L,8,L,11,0.752159,0.518785,0.390209
10,111,8,1,2,9,1,I,7,L,7,L,11,0.761435,0.497247,0.378622
10,112,1,2,9,8,1,I,1,S,1,S,13,0.429606,0.779749,0.334985
10,113,2,8,8,9,1,C,6,S,1,S,10,0.329771,0.833787,0.274959
10,114,1,9,9,2,1,I,8,L,7,L,11,0.500499,0.769606,0.385187
10,115,1,2,8,9,1,C,1,S,1,S,12,0.40784,0.780189,0.318192
10,116,9,8,1,8,0,I,1,S,7,L,13,0.523196,0.755591,0.395322
10,117,2,8,8,2,1,I,6,S,6,S,12,0.543144,0.754261,0.409672
10,118,9,1,8,9,1,I,8,L,1,S,9,0.767704,0.354451,0.272113
10,119,1,8,9,1,1,I,7,L,8,L,11,0.508941,0.75847,0.386016
10,120,9,8,2,9,1,I,1,S,7,L,20,0.776597,0.639494,0.496629
10,121,9,8,8,1,1,C,1,S,7,L,10,0.800348,0.355413,0.284454
10,122,1,9,2,8,1,C,8,L,6,S,8,0.253324,0.819534,0.207607
10,123,9,8,2,8,1,I,1,S,6,S,20,0.771636,0.645577,0.49815
10,124,2,1,1,9,1,I,1,S,8,L,20,0.770621,0.644585,0.496731
10,125,1,9,1,2,1,C,8,L,1,S,9,0.306613,0.812699,0.249184
10,126,9,8,1,2,1,I,1,S,1,S,15,0.775782,0.500053,0.387932
10,127,2,9,9,2,1,I,7,L,7,L,12,0.539966,0.762402,0.411671
10,128,9,1,9,2,1,C,8,L,7,L,8,0.822034,0.253823,0.208651
10,129,8,9,9,2,0,I,1,S,7,L,11,0.769208,0.420346,0.323334
10,130,8,2,1,2,1,I,6,S,1,S,10,0.816969,0.352071,0.287631
10,131,2,9,1,2,1,C,7,L,1,S,9,0.340419,0.767076,0.261127
10,132,9,8,9,1,1,C,1,S,8,L,10,0.816014,0.342738,0.279679
10,133,9,1,8,1,1,C,8,L,7,L,8,0.805664,0.266394,0.214624
10,134,8,2,2,9,1,I,6,S,7,L,11,0.754566,0.50333,0.379796
10,135,9,8,1,9,1,I,1,S,8,L,20,0.76349,0.655455,0.500433
10,136,8,1,8,1,1,C,7,L,7,L,8,0.79278,0.274013,0.217232
10,137,2,1,9,1,1,C,1,S,8,L,10,0.820818,0.33234,0.272791
10,138,1,2,2,1,1,I,1,S,1,S,15,0.499934,0.7786,0.389248
10,139,9,2,8,1,1,C,7,L,7,L,8,0.80036,0.271267,0.217111
10,140,8,2,8,1,1,C,6,S,7,L,8,0.787094,0.279201,0.219757
10,141,9,1,8,2,1,C,8,L,6,S,8,0.809161,0.264432,0.213968
10,142,1,2,8,2,1,I,1,S,6,S,19,0.647232,0.75568,0.4891
10,143,2,8,9,8,1,I,6,S,1,S,10,0.353865,0.805785,0.285139
10,144,8,2,8,2,1,C,6,S,6,S,8,0.79059,0.277239,0.219182
11,1,1,9,8,2,1,I,8,L,6,S,10,0.464195,0.763809,0.354556
11,2,2,8,2,8,1,C,6,S,6,S,8,0.253265,0.8231,0.208463
11,3,9,1,9,1,1,C,8,L,8,L,7,0.750605,0.249247,0.187086
11,4,1,9,8,1,1,I,8,L,7,L,11,0.505121,0.785043,0.396541
11,5,8,9,2,9,1,C,1,S,7,L,9,0.324186,0.78412,0.254201
11,6,1,8,8,2,1,I,7,L,6,S,11,0.488621,0.785272,0.383701
11,7,8,9,2,8,1,C,1,S,6,S,9,0.336404,0.766362,0.257808
11,8,9,8,2,8,0,I,1,S,6,S,11,0.398103,0.784305,0.312234
11,9,9,8,8,2,1,C,1,S,6,S,11,0.789713,0.39772,0.314085
11,10,8,1,9,1,1,C,7,L,8,L,8,0.868928,0.219797,0.190988
11,11,1,8,9,2,1,I,7,L,7,L,11,0.478613,0.79292,0.379502
11,12,8,9,2,1,1,I,1,S,1,S,14,0.534615,0.762177,0.407471
11,13,9,1,2,9,1,I,8,L,7,L,10,0.752921,0.472877,0.356039
11,14,1,9,9,8,1,I,8,L,1,S,9,0.337913,0.797191,0.269381
11,15,8,9,1,2,1,C,1,S,1,S,11,0.346535,0.829431,0.287427
11,16,1,8,1,2,1,C,7,L,1,S,8,0.30619,0.750938,0.22993
11,17,2,1,9,2,1,C,1,S,7,L,10,0.809161,0.341946,0.276689
11,18,8,9,9,2,1,I,1,S,7,L,17,0.61297,0.778694,0.477316
11,19,9,1,1,9,1,I,8,L,8,L,11,0.793216,0.488185,0.387237
11,20,1,2,8,1,1,I,1,S,7,L,20,0.646376,0.771719,0.498821
11,21,9,2,2,8,1,I,7,L,6,S,11,0.763818,0.494722,0.377878
11,22,9,8,8,9,1,I,1,S,1,S,17,0.771854,0.487604,0.37636
11,23,1,8,2,1,1,I,7,L,1,S,9,0.37739,0.75193,0.283771
11,24,8,1,8,9,1,I,7,L,1,S,9,0.834629,0.292253,0.243923
11,25,9,8,9,2,1,C,1,S,7,L,11,0.779705,0.405368,0.316067
11,26,8,2,9,1,1,C,6,S,8,L,8,0.823217,0.250783,0.206449
11,27,8,2,1,2,1,I,6,S,1,S,10,0.782553,0.388335,0.303892
11,28,2,1,1,2,1,I,1,S,1,S,17,0.776866,0.567622,0.440966
11,29,2,1,9,8,1,C,1,S,1,S,12,0.816982,0.378001,0.30882
11,30,2,9,1,2,1,C,7,L,1,S,8,0.292431,0.773204,0.226109
11,31,8,1,8,1,1,C,7,L,7,L,8,0.874997,0.215305,0.188391
11,32,2,9,1,9,1,C,7,L,8,L,8,0.220205,0.870811,0.191757
11,33,8,2,2,9,1,I,6,S,7,L,12,0.776581,0.527345,0.409527
11,34,8,2,1,8,1,I,6,S,7,L,12,0.782082,0.519798,0.406524
11,35,1,9,9,2,1,I,8,L,7,L,10,0.454303,0.771241,0.350377
11,36,9,2,9,8,1,C,7,L,1,S,9,0.812331,0.304736,0.247547
11,37,9,8,9,1,1,C,1,S,8,L,10,0.768306,0.387484,0.297706
11,38,1,2,1,9,1,C,1,S,8,L,9,0.342838,0.758818,0.260152
11,39,8,1,9,2,1,C,7,L,7,L,8,0.835014,0.243563,0.203378
11,40,1,8,2,9,1,C,7,L,7,L,8,0.239569,0.840269,0.201302
11,41,8,1,9,8,1,C,7,L,1,S,8,0.750741,0.308734,0.231779
11,42,2,8,1,2,1,C,6,S,1,S,9,0.278905,0.849663,0.236975
11,43,1,9,9,1,1,I,8,L,8,L,11,0.498672,0.79005,0.393976
11,44,2,8,1,8,1,C,6,S,7,L,8,0.24682,0.832451,0.205466
11,45,2,1,8,1,1,C,1,S,7,L,9,0.774288,0.336399,0.26047
11,46,8,9,8,9,1,C,1,S,1,S,13,0.448482,0.794699,0.356408
11,47,1,2,8,9,1,C,1,S,1,S,14,0.494211,0.758095,0.374659
11,48,2,1,1,8,1,I,1,S,7,L,20,0.772626,0.640048,0.494518
11,49,2,8,8,2,1,I,6,S,6,S,11,0.491284,0.784048,0.38519
11,50,9,2,2,1,1,C,7,L,1,S,9,0.834126,0.284526,0.23733
11,51,1,2,9,2,1,I,1,S,7,L,19,0.636607,0.765928,0.487595
11,52,9,1,8,1,1,C,8,L,7,L,7,0.755966,0.245248,0.185399
11,53,8,9,9,1,1,I,1,S,8,L,17,0.641816,0.75531,0.48477
11,54,8,1,2,8,1,I,7,L,6,S,10,0.755185,0.461799,0.348744
11,55,9,2,1,9,1,I,7,L,8,L,12,0.784788,0.525558,0.412451
11,56,2,9,2,9,1,C,7,L,7,L,8,0.22581,0.862535,0.194769
11,57,8,9,8,1,1,I,1,S,7,L,17,0.646389,0.751403,0.485699
11,58,9,1,2,8,1,I,8,L,6,S,10,0.766107,0.453987,0.347803
11,59,1,8,1,9,1,C,7,L,8,L,8,0.233964,0.848545,0.198529
11,60,8,2,9,2,1,C,6,S,7,L,8,0.789303,0.274548,0.216702
11,61,8,2,2,8,1,I,6,S,6,S,12,0.790473,0.508294,0.401792
11,62,9,2,8,1,1,C,7,L,7,L,8,0.841638,0.237519,0.199905
11,63,9,2,1,8,1,I,7,L,7,L,11,0.755545,0.506326,0.382552
11,64,9,8,8,1,1,C,1,S,7,L,10,0.774849,0.382509,0.296387
11,65,1,2,9,1,1,I,1,S,8,L,20,0.642652,0.774945,0.49802
11,66,1,2,1,2,1,C,1,S,1,S,11,0.386343,0.773108,0.298685
11,67,2,8,8,1,1,I,6,S,7,L,11,0.526662,0.758162,0.399295
11,68,2,8,2,9,1,C,6,S,7,L,8,0.242467,0.838839,0.203391
11,69,1,8,2,8,1,C,7,L,6,S,8,0.250367,0.82453,0.206435
11,70,9,1,1,2,1,I,8,L,1,S,9,0.78023,0.351471,0.274228
11,71,2,1,8,2,1,C,1,S,6,S,10,0.819053,0.334514,0.273984
11,72,9,2,9,1,1,C,7,L,8,L,8,0.835569,0.242012,0.202218
11,73,2,8,9,2,1,I,6,S,7,L,11,0.481275,0.791696,0.381024
11,74,1,8,1,8,1,C,7,L,7,L,8,0.243922,0.833881,0.203402
11,75,2,9,8,2,1,I,7,L,6,S,10,0.466484,0.763008,0.355931
11,76,8,1,1,2,1,I,7,L,1,S,9,0.769633,0.358906,0.276226
11,77,2,8,9,8,1,I,6,S,1,S,9,0.358504,0.77066,0.276285
11,78,2,9,2,1,1,I,7,L,1,S,9,0.362117,0.776056,0.281023
11,79,8,1,1,9,1,I,7,L,8,L,11,0.782329,0.496151,0.388153
11,80,9,8,1,2,0,I,1,S,1,S,14,0.440622,0.786024,0.346339
11,81,8,1,1,8,1,I,7,L,7,L,11,0.794639,0.478867,0.380527
11,82,9,2,1,2,1,I,7,L,1,S,10,0.797501,0.377644,0.301172
11,83,8,2,2,1,1,C,6,S,1,S,9,0.820118,0.29444,0.241475
11,84,2,9,2,8,1,C,7,L,6,S,8,0.236608,0.846796,0.200358
11,85,1,8,8,9,1,C,7,L,1,S,9,0.340993,0.78449,0.267506
11,86,9,2,9,2,1,C,7,L,7,L,8,0.801656,0.265777,0.213062
11,87,1,8,9,1,1,I,7,L,8,L,11,0.517551,0.764394,0.395613
11,88,1,9,2,1,1,I,8,L,1,S,9,0.359708,0.77698,0.279485
11,89,8,9,9,8,1,I,1,S,1,S,13,0.489307,0.76371,0.373688
11,90,1,2,8,2,1,I,1,S,6,S,19,0.642791,0.760541,0.488868
11,91,2,8,2,1,1,I,6,S,1,S,9,0.380299,0.750449,0.285395
11,92,8,1,2,9,1,I,7,L,7,L,11,0.78919,0.486521,0.383958
11,93,8,2,8,9,1,I,6,S,1,S,9,0.783721,0.327,0.256277
11,94,1,2,2,9,1,C,1,S,7,L,10,0.320381,0.83232,0.266659
11,95,1,2,2,1,1,I,1,S,1,S,17,0.574906,0.777909,0.447224
11,96,2,1,2,9,1,I,1,S,7,L,20,0.76881,0.64481,0.495736
11,97,8,2,8,2,1,C,6,S,6,S,8,0.79766,0.268279,0.213996
11,98,1,2,1,8,1,C,1,S,7,L,10,0.325636,0.824775,0.268577
11,99,9,2,8,9,1,I,7,L,1,S,9,0.797729,0.317086,0.252948
11,100,9,1,1,8,1,I,8,L,7,L,10,0.758177,0.465332,0.352804
11,101,2,9,9,1,1,I,7,L,8,L,11,0.500792,0.789431,0.395341
11,102,9,8,9,8,1,C,1,S,1,S,15,0.769131,0.473221,0.363969
11,103,1,9,2,9,1,C,8,L,7,L,8,0.223351,0.86349,0.192862
11,104,2,1,8,9,1,I,1,S,1,S,12,0.783005,0.404389,0.316639
11,105,2,9,8,1,1,I,7,L,7,L,11,0.50724,0.784424,0.397891
11,106,1,9,1,8,1,C,8,L,7,L,8,0.227704,0.857102,0.195166
11,107,2,1,2,1,1,C,1,S,1,S,11,0.781886,0.383025,0.299482
11,108,2,9,9,8,1,I,7,L,1,S,9,0.340323,0.796267,0.270988
11,109,8,1,8,2,1,C,7,L,6,S,8,0.843371,0.237294,0.200127
11,110,2,9,8,9,1,C,7,L,1,S,9,0.32572,0.808617,0.263383
11,111,1,8,8,1,1,I,7,L,7,L,11,0.524,0.759387,0.397918
11,112,8,9,1,8,1,C,1,S,7,L,9,0.329081,0.776978,0.255688
11,113,2,9,1,8,1,C,7,L,7,L,8,0.230163,0.856147,0.197053
11,114,8,2,9,8,1,C,6,S,1,S,9,0.798324,0.314651,0.251193
11,115,1,9,8,9,1,C,8,L,1,S,9,0.323311,0.80954,0.261733
11,116,2,1,1,9,1,I,1,S,8,L,20,0.76403,0.650814,0.497241
11,117,1,8,9,8,1,I,7,L,1,S,9,0.355596,0.772141,0.27457
11,118,9,2,8,2,1,C,7,L,6,S,8,0.810013,0.259508,0.210205
11,119,1,9,1,2,1,C,8,L,1,S,8,0.289973,0.774158,0.224485
11,120,9,8,1,8,0,I,1,S,7,L,11,0.38983,0.795908,0.310269
11,121,2,8,1,9,1,C,6,S,8,L,8,0.236863,0.847114,0.20065
11,122,8,9,1,9,1,C,1,S,8,L,9,0.317943,0.793252,0.252209
11,123,9,1,8,2,1,C,8,L,6,S,8,0.853172,0.230491,0.196649
11,124,9,2,2,9,1,I,7,L,7,L,11,0.750096,0.513979,0.385534
11,125,8,9,8,2,1,I,1,S,6,S,17,0.620207,0.77251,0.479116
11,126,9,1,2,1,1,C,8,L,1,S,8,0.775947,0.286505,0.222313
11,127,1,2,2,8,1,C,1,S,6,S,10,0.333566,0.81343,0.271333
11,128,2,8,8,9,1,C,6,S,1,S,9,0.343902,0.78301,0.269278
11,129,9,1,9,8,1,C,8,L,1,S,8,0.760542,0.301931,0.229631
11,130,9,8,1,9,0,I,1,S,8,L,10,0.391444,0.759264,0.297209
11,131,2,1,9,1,1,C,1,S,8,L,9,0.767845,0.341212,0.261998
11,132,1,9,1,9,1,C,8,L,8,L,8,0.217747,0.871766,0.189824
11,133,9,1,9,2,1,C,8,L,7,L,8,0.844815,0.23676,0.200019
11,134,9,8,2,9,0,I,1,S,7,L,11,0.384381,0.803562,0.308874
11,135,9,8,2,1,1,C,1,S,1,S,13,0.750577,0.461501,0.346392
11,136,9,1,8,9,1,I,8,L,1,S,8,0.750337,0.310714,0.23314
11,137,1,2,9,8,1,I,1,S,1,S,15,0.538302,0.755896,0.406901
11,138,8,1,2,1,1,C,7,L,1,S,8,0.766146,0.293308,0.224716
11,139,2,9,9,2,1,I,7,L,7,L,10,0.456592,0.77044,0.351777
11,140,8,2,8,1,1,C,6,S,7,L,8,0.829286,0.24629,0.204245
11,141,2,1,2,8,1,I,1,S,6,S,20,0.77846,0.632836,0.492637
11,142,2,8,9,1,1,I,6,S,8,L,11,0.520214,0.76317,0.397011
11,143,8,2,1,9,1,I,6,S,8,L,12,0.769683,0.536802,0.413168
11,144,1,9,2,8,1,C,8,L,6,S,8,0.234149,0.847751,0.1985
12,1,8,9,1,8,1,C,1,S,7,L,10,0.395152,0.758484,0.299716
12,2,8,9,8,9,1,C,1,S,1,S,17,0.483941,0.753101,0.364457
12,3,1,2,8,2,1,I,1,S,6,S,13,0.56734,0.768613,0.436065
12,4,2,8,1,8,1,C,6,S,7,L,8,0.260475,0.817309,0.212889
12,5,8,1,9,2,1,C,7,L,7,L,8,0.86214,0.226258,0.195066
12,6,2,9,9,2,1,I,7,L,7,L,11,0.50045,0.780476,0.390589
12,7,2,9,2,8,1,C,7,L,6,S,8,0.281222,0.788998,0.221883
12,8,2,8,8,2,1,I,6,S,6,S,12,0.525605,0.791296,0.41591
12,9,2,9,8,2,1,I,7,L,6,S,11,0.504545,0.776675,0.391867
12,10,1,9,1,2,1,C,8,L,1,S,8,0.288806,0.786648,0.227189
12,11,2,9,1,2,1,C,7,L,1,S,9,0.297894,0.832379,0.24796
12,12,8,2,2,9,1,I,6,S,7,L,11,0.766672,0.493678,0.378489
12,13,2,8,9,2,1,I,6,S,7,L,11,0.520061,0.753207,0.391713
12,14,1,8,2,9,1,C,7,L,7,L,8,0.236329,0.849137,0.200676
12,15,8,9,1,2,1,C,1,S,1,S,14,0.466202,0.754963,0.351965
12,16,1,8,8,1,1,I,7,L,7,L,10,0.470888,0.764131,0.359821
12,17,1,9,9,8,1,I,8,L,1,S,9,0.32162,0.825302,0.265434
12,18,8,1,2,1,1,C,7,L,1,S,8,0.787814,0.278169,0.219145
12,19,9,1,1,8,1,I,8,L,7,L,11,0.791203,0.486205,0.384686
12,20,8,1,8,9,1,I,7,L,1,S,9,0.819742,0.30987,0.254013
12,21,9,2,8,2,1,C,7,L,6,S,8,0.803916,0.268096,0.215527
12,22,1,2,1,2,1,C,1,S,1,S,9,0.352865,0.752262,0.265447
12,23,8,1,2,8,1,I,7,L,6,S,10,0.802993,0.406419,0.326351
12,24,1,2,8,9,1,C,1,S,1,S,10,0.349539,0.807311,0.282187
12,25,8,1,8,1,1,C,7,L,7,L,8,0.86465,0.222226,0.192148
12,26,9,1,8,2,1,C,8,L,6,S,8,0.855677,0.22871,0.195702
12,27,9,1,2,1,1,C,8,L,1,S,8,0.777629,0.284089,0.220915
12,28,8,2,8,2,1,C,6,S,6,S,8,0.816979,0.259968,0.212388
12,29,8,2,8,1,1,C,6,S,7,L,8,0.815767,0.259404,0.211613
12,30,9,2,9,2,1,C,7,L,7,L,8,0.800195,0.271564,0.217304
12,31,2,8,2,1,1,I,6,S,1,S,10,0.413616,0.775832,0.320896
12,32,8,2,9,2,1,C,6,S,7,L,8,0.813258,0.263435,0.214241
12,33,8,2,1,8,1,I,6,S,7,L,12,0.788675,0.524316,0.413515
12,34,2,1,1,8,1,I,1,S,7,L,19,0.773291,0.637202,0.492742
12,35,8,9,9,8,0,I,1,S,1,S,16,0.767045,0.499132,0.382856
12,36,8,1,9,1,1,C,7,L,8,L,8,0.860974,0.225644,0.194273
12,37,2,9,1,8,1,C,7,L,7,L,8,0.244521,0.840568,0.205537
12,38,2,9,9,8,1,I,7,L,1,S,9,0.359351,0.772958,0.277763
12,39,2,8,9,8,1,I,6,S,1,S,10,0.367629,0.81467,0.299496
12,40,9,8,2,1,1,C,1,S,1,S,12,0.808751,0.389621,0.315107
12,41,8,9,8,2,0,I,1,S,6,S,11,0.796808,0.398754,0.317731
12,42,1,9,1,8,1,C,8,L,7,L,7,0.246482,0.760755,0.187512
12,43,8,9,2,9,1,C,1,S,7,L,11,0.39925,0.785769,0.313718
12,44,1,2,2,9,1,C,1,S,7,L,9,0.271791,0.856246,0.23272
12,45,2,1,1,2,1,I,1,S,1,S,14,0.764164,0.49833,0.380805
12,46,9,8,1,2,1,I,1,S,1,S,20,0.771977,0.59502,0.459341
12,47,1,8,8,9,1,C,7,L,1,S,8,0.313624,0.753784,0.236405
12,48,2,1,8,9,1,I,1,S,1,S,13,0.790119,0.427027,0.337402
12,49,8,1,1,2,1,I,7,L,1,S,9,0.800299,0.332324,0.265958
12,50,1,2,9,8,1,I,1,S,1,S,10,0.408425,0.755669,0.308634
12,51,2,9,8,9,1,C,7,L,1,S,9,0.317337,0.809925,0.257019
12,52,1,8,8,2,1,I,7,L,6,S,10,0.472429,0.764379,0.361115
12,53,8,2,1,9,1,I,6,S,8,L,12,0.772248,0.545815,0.421505
12,54,1,2,9,1,1,I,1,S,8,L,13,0.561829,0.772331,0.433918
12,55,8,9,2,1,0,I,1,S,1,S,13,0.761297,0.461697,0.351488
12,56,2,8,9,1,1,I,6,S,8,L,11,0.518431,0.753069,0.390414
12,57,9,8,8,9,1,I,1,S,1,S,16,0.768642,0.480831,0.369587
12,58,1,8,1,8,1,C,7,L,7,L,8,0.221061,0.872305,0.192833
12,59,8,1,2,9,1,I,7,L,7,L,10,0.774736,0.444935,0.344708
12,60,1,9,8,1,1,I,8,L,7,L,10,0.458029,0.782642,0.358473
12,61,2,1,1,9,1,I,1,S,8,L,19,0.761606,0.651192,0.495952
12,62,8,9,2,8,1,C,1,S,6,S,12,0.41049,0.796667,0.327024
12,63,9,8,1,8,0,I,1,S,7,L,11,0.439572,0.754816,0.331796
12,64,9,2,9,8,1,C,7,L,1,S,9,0.793072,0.323102,0.256243
12,65,1,8,2,8,1,C,7,L,6,S,8,0.257762,0.820735,0.211554
12,66,9,8,8,2,1,C,1,S,6,S,10,0.791154,0.36364,0.287696
12,67,1,2,1,9,1,C,1,S,8,L,8,0.278626,0.789876,0.22008
12,68,9,2,2,1,1,C,7,L,1,S,9,0.828233,0.29175,0.241637
12,69,9,1,9,2,1,C,8,L,7,L,8,0.851955,0.232178,0.197805
12,70,9,1,8,1,1,C,8,L,7,L,8,0.854465,0.228146,0.194943
12,71,8,9,9,2,0,I,1,S,7,L,11,0.792714,0.402555,0.319111
12,72,2,1,2,1,1,C,1,S,1,S,11,0.825411,0.349899,0.288811
12,73,1,8,9,2,1,I,7,L,7,L,10,0.468272,0.768186,0.359719
12,74,8,9,8,1,0,I,1,S,7,L,11,0.795133,0.398668,0.316994
12,75,2,1,8,2,1,C,1,S,6,S,9,0.76533,0.34113,0.261077
12,76,8,1,1,9,1,I,7,L,8,L,11,0.786247,0.500884,0.393819
12,77,2,8,8,9,1,C,6,S,1,S,9,0.335147,0.78416,0.262809
12,78,9,1,1,9,1,I,8,L,8,L,11,0.774724,0.508253,0.393755
12,79,9,8,2,9,0,I,1,S,7,L,12,0.462697,0.757096,0.350306
12,80,1,9,2,9,1,C,8,L,7,L,8,0.224894,0.866365,0.19484
12,81,1,9,2,1,1,I,8,L,1,S,9,0.356781,0.793949,0.283266
12,82,1,2,8,1,1,I,1,S,7,L,13,0.56545,0.768816,0.434727
12,83,1,8,1,2,1,C,7,L,1,S,8,0.300242,0.76942,0.231012
12,84,8,9,1,9,1,C,1,S,8,L,10,0.379006,0.780544,0.295831
12,85,9,2,1,8,1,I,7,L,7,L,12,0.772111,0.535592,0.413537
12,86,1,8,9,8,1,I,7,L,1,S,9,0.333968,0.807084,0.26954
12,87,8,2,9,1,1,C,6,S,8,L,8,0.812091,0.262821,0.213435
12,88,2,1,8,1,1,C,1,S,7,L,9,0.763945,0.340719,0.26029
12,89,8,2,2,1,1,C,6,S,1,S,9,0.843175,0.282309,0.238036
12,90,1,9,8,9,1,C,8,L,1,S,8,0.302189,0.771012,0.232991
12,91,8,2,2,8,1,I,6,S,6,S,11,0.796883,0.452804,0.360832
12,92,2,8,1,9,1,C,6,S,8,L,8,0.246496,0.836842,0.206278
12,93,9,2,8,9,1,I,7,L,1,S,9,0.751057,0.360069,0.270433
12,94,2,1,9,2,1,C,1,S,7,L,9,0.76128,0.344833,0.262514
12,95,8,2,9,8,1,C,6,S,1,S,9,0.808014,0.313662,0.253443
12,96,9,8,1,9,0,I,1,S,8,L,11,0.423093,0.776864,0.328685
12,97,2,1,9,1,1,C,1,S,8,L,9,0.759942,0.344369,0.2617
12,98,9,8,9,1,1,C,1,S,8,L,10,0.785503,0.367146,0.288394
12,99,9,1,8,9,1,I,8,L,1,S,9,0.808694,0.316497,0.255949
12,100,2,9,9,1,1,I,7,L,8,L,11,0.49882,0.780338,0.389249
12,101,8,2,1,2,1,I,6,S,1,S,10,0.816515,0.360034,0.293973
12,102,9,2,9,1,1,C,7,L,8,L,8,0.799028,0.270949,0.216496
12,103,1,8,1,9,1,C,7,L,8,L,7,0.244502,0.76206,0.186325
12,104,9,1,9,1,1,C,8,L,8,L,8,0.850789,0.231563,0.197011
12,105,9,8,9,2,1,C,1,S,7,L,10,0.786996,0.367447,0.289179
12,106,1,9,9,2,1,I,8,L,7,L,10,0.455412,0.786696,0.358271
12,107,1,2,9,2,1,I,1,S,7,L,13,0.563677,0.772173,0.435256
12,108,2,1,9,8,1,C,1,S,1,S,11,0.76903,0.395687,0.304295
12,109,9,2,2,8,1,I,7,L,6,S,11,0.7803,0.463798,0.361902
12,110,2,1,2,9,1,I,1,S,7,L,18,0.75909,0.63379,0.481104
12,111,1,9,1,9,1,C,8,L,8,L,7,0.234419,0.777422,0.182242
12,112,9,2,1,9,1,I,7,L,8,L,12,0.755684,0.557091,0.420985
12,113,2,9,2,1,1,I,7,L,1,S,10,0.394607,0.802854,0.316812
12,114,8,1,1,8,1,I,7,L,7,L,10,0.755709,0.473093,0.357521
12,115,9,1,9,8,1,C,8,L,1,S,8,0.752402,0.308159,0.23186
12,116,9,2,1,2,1,I,7,L,1,S,10,0.800423,0.37043,0.2965
12,117,2,1,2,8,1,I,1,S,6,S,17,0.754335,0.616608,0.465129
12,118,2,8,8,1,1,I,6,S,7,L,12,0.523815,0.791362,0.414527
12,119,8,2,8,9,1,I,6,S,1,S,9,0.765999,0.350629,0.268582
12,120,2,8,2,8,1,C,6,S,6,S,8,0.297176,0.765739,0.227559
12,121,2,8,1,2,1,C,6,S,1,S,9,0.315704,0.806614,0.254651
12,122,9,8,2,8,0,I,1,S,6,S,14,0.511352,0.753862,0.385489
12,123,9,1,1,2,1,I,8,L,1,S,9,0.789251,0.338951,0.267517
12,124,8,1,9,8,1,C,7,L,1,S,8,0.762587,0.302239,0.230484
12,125,9,2,2,9,1,I,7,L,7,L,11,0.750088,0.504673,0.378549
12,126,9,8,9,8,1,C,1,S,1,S,13,0.80419,0.40896,0.328881
12,127,9,8,8,1,1,C,1,S,7,L,10,0.789613,0.363393,0.28694
12,128,1,8,9,1,1,I,7,L,8,L,10,0.466778,0.767885,0.358432
12,129,8,9,9,1,0,I,1,S,8,L,11,0.791084,0.402417,0.318346
12,130,2,8,2,9,1,C,6,S,7,L,8,0.275743,0.794141,0.218979
12,131,2,9,8,1,1,I,7,L,7,L,11,0.50287,0.776588,0.390523
12,132,1,2,2,1,1,I,1,S,1,S,11,0.456324,0.767287,0.350131
12,133,2,9,1,9,1,C,7,L,8,L,8,0.230542,0.8601,0.198289
12,134,1,2,1,8,1,C,1,S,7,L,8,0.292605,0.770343,0.225406
12,135,1,9,2,8,1,C,8,L,6,S,8,0.246326,0.837964,0.206412
12,136,1,9,9,1,1,I,8,L,8,L,10,0.453918,0.786396,0.356959
12,137,8,1,8,2,1,C,7,L,6,S,8,0.865862,0.22279,0.192906
12,138,9,1,2,9,1,I,8,L,7,L,10,0.763278,0.452038,0.34503
12,139,9,2,8,1,1,C,7,L,7,L,8,0.802705,0.267532,0.214749
12,140,1,9,8,2,1,I,8,L,6,S,10,0.45957,0.78289,0.359792
12,141,9,1,2,8,1,I,8,L,6,S,10,0.791535,0.413521,0.327316
12,142,2,9,2,9,1,C,7,L,7,L,8,0.259789,0.8174,0.212352
12,143,1,2,2,8,1,C,1,S,6,S,9,0.297087,0.821958,0.244193
12,144,1,8,2,1,1,I,7,L,1,S,9,0.369129,0.775732,0.286345
13,1,2,9,8,9,1,C,7,L,1,S,10,0.375331,0.791053,0.296906
13,2,1,8,8,1,1,I,7,L,7,L,12,0.529298,0.785146,0.415577
13,3,9,8,2,1,1,C,1,S,1,S,9,0.755689,0.340584,0.257376
13,4,8,9,1,8,1,C,1,S,7,L,10,0.361737,0.793521,0.287046
13,5,9,8,8,2,1,C,1,S,6,S,9,0.789699,0.318438,0.25147
13,6,1,8,2,9,1,C,7,L,7,L,8,0.276688,0.784968,0.217191
13,7,9,1,2,8,1,I,8,L,6,S,10,0.766829,0.455882,0.349584
13,8,8,2,9,2,1,C,6,S,7,L,9,0.813733,0.304254,0.247582
13,9,9,1,1,8,1,I,8,L,7,L,10,0.752744,0.475486,0.35792
13,10,8,9,1,2,1,C,1,S,1,S,12,0.418077,0.773268,0.323286
13,11,2,9,8,2,1,I,7,L,6,S,12,0.515184,0.78102,0.402369
13,12,1,2,1,8,1,C,1,S,7,L,9,0.291561,0.825417,0.240659
13,13,9,2,8,1,1,C,7,L,7,L,8,0.842927,0.23953,0.201907
13,14,8,1,9,2,1,C,7,L,7,L,8,0.761331,0.297693,0.226643
13,15,8,9,9,1,0,I,1,S,8,L,11,0.765659,0.437178,0.334729
13,16,8,9,9,8,1,I,1,S,1,S,13,0.404895,0.810621,0.328217
13,17,2,9,2,1,1,I,7,L,1,S,11,0.471549,0.766187,0.361295
13,18,2,9,9,8,1,I,7,L,1,S,9,0.337365,0.774764,0.261378
13,19,8,1,9,8,1,C,7,L,1,S,10,0.786298,0.381398,0.299893
13,20,9,2,1,8,1,I,7,L,7,L,11,0.762166,0.50973,0.388499
13,21,9,2,2,8,1,I,7,L,6,S,11,0.776731,0.489847,0.38048
13,22,9,2,8,9,1,I,7,L,1,S,9,0.810873,0.311654,0.252712
13,23,9,1,1,9,1,I,8,L,8,L,10,0.769025,0.453242,0.348554
13,24,2,1,9,8,1,C,1,S,1,S,17,0.777097,0.554428,0.430844
13,25,2,9,1,8,1,C,7,L,7,L,8,0.279779,0.787145,0.220226
13,26,2,9,1,2,1,C,7,L,1,S,9,0.326202,0.786324,0.2565
13,27,2,9,1,9,1,C,7,L,8,L,8,0.293384,0.768422,0.225443
13,28,9,2,1,9,1,I,7,L,8,L,11,0.778981,0.487167,0.379494
13,29,1,8,2,1,1,I,7,L,1,S,10,0.431007,0.760663,0.327851
13,30,9,2,2,1,1,C,7,L,1,S,8,0.771211,0.289754,0.223461
13,31,2,1,1,9,1,I,1,S,8,L,20,0.752364,0.653904,0.491974
13,32,8,9,8,1,0,I,1,S,7,L,11,0.76679,0.435376,0.333842
13,33,1,8,9,8,1,I,7,L,1,S,9,0.303068,0.815805,0.247244
13,34,2,1,8,1,1,C,1,S,7,L,9,0.754137,0.350995,0.264699
13,35,1,9,2,1,1,I,8,L,1,S,10,0.429716,0.767627,0.329861
13,36,2,8,2,8,1,C,6,S,6,S,8,0.2914,0.765013,0.222925
13,37,9,1,1,2,1,I,8,L,1,S,9,0.785338,0.34916,0.274209
13,38,9,2,9,2,1,C,7,L,7,L,8,0.796722,0.274602,0.218781
13,39,1,8,8,9,1,C,7,L,1,S,9,0.353931,0.763078,0.270077
13,40,8,2,8,1,1,C,6,S,7,L,8,0.758496,0.300289,0.227768
13,41,2,1,2,8,1,I,1,S,6,S,20,0.751007,0.655239,0.492089
13,42,8,9,8,9,1,C,1,S,1,S,18,0.567187,0.767025,0.435047
13,43,9,8,2,8,1,I,1,S,6,S,15,0.771798,0.59067,0.455878
13,44,9,1,8,1,1,C,8,L,7,L,8,0.876397,0.21505,0.188469
13,45,1,9,9,2,1,I,8,L,7,L,11,0.470376,0.793954,0.373457
13,46,9,1,9,2,1,C,8,L,7,L,8,0.830192,0.250122,0.207649
13,47,9,8,1,8,1,I,1,S,7,L,15,0.758321,0.60762,0.460771
13,48,8,1,1,9,1,I,7,L,8,L,12,0.776871,0.519983,0.40396
13,49,1,8,2,8,1,C,7,L,6,S,8,0.26057,0.80667,0.210194
13,50,8,1,1,2,1,I,7,L,1,S,10,0.771883,0.397336,0.306697
13,51,9,2,9,1,1,C,7,L,8,L,8,0.841691,0.241438,0.203216
13,52,1,2,8,2,1,I,1,S,6,S,14,0.58091,0.755512,0.438884
13,53,8,2,8,9,1,I,6,S,1,S,10,0.791278,0.356656,0.282214
13,54,2,9,2,8,1,C,7,L,6,S,8,0.291518,0.770597,0.224642
13,55,2,9,8,1,1,I,7,L,7,L,13,0.56354,0.780002,0.439563
13,56,2,1,2,9,1,I,1,S,7,L,20,0.765813,0.637963,0.48856
13,57,9,8,9,1,1,C,1,S,8,L,9,0.83721,0.284727,0.238376
13,58,8,2,1,8,1,I,6,S,7,L,14,0.762887,0.589265,0.449543
13,59,8,2,2,1,1,C,6,S,1,S,9,0.78273,0.32301,0.252829
13,60,8,2,8,2,1,C,6,S,6,S,9,0.81674,0.300864,0.245727
13,61,2,8,8,2,1,I,6,S,6,S,12,0.517628,0.77259,0.399914
13,62,9,1,8,2,1,C,8,L,6,S,8,0.832749,0.247019,0.205705
13,63,1,9,9,1,1,I,8,L,8,L,11,0.524671,0.753008,0.395082
13,64,8,9,1,9,1,C,1,S,8,L,10,0.378018,0.771277,0.291556
13,65,1,2,2,1,1,I,1,S,1,S,14,0.539988,0.784839,0.423804
13,66,1,8,1,9,1,C,7,L,8,L,8,0.262436,0.804495,0.211129
13,67,2,1,9,1,1,C,1,S,8,L,9,0.752857,0.352924,0.265701
13,68,2,1,8,9,1,I,1,S,1,S,12,0.761591,0.421023,0.320648
13,69,1,9,1,2,1,C,8,L,1,S,9,0.291188,0.833745,0.242776
13,70,8,1,1,8,1,I,7,L,7,L,12,0.759961,0.542194,0.412046
13,71,2,1,1,8,0,I,1,S,7,L,13,0.51263,0.752753,0.385884
13,72,2,8,8,1,1,I,6,S,7,L,13,0.566437,0.771304,0.436895
13,73,9,8,9,2,1,C,1,S,7,L,9,0.786692,0.321829,0.25318
13,74,1,9,2,9,1,C,8,L,7,L,8,0.276575,0.790587,0.218657
13,75,2,1,2,1,1,C,1,S,1,S,11,0.814446,0.359787,0.293027
13,76,1,9,8,9,1,C,8,L,1,S,9,0.353214,0.769458,0.271783
13,77,9,2,9,8,1,C,7,L,1,S,9,0.76001,0.364382,0.276934
13,78,2,8,2,1,1,I,6,S,1,S,11,0.473445,0.758182,0.358957
13,79,1,2,1,2,1,C,1,S,1,S,10,0.349102,0.793115,0.276878
13,80,8,1,8,9,1,I,7,L,1,S,9,0.77067,0.338112,0.260573
13,81,9,8,1,2,1,I,1,S,1,S,12,0.767494,0.46428,0.356332
13,82,1,2,9,1,1,I,1,S,8,L,15,0.617647,0.753734,0.465542
13,83,1,2,9,8,1,I,1,S,1,S,10,0.363517,0.777177,0.282517
13,84,2,8,9,8,1,I,6,S,1,S,9,0.337939,0.768196,0.259603
13,85,2,8,1,9,1,C,6,S,8,L,8,0.293266,0.762839,0.223715
13,86,1,9,1,9,1,C,8,L,8,L,8,0.262324,0.810114,0.212512
13,87,8,1,8,2,1,C,7,L,6,S,8,0.763889,0.29459,0.225034
13,88,9,1,8,9,1,I,8,L,1,S,8,0.752567,0.31066,0.233792
13,89,2,9,9,1,1,I,7,L,8,L,13,0.56272,0.781551,0.439794
13,90,8,1,2,1,1,C,7,L,1,S,9,0.841958,0.278672,0.23463
13,91,8,1,2,9,1,I,7,L,7,L,11,0.753937,0.491362,0.370456
13,92,9,1,2,1,1,C,8,L,1,S,8,0.80468,0.265273,0.21346
13,93,1,2,9,2,1,I,1,S,7,L,14,0.578199,0.758688,0.438672
13,94,1,2,8,1,1,I,1,S,7,L,15,0.618122,0.752479,0.465124
13,95,8,2,1,9,1,I,6,S,8,L,14,0.77904,0.568927,0.443217
13,96,2,8,9,1,1,I,6,S,8,L,13,0.565616,0.772852,0.437137
