ANN,trial,N1,N2,P1,P2,Succ.,,Ndist,Ndist,Pdist,Pdist,rt,a1,a2,x_acc
1,1,6,2,0,0,1,,4,S,0,S,16,0.78792,0.014356,0.011311
1,2,4,6,0,0,1,,2,S,0,S,14,0.008171,0.784145,0.006407
1,3,5,4,0,0,1,,1,S,0,S,20,0.792107,0.018038,0.014288
1,4,9,5,0,0,1,,4,S,0,S,14,0.764898,0.023735,0.018155
1,5,6,3,0,0,1,,3,S,0,S,20,0.796678,0.010883,0.008671
1,6,8,6,0,0,0,,2,S,0,S,16,0.035422,0.758357,0.026862
1,7,4,3,0,0,0,,1,S,0,S,21,0.043724,0.754446,0.032988
1,8,2,5,0,0,1,,3,S,0,S,21,0.030953,0.772501,0.023911
1,9,1,4,0,0,1,,3,S,0,S,16,0.015856,0.787363,0.012484
1,10,3,4,0,0,1,,1,S,0,S,16,0.028018,0.770999,0.021602
1,11,9,4,0,0,1,,5,S,0,S,14,0.768192,0.023835,0.01831
1,12,7,5,0,0,1,,2,S,0,S,19,0.77397,0.027685,0.021428
1,13,6,1,0,0,1,,5,S,0,S,14,0.764716,0.024501,0.018736
1,14,5,1,0,0,1,,4,S,0,S,14,0.782544,0.011088,0.008677
1,15,9,2,0,0,1,,7,L,0,S,13,0.778623,0.010174,0.007921
1,16,1,2,0,0,1,,1,S,0,S,24,0.047897,0.756878,0.036252
1,17,7,1,0,0,1,,6,S,0,S,14,0.785306,0.008233,0.006466
1,18,1,6,0,0,1,,5,S,0,S,13,0.013946,0.772322,0.010771
1,19,2,8,0,0,1,,6,S,0,S,14,0.0279,0.758742,0.021169
1,20,8,7,0,0,1,,1,S,0,S,23,0.753111,0.046399,0.034943
1,21,8,2,0,0,1,,6,S,0,S,14,0.755037,0.032191,0.024306
1,22,8,5,0,0,1,,3,S,0,S,17,0.775683,0.022994,0.017836
1,23,4,5,0,0,1,,1,S,0,S,19,0.026413,0.774262,0.02045
1,24,5,9,0,0,1,,4,S,0,S,18,0.028609,0.773328,0.022124
1,25,8,9,0,0,1,,1,S,0,S,23,0.039632,0.762653,0.030226
1,26,9,3,0,0,1,,6,S,0,S,14,0.781742,0.010747,0.008401
1,27,5,3,0,0,1,,2,S,0,S,18,0.779043,0.023236,0.018102
1,28,1,7,0,0,1,,6,S,0,S,15,0,0.801319,0
1,29,3,5,0,0,1,,2,S,0,S,16,0.035928,0.757208,0.027205
1,30,2,9,0,0,1,,7,L,0,S,16,0.012003,0.788958,0.00947
1,31,4,2,0,0,1,,2,S,0,S,18,0.766431,0.033825,0.025924
1,32,9,6,0,0,1,,3,S,0,S,22,0.762716,0.041014,0.031282
1,33,4,8,0,0,1,,4,S,0,S,14,0.016501,0.771944,0.012738
1,34,6,8,0,0,1,,2,S,0,S,15,0.018877,0.775475,0.014639
1,35,1,9,0,0,1,,8,L,0,S,14,0.01928,0.771664,0.014878
1,36,5,8,0,0,1,,3,S,0,S,15,0.03831,0.750865,0.028765
1,37,6,7,0,0,1,,1,S,0,S,18,0.034624,0.764277,0.026462
1,38,5,2,0,0,1,,3,S,0,S,15,0.766605,0.028448,0.021808
1,39,7,6,0,0,0,,1,S,0,S,15,0.031288,0.760362,0.02379
1,40,8,3,0,0,1,,5,S,0,S,16,0.765331,0.028889,0.02211
1,41,4,9,0,0,1,,5,S,0,S,15,0.029724,0.760808,0.022614
1,42,2,3,0,0,1,,1,S,0,S,32,0.024929,0.782418,0.019505
1,43,9,7,0,0,1,,2,S,0,S,16,0.798501,0.004248,0.003392
1,44,7,4,0,0,1,,3,S,0,S,19,0.769844,0.034045,0.02621
1,45,5,6,0,0,1,,1,S,0,S,15,0.024862,0.769643,0.019135
1,46,6,4,0,0,1,,2,S,0,S,23,0.752181,0.051365,0.038636
1,47,2,6,0,0,1,,4,S,0,S,14,0.018687,0.772115,0.014428
1,48,7,8,0,0,1,,1,S,0,S,16,0.00927,0.790826,0.007331
1,49,6,5,0,0,1,,1,S,0,S,23,0.786548,0.020622,0.01622
1,50,9,8,0,0,1,,1,S,0,S,20,0.762803,0.03839,0.029284
1,51,1,3,0,0,1,,2,S,0,S,17,0.016015,0.786293,0.012593
1,52,1,8,0,0,1,,7,L,0,S,13,0.02031,0.762627,0.015489
1,53,1,5,0,0,1,,4,S,0,S,16,0.023182,0.774473,0.017954
1,54,8,1,0,0,1,,7,L,0,S,13,0.75472,0.026153,0.019738
1,55,7,3,0,0,1,,4,S,0,S,18,0.792365,0.011796,0.009347
1,56,2,1,0,0,1,,1,S,0,S,15,0.78231,0.01472,0.011515
1,57,5,7,0,0,1,,2,S,0,S,20,0.028181,0.775665,0.021859
1,58,7,9,0,0,1,,2,S,0,S,18,0.045018,0.75147,0.03383
1,59,2,7,0,0,1,,5,S,0,S,16,0.041604,0.750236,0.031213
1,60,3,6,0,0,1,,3,S,0,S,13,0.01847,0.765508,0.014139
1,61,3,2,0,0,1,,1,S,0,S,30,0.768327,0.038642,0.02969
1,62,8,4,0,0,1,,4,S,0,S,17,0.776817,0.025034,0.019447
1,63,2,4,0,0,1,,2,S,0,S,20,0.04333,0.760014,0.032931
1,64,3,8,0,0,1,,5,S,0,S,13,0.025092,0.755433,0.018955
1,65,6,9,0,0,1,,3,S,0,S,17,0.023855,0.776737,0.018529
1,66,9,1,0,0,1,,8,L,0,S,12,0.755916,0.019649,0.014853
1,67,3,7,0,0,1,,4,S,0,S,15,0.00684,0.790824,0.005409
1,68,3,1,0,0,1,,2,S,0,S,17,0.779931,0.021485,0.016757
1,69,4,1,0,0,1,,3,S,0,S,15,0.756233,0.033639,0.025439
1,70,7,2,0,0,1,,5,S,0,S,15,0.771804,0.023614,0.018225
1,71,4,7,0,0,1,,3,S,0,S,16,0.018235,0.778365,0.014194
1,72,3,9,0,0,1,,6,S,0,S,14,0.025859,0.762208,0.01971
2,1,2,6,0,0,1,,4,S,0,S,15,0.009047,0.789609,0.007144
2,2,8,1,0,0,1,,7,L,0,S,13,0.767371,0.017622,0.013523
2,3,6,4,0,0,1,,2,S,0,S,21,0.7883,0.019397,0.015291
2,4,6,2,0,0,1,,4,S,0,S,17,0.783642,0.018436,0.014447
2,5,6,8,0,0,1,,2,S,0,S,18,0.029884,0.771305,0.023049
2,6,8,5,0,0,1,,3,S,0,S,16,0.766773,0.029096,0.02231
2,7,5,3,0,0,1,,2,S,0,S,16,0.779607,0.016854,0.013139
2,8,3,7,0,0,1,,4,S,0,S,17,0.025794,0.771386,0.019897
2,9,3,2,0,0,1,,1,S,0,S,18,0.770593,0.030736,0.023685
2,10,4,7,0,0,1,,3,S,0,S,17,0.006523,0.794731,0.005184
2,11,7,4,0,0,1,,3,S,0,S,20,0.79415,0.012695,0.010082
2,12,5,4,0,0,1,,1,S,0,S,30,0.791794,0.017085,0.013528
2,13,2,8,0,0,1,,6,S,0,S,14,0.009671,0.783772,0.00758
2,14,6,7,0,0,1,,1,S,0,S,18,0.041773,0.752797,0.031447
2,15,3,5,0,0,1,,2,S,0,S,23,0.035576,0.768078,0.027325
2,16,6,1,0,0,1,,5,S,0,S,14,0.761328,0.026884,0.020467
2,17,1,2,0,0,1,,1,S,0,S,17,0.018482,0.781227,0.014439
2,18,8,2,0,0,1,,6,S,0,S,15,0.798365,0.002397,0.001914
2,19,5,6,0,0,1,,1,S,0,S,21,0.03459,0.767642,0.026553
2,20,9,4,0,0,1,,5,S,0,S,17,0.794152,0.009741,0.007736
2,21,4,3,0,0,1,,1,S,0,S,16,0.754725,0.036932,0.027873
2,22,4,5,0,0,1,,1,S,0,S,21,0.014761,0.791755,0.011687
2,23,8,9,0,0,1,,1,S,0,S,16,0.007485,0.793534,0.00594
2,24,3,4,0,0,1,,1,S,0,S,30,0.047795,0.755739,0.036121
2,25,9,2,0,0,1,,7,L,0,S,15,0.772073,0.021883,0.016895
2,26,7,5,0,0,1,,2,S,0,S,21,0.77776,0.025258,0.019644
2,27,1,8,0,0,1,,7,L,0,S,14,0.008596,0.782843,0.006729
2,28,8,3,0,0,1,,5,S,0,S,14,0.787525,0.005888,0.004637
2,29,6,5,0,0,1,,1,S,0,S,23,0.782966,0.02333,0.018266
2,30,1,7,0,0,1,,6,S,0,S,14,0.012423,0.774862,0.009626
2,31,5,1,0,0,1,,4,S,0,S,15,0.789582,0.0077,0.00608
2,32,4,9,0,0,1,,5,S,0,S,14,0,0.800814,0
2,33,7,1,0,0,1,,6,S,0,S,14,0.76749,0.021021,0.016134
2,34,8,7,0,0,1,,1,S,0,S,20,0.784892,0.019115,0.015003
2,35,9,3,0,0,1,,6,S,0,S,14,0.767611,0.020198,0.015504
2,36,4,1,0,0,1,,3,S,0,S,15,0.773445,0.020886,0.016154
2,37,5,9,0,0,1,,4,S,0,S,14,0.003605,0.788231,0.002841
2,38,4,6,0,0,1,,2,S,0,S,19,0.033403,0.767941,0.025652
2,39,9,7,0,0,1,,2,S,0,S,24,0.775401,0.027316,0.021181
2,40,1,9,0,0,1,,8,L,0,S,12,0.019993,0.750863,0.015012
2,41,2,9,0,0,1,,7,L,0,S,12,0.020502,0.75237,0.015425
2,42,7,8,0,0,1,,1,S,0,S,19,0.023113,0.779762,0.018023
2,43,6,9,0,0,1,,3,S,0,S,14,0.01508,0.774704,0.011682
2,44,1,6,0,0,1,,5,S,0,S,15,0.007355,0.789376,0.005806
2,45,1,5,0,0,1,,4,S,0,S,15,0.018831,0.773216,0.01456
2,46,8,4,0,0,1,,4,S,0,S,16,0.786141,0.015017,0.011806
2,47,2,4,0,0,1,,2,S,0,S,15,0.02936,0.763556,0.022418
2,48,5,8,0,0,1,,3,S,0,S,17,0.024596,0.774272,0.019044
2,49,7,3,0,0,1,,4,S,0,S,15,0.770801,0.020877,0.016092
2,50,1,4,0,0,1,,3,S,0,S,15,0.02703,0.764051,0.020653
2,51,7,6,0,0,1,,1,S,0,S,24,0.794584,0.01414,0.011236
2,52,5,7,0,0,1,,2,S,0,S,17,0.033546,0.759515,0.025479
2,53,4,8,0,0,1,,4,S,0,S,16,0.034969,0.759055,0.026543
2,54,7,2,0,0,1,,5,S,0,S,16,0.750792,0.040734,0.030583
2,55,2,1,0,0,1,,1,S,0,S,21,0.796199,0.013133,0.010457
2,56,3,1,0,0,1,,2,S,0,S,15,0.789811,0.008921,0.007046
2,57,2,7,0,0,1,,5,S,0,S,14,0.013493,0.775831,0.010468
2,58,7,9,0,0,1,,2,S,0,S,14,0.022495,0.763559,0.017177
2,59,9,5,0,0,1,,4,S,0,S,17,0.769702,0.027905,0.021479
2,60,9,6,0,0,1,,3,S,0,S,18,0.790345,0.014362,0.011351
2,61,2,5,0,0,1,,3,S,0,S,15,0.020824,0.77312,0.016099
2,62,9,1,0,0,1,,8,L,0,S,13,0.750969,0.029091,0.021847
2,63,3,9,0,0,1,,6,S,0,S,14,0.000707,0.793716,0.000561
2,64,3,8,0,0,1,,5,S,0,S,17,0.017236,0.785513,0.013539
2,65,8,6,0,0,1,,2,S,0,S,17,0.79611,0.009274,0.007383
2,66,4,2,0,0,1,,2,S,0,S,19,0.767988,0.033181,0.025482
2,67,2,3,0,0,1,,1,S,0,S,21,0.034079,0.768056,0.026175
2,68,3,6,0,0,1,,3,S,0,S,21,0.013376,0.79613,0.010649
2,69,1,3,0,0,1,,2,S,0,S,21,0.014346,0.789984,0.011333
2,70,6,3,0,0,1,,3,S,0,S,15,0.761791,0.029039,0.022121
2,71,5,2,0,0,1,,3,S,0,S,18,0.775518,0.025256,0.019586
2,72,9,8,0,0,1,,1,S,0,S,25,0.772788,0.032497,0.025114
3,1,3,1,0,0,1,,2,S,0,S,18,0.791688,0.009197,0.007281
3,2,7,5,0,0,1,,2,S,0,S,17,0.77604,0.021205,0.016456
3,3,8,2,0,0,1,,6,S,0,S,16,0.794831,0.005429,0.004315
3,4,1,9,0,0,1,,8,L,0,S,14,0.029176,0.756749,0.022079
3,5,9,5,0,0,1,,4,S,0,S,16,0.791117,0.008119,0.006423
3,6,2,7,0,0,1,,5,S,0,S,15,0.03256,0.753998,0.02455
3,7,1,3,0,0,1,,2,S,0,S,17,0.027494,0.769604,0.021159
3,8,6,1,0,0,1,,5,S,0,S,14,0.760244,0.023485,0.017854
3,9,2,3,0,0,1,,1,S,0,S,20,0.045133,0.752156,0.033947
3,10,3,6,0,0,1,,3,S,0,S,17,0.004028,0.797171,0.003211
3,11,9,7,0,0,1,,2,S,0,S,20,0.753772,0.041419,0.031221
3,12,7,1,0,0,1,,6,S,0,S,15,0.800365,0,0
3,13,5,9,0,0,1,,4,S,0,S,18,0.038283,0.76093,0.029131
3,14,1,5,0,0,1,,4,S,0,S,17,0.004891,0.798097,0.003904
3,15,6,8,0,0,1,,2,S,0,S,17,0.029784,0.768428,0.022887
3,16,3,5,0,0,1,,2,S,0,S,19,0.04341,0.754011,0.032732
3,17,7,3,0,0,1,,4,S,0,S,16,0.755145,0.035466,0.026782
3,18,2,9,0,0,1,,7,L,0,S,15,0.030358,0.760304,0.023081
3,19,9,1,0,0,1,,8,L,0,S,14,0.781285,0.006687,0.005224
3,20,4,7,0,0,1,,3,S,0,S,17,0.008599,0.794263,0.00683
3,21,3,7,0,0,1,,4,S,0,S,16,0.00172,0.798174,0.001372
3,22,3,2,0,0,1,,1,S,0,S,25,0.76506,0.03706,0.028353
3,23,6,7,0,0,1,,1,S,0,S,32,0.028592,0.774358,0.022141
3,24,6,5,0,0,1,,1,S,0,S,17,0.795636,0.007447,0.005925
3,25,9,6,0,0,1,,3,S,0,S,18,0.77974,0.018319,0.014284
3,26,6,9,0,0,1,,3,S,0,S,34,0.032057,0.773983,0.024811
3,27,9,2,0,0,1,,7,L,0,S,15,0.788921,0.006511,0.005137
3,28,1,4,0,0,1,,3,S,0,S,17,0.016645,0.783253,0.013037
3,29,9,3,0,0,1,,6,S,0,S,15,0.760573,0.029176,0.02219
3,30,4,3,0,0,1,,1,S,0,S,22,0.781492,0.025802,0.020164
3,31,7,2,0,0,1,,5,S,0,S,16,0.794209,0.004247,0.003373
3,32,8,4,0,0,1,,4,S,0,S,17,0.790865,0.011261,0.008906
3,33,2,1,0,0,1,,1,S,0,S,18,0.774575,0.021953,0.017004
3,34,5,1,0,0,1,,4,S,0,S,15,0.766578,0.023121,0.017724
3,35,8,1,0,0,1,,7,L,0,S,14,0.750933,0.030592,0.022973
3,36,4,9,0,0,1,,5,S,0,S,16,0.042382,0.752015,0.031872
3,37,7,6,0,0,1,,1,S,0,S,21,0.763938,0.032578,0.024888
3,38,7,8,0,0,1,,1,S,0,S,17,0.019306,0.779514,0.015049
3,39,7,9,0,0,1,,2,S,0,S,25,0.015493,0.791437,0.012262
3,40,4,1,0,0,1,,3,S,0,S,16,0.773123,0.021993,0.017003
3,41,1,6,0,0,1,,5,S,0,S,15,0.020406,0.769177,0.015696
3,42,8,7,0,0,0,,1,S,0,S,23,0.043838,0.753982,0.033053
3,43,9,4,0,0,1,,5,S,0,S,15,0.751844,0.035825,0.026934
3,44,6,3,0,0,1,,3,S,0,S,16,0.772461,0.023675,0.018288
3,45,2,8,0,0,1,,6,S,0,S,14,0.013914,0.776588,0.010806
3,46,7,4,0,0,1,,3,S,0,S,17,0.791434,0.009074,0.007182
3,47,4,8,0,0,1,,4,S,0,S,15,0.005263,0.795544,0.004187
3,48,5,4,0,0,1,,1,S,0,S,19,0.793598,0.012642,0.010032
3,49,2,4,0,0,1,,2,S,0,S,20,0.01673,0.78775,0.013179
3,50,6,2,0,0,1,,4,S,0,S,15,0.758683,0.030746,0.023326
3,51,4,2,0,0,1,,2,S,0,S,19,0.79274,0.01385,0.01098
3,52,1,8,0,0,1,,7,L,0,S,13,0.025142,0.755239,0.018988
3,53,5,3,0,0,1,,2,S,0,S,18,0.768742,0.031295,0.024058
3,54,3,8,0,0,1,,5,S,0,S,14,0.016877,0.773607,0.013056
3,55,4,6,0,0,1,,2,S,0,S,18,0.032694,0.765227,0.025018
3,56,2,6,0,0,1,,4,S,0,S,16,0.032905,0.756681,0.024898
3,57,3,9,0,0,1,,6,S,0,S,15,0.035335,0.754814,0.026672
3,58,5,2,0,0,1,,3,S,0,S,17,0.785584,0.015569,0.012231
3,59,6,4,0,0,1,,2,S,0,S,16,0.761186,0.032393,0.024657
3,60,3,4,0,0,1,,1,S,0,S,20,0.039351,0.760371,0.029921
3,61,1,2,0,0,1,,1,S,0,S,19,0.016232,0.786421,0.012765
3,62,8,3,0,0,1,,5,S,0,S,16,0.754659,0.037601,0.028376
3,63,5,8,0,0,1,,3,S,0,S,15,0.037646,0.752603,0.028333
3,64,5,6,0,0,1,,1,S,0,S,22,0.032256,0.768477,0.024788
3,65,2,5,0,0,1,,3,S,0,S,19,0.02566,0.775415,0.019897
3,66,5,7,0,0,1,,2,S,0,S,18,0.041168,0.753567,0.031023
3,67,1,7,0,0,1,,6,S,0,S,14,0.031036,0.750972,0.023307
3,68,8,9,0,0,1,,1,S,0,S,23,0.04264,0.759379,0.03238
3,69,9,8,0,0,0,,1,S,0,S,19,0.026095,0.775651,0.020241
3,70,8,5,0,0,1,,3,S,0,S,17,0.774905,0.023866,0.018494
3,71,8,6,0,0,1,,2,S,0,S,22,0.794229,0.010792,0.008571
3,72,4,5,0,0,0,,1,S,0,S,29,0.758322,0.045672,0.034634
4,1,5,9,0,0,1,,4,S,0,S,15,0.038341,0.750195,0.028763
4,2,7,9,0,0,1,,2,S,0,S,24,0.032826,0.769565,0.025262
4,3,3,1,0,0,1,,2,S,0,S,15,0.750893,0.039311,0.029518
4,4,6,7,0,0,1,,1,S,0,S,19,0.038193,0.761369,0.029079
4,5,4,5,0,0,1,,1,S,0,S,26,0.039185,0.763515,0.029918
4,6,9,3,0,0,1,,6,S,0,S,16,0.789702,0.010683,0.008436
4,7,1,5,0,0,1,,4,S,0,S,14,0.020245,0.767813,0.015545
4,8,1,4,0,0,1,,3,S,0,S,14,0.025972,0.758265,0.019693
4,9,4,8,0,0,1,,4,S,0,S,16,0.02896,0.766554,0.022199
4,10,2,8,0,0,1,,6,S,0,S,15,0.033493,0.756709,0.025344
4,11,5,4,0,0,1,,1,S,0,S,25,0.781438,0.023678,0.018503
4,12,5,2,0,0,1,,3,S,0,S,22,0.79518,0.01501,0.011935
4,13,5,7,0,0,1,,2,S,0,S,18,0.039398,0.758604,0.029888
4,14,5,1,0,0,1,,4,S,0,S,15,0.768775,0.026057,0.020032
4,15,9,7,0,0,1,,2,S,0,S,19,0.791771,0.01165,0.009224
4,16,3,2,0,0,1,,1,S,0,S,26,0.784525,0.023951,0.01879
4,17,5,8,0,0,1,,3,S,0,S,16,0.035915,0.758748,0.027251
4,18,6,4,0,0,1,,2,S,0,S,22,0.791751,0.014216,0.011255
4,19,9,5,0,0,1,,4,S,0,S,16,0.762366,0.029928,0.022816
4,20,2,7,0,0,1,,5,S,0,S,17,0.01076,0.791442,0.008516
4,21,2,4,0,0,1,,2,S,0,S,21,0.011426,0.793676,0.009069
4,22,1,8,0,0,1,,7,L,0,S,13,0.009671,0.775901,0.007504
4,23,6,9,0,0,1,,3,S,0,S,16,0.01513,0.783407,0.011853
4,24,5,3,0,0,1,,2,S,0,S,22,0.770437,0.035928,0.02768
4,25,3,7,0,0,1,,4,S,0,S,18,0.011437,0.792999,0.009069
4,26,3,5,0,0,1,,2,S,0,S,23,0.037784,0.764677,0.028893
4,27,4,1,0,0,1,,3,S,0,S,15,0.759363,0.032557,0.024723
4,28,2,6,0,0,1,,4,S,0,S,18,0.03706,0.761728,0.02823
4,29,5,6,0,0,1,,1,S,0,S,22,0.03838,0.765883,0.029395
4,30,7,3,0,0,1,,4,S,0,S,15,0.761177,0.031252,0.023788
4,31,1,3,0,0,1,,2,S,0,S,14,0.027934,0.760406,0.021241
4,32,7,6,0,0,1,,1,S,0,S,16,0.765286,0.029987,0.022949
4,33,6,3,0,0,1,,3,S,0,S,20,0.76657,0.037407,0.028675
4,34,1,7,0,0,1,,6,S,0,S,13,0.028503,0.750253,0.021385
4,35,9,1,0,0,1,,8,L,0,S,14,0.796477,0,0
4,36,3,6,0,0,1,,3,S,0,S,20,0.035612,0.766852,0.027309
4,37,8,6,0,0,1,,2,S,0,S,18,0.786171,0.019387,0.015242
4,38,3,9,0,0,1,,6,S,0,S,15,0.026569,0.764587,0.020314
4,39,7,8,0,0,0,,1,S,0,S,21,0.758209,0.041979,0.031829
4,40,9,6,0,0,1,,3,S,0,S,17,0.785564,0.014994,0.011779
4,41,8,9,0,0,1,,1,S,0,S,18,0.040842,0.756919,0.030914
4,42,8,5,0,0,1,,3,S,0,S,17,0.774214,0.026072,0.020185
4,43,4,6,0,0,1,,2,S,0,S,21,0.034914,0.768372,0.026827
4,44,4,2,0,0,1,,2,S,0,S,23,0.775352,0.030445,0.023605
4,45,8,4,0,0,1,,4,S,0,S,17,0.783074,0.01733,0.013571
4,46,7,5,0,0,1,,2,S,0,S,16,0.786805,0.012032,0.009467
4,47,2,9,0,0,1,,7,L,0,S,15,0.008605,0.787323,0.006775
4,48,8,2,0,0,1,,6,S,0,S,16,0.762102,0.034607,0.026374
4,49,9,2,0,0,1,,7,L,0,S,16,0.791439,0.008429,0.006671
4,50,6,8,0,0,1,,2,S,0,S,17,0.017269,0.784917,0.013555
4,51,6,5,0,0,1,,1,S,0,S,23,0.777892,0.027618,0.021484
4,52,7,2,0,0,1,,5,S,0,S,15,0.762675,0.029204,0.022273
4,53,7,1,0,0,1,,6,S,0,S,13,0.754649,0.026558,0.020042
4,54,3,8,0,0,1,,5,S,0,S,16,0.020282,0.777867,0.015777
4,55,2,1,0,0,1,,1,S,0,S,16,0.768606,0.028214,0.021685
4,56,9,8,0,0,1,,1,S,0,S,26,0.794869,0.01279,0.010166
4,57,6,1,0,0,1,,5,S,0,S,15,0.781511,0.015847,0.012385
4,58,8,1,0,0,1,,7,L,0,S,14,0.78563,0.009681,0.007605
4,59,1,2,0,0,1,,1,S,0,S,14,0.030768,0.755609,0.023249
4,60,4,7,0,0,1,,3,S,0,S,18,0.026279,0.774073,0.020342
4,61,4,3,0,0,1,,1,S,0,S,24,0.780399,0.027699,0.021617
4,62,7,4,0,0,1,,3,S,0,S,16,0.791323,0.006822,0.005398
4,63,8,3,0,0,1,,5,S,0,S,16,0.759143,0.037849,0.028733
4,64,4,9,0,0,1,,5,S,0,S,15,0.033225,0.755743,0.02511
4,65,8,7,0,0,1,,1,S,0,S,21,0.77962,0.026353,0.020545
4,66,2,5,0,0,1,,3,S,0,S,20,0.015665,0.78988,0.012374
4,67,3,4,0,0,1,,1,S,0,S,26,0.041526,0.758398,0.031493
4,68,1,6,0,0,1,,5,S,0,S,14,0.009666,0.782876,0.007568
4,69,1,9,0,0,1,,8,L,0,S,13,0,0.78907,0
4,70,9,4,0,0,1,,5,S,0,S,16,0.768207,0.023666,0.01818
4,71,2,3,0,0,1,,1,S,0,S,21,0.044755,0.757311,0.033893
4,72,6,2,0,0,1,,4,S,0,S,20,0.780024,0.02567,0.020023
5,1,8,2,0,0,1,,6,S,0,S,16,0.763112,0.028463,0.021721
5,2,6,2,0,0,1,,4,S,0,S,16,0.779384,0.018902,0.014732
5,3,3,9,0,0,1,,6,S,0,S,15,0.014066,0.780568,0.01098
5,4,6,7,0,0,0,,1,S,0,S,22,0.79503,0.012608,0.010024
5,5,7,8,0,0,1,,1,S,0,S,25,0.020666,0.786786,0.01626
5,6,4,3,0,0,1,,1,S,0,S,21,0.787306,0.018421,0.014503
5,7,2,1,0,0,1,,1,S,0,S,22,0.766803,0.036734,0.028168
5,8,6,3,0,0,1,,3,S,0,S,15,0.767519,0.025878,0.019862
5,9,4,1,0,0,1,,3,S,0,S,15,0.753794,0.034912,0.026316
5,10,1,8,0,0,1,,7,L,0,S,13,0.009523,0.778232,0.007411
5,11,2,9,0,0,1,,7,L,0,S,13,0.012148,0.771764,0.009375
5,12,4,5,0,0,1,,1,S,0,S,18,0.029855,0.769292,0.022967
5,13,5,7,0,0,1,,2,S,0,S,21,0.011005,0.79469,0.008745
5,14,9,3,0,0,1,,6,S,0,S,15,0.760797,0.03152,0.02398
5,15,5,3,0,0,1,,2,S,0,S,17,0.795356,0.007796,0.0062
5,16,2,5,0,0,1,,3,S,0,S,15,0.001262,0.799115,0.001008
5,17,5,9,0,0,1,,4,S,0,S,16,0.019868,0.774946,0.015397
5,18,6,8,0,0,1,,2,S,0,S,17,0.028043,0.771766,0.021642
5,19,4,9,0,0,1,,5,S,0,S,15,0.000838,0.795733,0.000667
5,20,1,6,0,0,1,,5,S,0,S,15,0.033699,0.75839,0.025557
5,21,7,2,0,0,1,,5,S,0,S,15,0.800083,0,0
5,22,4,2,0,0,0,,2,S,0,S,28,0.039003,0.762901,0.029755
5,23,1,3,0,0,1,,2,S,0,S,17,0.022592,0.779122,0.017602
5,24,7,3,0,0,1,,4,S,0,S,14,0.773969,0.015877,0.012288
5,25,8,3,0,0,1,,5,S,0,S,15,0.753573,0.033593,0.025315
5,26,3,6,0,0,1,,3,S,0,S,26,0.04559,0.757697,0.034544
5,27,5,8,0,0,1,,3,S,0,S,16,0.004645,0.797062,0.003702
5,28,6,4,0,0,1,,2,S,0,S,18,0.76377,0.0335,0.025586
5,29,9,1,0,0,1,,8,L,0,S,14,0.79822,0,0
5,30,8,5,0,0,1,,3,S,0,S,19,0.794936,0.008807,0.007001
5,31,5,4,0,0,1,,1,S,0,S,26,0.784318,0.020049,0.015725
5,32,6,5,0,0,1,,1,S,0,S,18,0.773854,0.027707,0.021441
5,33,7,1,0,0,1,,6,S,0,S,13,0.782883,0.003986,0.00312
5,34,9,8,0,0,0,,1,S,0,S,17,0.016886,0.78642,0.013279
5,35,7,5,0,0,1,,2,S,0,S,16,0.795698,0.005406,0.004301
5,36,8,6,0,0,1,,2,S,0,S,17,0.776495,0.020918,0.016243
5,37,8,1,0,0,1,,7,L,0,S,14,0.791678,0.000364,0.000288
5,38,8,4,0,0,1,,4,S,0,S,19,0.784113,0.015239,0.011949
5,39,3,8,0,0,1,,5,S,0,S,15,0.002909,0.797478,0.00232
5,40,3,4,0,0,1,,1,S,0,S,20,0.0106,0.795417,0.008431
5,41,8,9,0,0,1,,1,S,0,S,18,0.012314,0.786716,0.009687
5,42,4,8,0,0,1,,4,S,0,S,14,0.026613,0.760135,0.020229
5,43,2,4,0,0,1,,2,S,0,S,15,0.002332,0.795306,0.001855
5,44,5,1,0,0,1,,4,S,0,S,14,0.764684,0.02274,0.017389
5,45,2,8,0,0,1,,6,S,0,S,13,0.006023,0.782265,0.004712
5,46,3,7,0,0,1,,4,S,0,S,17,0.035485,0.760209,0.026976
5,47,1,5,0,0,1,,4,S,0,S,15,0.007844,0.791317,0.006207
5,48,1,4,0,0,1,,3,S,0,S,15,0.00888,0.78752,0.006993
5,49,1,7,0,0,1,,6,S,0,S,14,0.021056,0.767706,0.016165
5,50,9,2,0,0,1,,7,L,0,S,16,0.770661,0.026174,0.020171
5,51,7,4,0,0,1,,3,S,0,S,16,0.788757,0.008855,0.006985
5,52,4,6,0,0,1,,2,S,0,S,21,0.022249,0.782696,0.017414
5,53,3,5,0,0,1,,2,S,0,S,19,0.047113,0.751177,0.03539
5,54,2,6,0,0,1,,4,S,0,S,15,0.025277,0.768577,0.019428
5,55,6,9,0,0,1,,3,S,0,S,18,0.017263,0.784618,0.013545
5,56,8,7,0,0,1,,1,S,0,S,23,0.780362,0.021257,0.016588
5,57,5,6,0,0,0,,1,S,0,S,19,0.758825,0.039727,0.030146
5,58,7,6,0,0,1,,1,S,0,S,15,0.781524,0.013908,0.010869
5,59,9,6,0,0,1,,3,S,0,S,17,0.784093,0.018575,0.014565
5,60,2,3,0,0,1,,1,S,0,S,17,0.008753,0.795903,0.006966
5,61,6,1,0,0,1,,5,S,0,S,14,0.801539,0,0
5,62,2,7,0,0,1,,5,S,0,S,14,0.015657,0.774121,0.01212
5,63,7,9,0,0,0,,2,S,0,S,27,0.764924,0.03602,0.027553
5,64,9,5,0,0,1,,4,S,0,S,18,0.755057,0.043032,0.032491
5,65,3,2,0,0,1,,1,S,0,S,22,0.772137,0.032074,0.024766
5,66,9,4,0,0,1,,5,S,0,S,19,0.791645,0.013046,0.010328
5,67,4,7,0,0,1,,3,S,0,S,17,0.006867,0.794526,0.005456
5,68,5,2,0,0,1,,3,S,0,S,18,0.780122,0.020798,0.016225
5,69,1,2,0,0,1,,1,S,0,S,16,0.020925,0.777601,0.016272
5,70,3,1,0,0,1,,2,S,0,S,15,0.780233,0.015887,0.012395
5,71,9,7,0,0,1,,2,S,0,S,23,0.779617,0.025866,0.020165
5,72,1,9,0,0,1,,8,L,0,S,13,0.015835,0.76747,0.012153
6,1,6,9,0,0,1,,3,S,0,S,21,0.02751,0.78007,0.02146
6,2,5,3,0,0,1,,2,S,0,S,25,0.757181,0.044331,0.033567
6,3,1,2,0,0,1,,1,S,0,S,21,0.046164,0.754036,0.034809
6,4,3,1,0,0,1,,2,S,0,S,15,0.768256,0.024471,0.0188
6,5,2,4,0,0,1,,2,S,0,S,21,0.014354,0.795361,0.011417
6,6,8,9,0,0,1,,1,S,0,S,35,0.018028,0.791324,0.014266
6,7,4,3,0,0,1,,1,S,0,S,17,0.759108,0.035371,0.026851
6,8,2,7,0,0,1,,5,S,0,S,14,0.017524,0.775009,0.013582
6,9,6,2,0,0,1,,4,S,0,S,14,0.773347,0.018464,0.014279
6,10,9,1,0,0,1,,8,L,0,S,14,0.778872,0.013842,0.010781
6,11,1,4,0,0,1,,3,S,0,S,16,0.015583,0.783708,0.012213
6,12,1,6,0,0,1,,5,S,0,S,14,0.02277,0.763904,0.017394
6,13,5,2,0,0,1,,3,S,0,S,16,0.755598,0.03862,0.029181
6,14,1,3,0,0,1,,2,S,0,S,16,0.024056,0.771368,0.018556
6,15,9,4,0,0,1,,5,S,0,S,16,0.796044,0.00716,0.0057
6,16,8,2,0,0,1,,6,S,0,S,14,0.785071,0.007454,0.005852
6,17,7,2,0,0,1,,5,S,0,S,14,0.780037,0.011227,0.008757
6,18,2,6,0,0,1,,4,S,0,S,16,0.020234,0.777578,0.015733
6,19,7,3,0,0,1,,4,S,0,S,16,0.797951,0.0023,0.001835
6,20,7,8,0,0,1,,1,S,0,S,21,0.01986,0.784883,0.015588
6,21,9,5,0,0,1,,4,S,0,S,20,0.773516,0.028496,0.022042
6,22,2,5,0,0,1,,3,S,0,S,16,0.016185,0.781702,0.012652
6,23,5,9,0,0,1,,4,S,0,S,15,0.033976,0.758326,0.025765
6,24,5,8,0,0,1,,3,S,0,S,15,0.018733,0.776483,0.014545
6,25,8,3,0,0,1,,5,S,0,S,15,0.756735,0.031699,0.023988
6,26,9,6,0,0,1,,3,S,0,S,19,0.75045,0.046719,0.03506
6,27,8,7,0,0,0,,1,S,0,S,19,0.02118,0.782694,0.016578
6,28,7,9,0,0,1,,2,S,0,S,25,0.032821,0.772077,0.025341
6,29,6,3,0,0,1,,3,S,0,S,16,0.784022,0.0155,0.012153
6,30,4,7,0,0,1,,3,S,0,S,16,0.021546,0.776283,0.016726
6,31,1,5,0,0,1,,4,S,0,S,14,0.020696,0.765625,0.015845
6,32,3,2,0,0,1,,1,S,0,S,15,0.774219,0.020176,0.01562
6,33,8,4,0,0,1,,4,S,0,S,15,0.752193,0.036399,0.027379
6,34,8,1,0,0,1,,7,L,0,S,14,0.781022,0.010253,0.008008
6,35,3,9,0,0,1,,6,S,0,S,17,0.028084,0.771401,0.021664
6,36,3,8,0,0,1,,5,S,0,S,16,0.038617,0.753556,0.0291
6,37,2,1,0,0,1,,1,S,0,S,18,0.790129,0.015624,0.012345
6,38,6,8,0,0,1,,2,S,0,S,19,0.028387,0.775308,0.022009
6,39,5,6,0,0,1,,1,S,0,S,17,0.018887,0.781186,0.014754
6,40,1,7,0,0,1,,6,S,0,S,13,0.012378,0.773507,0.009574
6,41,1,9,0,0,1,,8,L,0,S,14,0,0.801631,0
6,42,4,2,0,0,1,,2,S,0,S,15,0.786213,0.010582,0.00832
6,43,3,6,0,0,1,,3,S,0,S,20,0.043707,0.753344,0.032926
6,44,2,8,0,0,1,,6,S,0,S,14,0.03476,0.751465,0.026121
6,45,8,6,0,0,1,,2,S,0,S,19,0.77911,0.021704,0.01691
6,46,8,5,0,0,1,,3,S,0,S,19,0.759644,0.036218,0.027513
6,47,6,5,0,0,1,,1,S,0,S,22,0.782341,0.022687,0.017749
6,48,2,9,0,0,1,,7,L,0,S,15,0.010992,0.788611,0.008669
6,49,4,1,0,0,1,,3,S,0,S,15,0.780732,0.014519,0.011336
6,50,3,5,0,0,1,,2,S,0,S,20,0.026776,0.773567,0.020713
6,51,9,3,0,0,1,,6,S,0,S,15,0.75083,0.038379,0.028816
6,52,4,9,0,0,1,,5,S,0,S,18,0.014641,0.790082,0.011567
6,53,6,4,0,0,1,,2,S,0,S,16,0.778258,0.021231,0.016523
6,54,5,1,0,0,1,,4,S,0,S,17,0.795398,0.009128,0.00726
6,55,6,7,0,0,1,,1,S,0,S,17,0.040068,0.758015,0.030372
6,56,9,2,0,0,1,,7,L,0,S,14,0.783052,0.010931,0.008559
6,57,1,8,0,0,1,,7,L,0,S,13,0.02392,0.757168,0.018111
6,58,4,5,0,0,1,,1,S,0,S,22,0.01511,0.789229,0.011925
6,59,4,8,0,0,1,,4,S,0,S,17,0.020321,0.779377,0.015838
6,60,6,1,0,0,1,,5,S,0,S,14,0.768887,0.021581,0.016593
6,61,4,6,0,0,1,,2,S,0,S,22,0.044307,0.753779,0.033398
6,62,3,7,0,0,1,,4,S,0,S,16,0.007881,0.793987,0.006257
6,63,7,6,0,0,1,,1,S,0,S,19,0.753094,0.042157,0.031748
6,64,2,3,0,0,1,,1,S,0,S,22,0.016158,0.792125,0.012799
6,65,7,5,0,0,1,,2,S,0,S,20,0.777024,0.023239,0.018057
6,66,7,4,0,0,1,,3,S,0,S,16,0.793373,0.007075,0.005613
6,67,5,7,0,0,1,,2,S,0,S,14,0.034873,0.751677,0.026213
6,68,7,1,0,0,1,,6,S,0,S,14,0.775856,0.014122,0.010957
6,69,9,7,0,0,0,,2,S,0,S,18,0.030434,0.772343,0.023506
6,70,5,4,0,0,1,,1,S,0,S,35,0.753888,0.048999,0.03694
6,71,9,8,0,0,0,,1,S,0,S,20,0.039704,0.762245,0.030264
6,72,3,4,0,0,0,,1,S,0,S,18,0.764513,0.034368,0.026275
7,1,1,7,0,0,1,,6,S,0,S,14,0.035619,0.750612,0.026736
7,2,9,1,0,0,1,,8,L,0,S,15,0.777149,0.01869,0.014525
7,3,7,8,0,0,1,,1,S,0,S,34,0.026394,0.779629,0.020577
7,4,1,5,0,0,1,,4,S,0,S,16,0.005336,0.799643,0.004267
7,5,3,8,0,0,1,,5,S,0,S,16,0.009346,0.79105,0.007393
7,6,8,4,0,0,1,,4,S,0,S,17,0.767062,0.034551,0.026503
7,7,3,2,0,0,1,,1,S,0,S,18,0.763656,0.035717,0.027276
7,8,1,6,0,0,1,,5,S,0,S,15,0.027283,0.763562,0.020833
7,9,2,4,0,0,1,,2,S,0,S,20,0.041646,0.762761,0.031766
7,10,6,4,0,0,1,,2,S,0,S,19,0.750802,0.049994,0.037536
7,11,2,6,0,0,1,,4,S,0,S,17,0.032886,0.764367,0.025137
7,12,7,9,0,0,1,,2,S,0,S,20,0.027702,0.774683,0.02146
7,13,1,2,0,0,1,,1,S,0,S,25,0.035366,0.767998,0.027161
7,14,3,4,0,0,1,,1,S,0,S,20,0.016706,0.79405,0.013265
7,15,5,8,0,0,1,,3,S,0,S,17,0.038244,0.752633,0.028784
7,16,8,7,0,0,0,,1,S,0,S,24,0.025028,0.785448,0.019658
7,17,2,7,0,0,1,,5,S,0,S,16,0.020297,0.780614,0.015844
7,18,7,3,0,0,1,,4,S,0,S,16,0.774157,0.023743,0.018381
7,19,2,9,0,0,1,,7,L,0,S,15,0.021825,0.771276,0.016833
7,20,3,1,0,0,1,,2,S,0,S,20,0.751234,0.049787,0.037402
7,21,6,5,0,0,1,,1,S,0,S,25,0.790232,0.022021,0.017402
7,22,5,7,0,0,1,,2,S,0,S,18,0.010851,0.793314,0.008608
7,23,4,7,0,0,1,,3,S,0,S,18,0.029446,0.772655,0.022751
7,24,5,1,0,0,1,,4,S,0,S,17,0.759535,0.035647,0.027075
7,25,9,7,0,0,1,,2,S,0,S,24,0.76754,0.037668,0.028912
7,26,9,3,0,0,1,,6,S,0,S,16,0.775724,0.021691,0.016827
7,27,6,7,0,0,1,,1,S,0,S,19,0.017147,0.790904,0.013562
7,28,6,8,0,0,1,,2,S,0,S,18,0.039895,0.756779,0.030191
7,29,3,9,0,0,1,,6,S,0,S,15,0.01687,0.777833,0.013122
7,30,9,2,0,0,1,,7,L,0,S,15,0.798826,0.000127,0.000101
7,31,2,3,0,0,1,,1,S,0,S,25,0.019552,0.790106,0.015448
7,32,9,8,0,0,1,,1,S,0,S,30,0.780626,0.024548,0.019163
7,33,4,1,0,0,1,,3,S,0,S,17,0.787165,0.015989,0.012586
7,34,2,1,0,0,1,,1,S,0,S,20,0.783307,0.024042,0.018832
7,35,2,8,0,0,1,,6,S,0,S,16,0.015661,0.782836,0.01226
7,36,8,3,0,0,1,,5,S,0,S,17,0.798788,0.007195,0.005748
7,37,7,1,0,0,1,,6,S,0,S,15,0.776405,0.020058,0.015573
7,38,4,8,0,0,1,,4,S,0,S,18,0.018788,0.782217,0.014697
7,39,9,6,0,0,1,,3,S,0,S,19,0.769553,0.030497,0.023469
7,40,4,3,0,0,1,,1,S,0,S,19,0.776996,0.025863,0.020096
7,41,1,8,0,0,1,,7,L,0,S,14,0.033111,0.750278,0.024842
7,42,6,1,0,0,1,,5,S,0,S,16,0.758977,0.036913,0.028016
7,43,7,6,0,0,1,,1,S,0,S,19,0.762431,0.037034,0.028236
7,44,6,9,0,0,1,,3,S,0,S,17,0.016944,0.783776,0.01328
7,45,1,9,0,0,1,,8,L,0,S,14,0.013709,0.775652,0.010633
7,46,4,6,0,0,1,,2,S,0,S,21,0.040485,0.759156,0.030734
7,47,1,3,0,0,1,,2,S,0,S,17,0.031066,0.766772,0.023821
7,48,8,2,0,0,1,,6,S,0,S,15,0.785166,0.012262,0.009627
7,49,6,2,0,0,1,,4,S,0,S,16,0.793966,0.007661,0.006083
7,50,3,5,0,0,1,,2,S,0,S,18,0.015841,0.792767,0.012558
7,51,3,6,0,0,1,,3,S,0,S,17,0.023054,0.777034,0.017914
7,52,7,2,0,0,1,,5,S,0,S,15,0.798497,0.001145,0.000914
7,53,9,4,0,0,1,,5,S,0,S,16,0.750465,0.043614,0.032731
7,54,4,5,0,0,1,,1,S,0,S,28,0.031344,0.777879,0.024382
7,55,5,3,0,0,1,,2,S,0,S,20,0.771532,0.028887,0.022288
7,56,8,1,0,0,1,,7,L,0,S,15,0.759734,0.033781,0.025665
7,57,6,3,0,0,1,,3,S,0,S,18,0.766435,0.033993,0.026053
7,58,5,2,0,0,1,,3,S,0,S,16,0.755903,0.034434,0.026029
7,59,8,9,0,0,1,,1,S,0,S,19,0.011514,0.794814,0.009151
7,60,4,9,0,0,1,,5,S,0,S,16,0.03999,0.75031,0.030005
7,61,4,2,0,0,1,,2,S,0,S,16,0.777639,0.019564,0.015213
7,62,2,5,0,0,1,,3,S,0,S,18,0.028875,0.776273,0.022415
7,63,9,5,0,0,1,,4,S,0,S,18,0.792397,0.014794,0.011722
7,64,7,5,0,0,1,,2,S,0,S,18,0.788326,0.018904,0.014902
7,65,8,6,0,0,1,,2,S,0,S,21,0.775448,0.029161,0.022613
7,66,8,5,0,0,1,,3,S,0,S,19,0.788139,0.021123,0.016648
7,67,5,6,0,0,1,,1,S,0,S,20,0.031062,0.767262,0.023833
7,68,7,4,0,0,1,,3,S,0,S,17,0.797373,0.009694,0.00773
7,69,5,9,0,0,1,,4,S,0,S,16,0.029244,0.761422,0.022267
7,70,1,4,0,0,1,,3,S,0,S,16,0.036402,0.75984,0.02766
7,71,5,4,0,0,1,,1,S,0,S,23,0.776388,0.028955,0.02248
7,72,3,7,0,0,1,,4,S,0,S,16,0.013579,0.789306,0.010718
8,1,5,9,0,0,1,,4,S,0,S,15,0.012781,0.788308,0.010076
8,2,4,5,0,0,1,,1,S,0,S,28,0.043517,0.761663,0.033145
8,3,7,9,0,0,1,,2,S,0,S,23,0.049573,0.754169,0.037386
8,4,5,4,0,0,1,,1,S,0,S,21,0.751557,0.046342,0.034829
8,5,4,9,0,0,1,,5,S,0,S,15,0.006015,0.796945,0.004793
8,6,9,4,0,0,1,,5,S,0,S,14,0.760537,0.023217,0.017657
8,7,5,2,0,0,1,,3,S,0,S,16,0.750485,0.04374,0.032826
8,8,1,4,0,0,1,,3,S,0,S,17,0.0084,0.794167,0.006671
8,9,6,5,0,0,1,,1,S,0,S,28,0.786422,0.022171,0.017436
8,10,7,4,0,0,1,,3,S,0,S,15,0.782699,0.010974,0.008589
8,11,6,3,0,0,1,,3,S,0,S,22,0.76432,0.038056,0.029087
8,12,9,5,0,0,1,,4,S,0,S,14,0.754842,0.030268,0.022848
8,13,1,8,0,0,1,,7,L,0,S,15,0.015737,0.783063,0.012323
8,14,6,2,0,0,1,,4,S,0,S,17,0.791241,0.012656,0.010014
8,15,3,9,0,0,1,,6,S,0,S,14,0.00142,0.79648,0.001131
8,16,4,8,0,0,1,,4,S,0,S,19,0.01257,0.796858,0.010017
8,17,5,3,0,0,1,,2,S,0,S,22,0.793916,0.015659,0.012432
8,18,9,7,0,0,1,,2,S,0,S,15,0.779646,0.014491,0.011298
8,19,1,3,0,0,1,,2,S,0,S,16,0.039329,0.755141,0.029699
8,20,4,3,0,0,1,,1,S,0,S,24,0.789469,0.019956,0.015755
8,21,1,5,0,0,1,,4,S,0,S,16,0.022224,0.7776,0.017281
8,22,6,1,0,0,1,,5,S,0,S,15,0.783459,0.012678,0.009933
8,23,8,1,0,0,1,,7,L,0,S,13,0.780584,0.005116,0.003993
8,24,4,2,0,0,1,,2,S,0,S,17,0.783495,0.020074,0.015728
8,25,2,9,0,0,1,,7,L,0,S,14,0.007996,0.787954,0.006301
8,26,2,3,0,0,1,,1,S,0,S,19,0.019774,0.7844,0.01551
8,27,9,8,0,0,1,,1,S,0,S,15,0.765979,0.026345,0.02018
8,28,4,7,0,0,1,,3,S,0,S,20,0.030895,0.773444,0.023896
8,29,8,7,0,0,1,,1,S,0,S,16,0.799402,0.001714,0.00137
8,30,2,8,0,0,1,,6,S,0,S,16,0.026243,0.771452,0.020245
8,31,4,1,0,0,1,,3,S,0,S,15,0.780392,0.016256,0.012686
8,32,3,8,0,0,1,,5,S,0,S,16,0.012199,0.789347,0.00963
8,33,7,8,0,0,0,,1,S,0,S,16,0.771769,0.025947,0.020025
8,34,6,9,0,0,1,,3,S,0,S,15,0.011715,0.788199,0.009234
8,35,8,2,0,0,1,,6,S,0,S,14,0.7963,0,0
8,36,1,2,0,0,1,,1,S,0,S,21,0.026485,0.781621,0.020701
8,37,4,6,0,0,1,,2,S,0,S,21,0.037317,0.765879,0.028581
8,38,3,2,0,0,1,,1,S,0,S,24,0.792067,0.017556,0.013906
8,39,3,4,0,0,1,,1,S,0,S,18,0.03321,0.762729,0.02533
8,40,6,8,0,0,1,,2,S,0,S,19,0.032049,0.770854,0.024705
8,41,3,6,0,0,1,,3,S,0,S,17,0.007507,0.795945,0.005975
8,42,9,2,0,0,1,,7,L,0,S,13,0.759392,0.022166,0.016833
8,43,1,7,0,0,1,,6,S,0,S,15,0.030647,0.762349,0.023364
8,44,6,7,0,0,1,,1,S,0,S,21,0.024937,0.780065,0.019452
8,45,5,6,0,0,1,,1,S,0,S,23,0.03012,0.776014,0.023374
8,46,6,4,0,0,1,,2,S,0,S,22,0.769931,0.030898,0.02379
8,47,3,1,0,0,1,,2,S,0,S,17,0.781101,0.019478,0.015214
8,48,2,6,0,0,1,,4,S,0,S,17,0.025824,0.772737,0.019955
8,49,5,8,0,0,1,,3,S,0,S,19,0.038898,0.763905,0.029714
8,50,9,3,0,0,1,,6,S,0,S,14,0.764592,0.022335,0.017077
8,51,2,4,0,0,1,,2,S,0,S,19,0.028868,0.76973,0.022221
8,52,9,6,0,0,1,,3,S,0,S,15,0.787295,0.008257,0.006501
8,53,7,6,0,0,1,,1,S,0,S,15,0.750764,0.037702,0.028305
8,54,9,1,0,0,1,,8,L,0,S,13,0.793315,0,0
8,55,1,9,0,0,1,,8,L,0,S,13,0.020563,0.766752,0.015766
8,56,7,1,0,0,1,,6,S,0,S,13,0.778105,0.008041,0.006257
8,57,3,7,0,0,1,,4,S,0,S,16,0.031934,0.76256,0.024352
8,58,7,3,0,0,1,,4,S,0,S,15,0.786832,0.010018,0.007883
8,59,5,7,0,0,1,,2,S,0,S,21,0.037554,0.765973,0.028765
8,60,8,9,0,0,1,,1,S,0,S,32,0.024039,0.785607,0.018886
8,61,2,5,0,0,1,,3,S,0,S,18,0.023377,0.779003,0.018211
8,62,8,3,0,0,1,,5,S,0,S,15,0.792889,0.004126,0.003271
8,63,7,2,0,0,1,,5,S,0,S,14,0.792625,0.002778,0.002202
8,64,5,1,0,0,1,,4,S,0,S,15,0.789091,0.009438,0.007448
8,65,1,6,0,0,1,,5,S,0,S,15,0.039209,0.750926,0.029443
8,66,8,6,0,0,1,,2,S,0,S,15,0.759237,0.029922,0.022718
8,67,7,5,0,0,1,,2,S,0,S,15,0.774756,0.019904,0.015421
8,68,2,1,0,0,1,,1,S,0,S,16,0.754292,0.038251,0.028852
8,69,2,7,0,0,1,,5,S,0,S,17,0.012388,0.790136,0.009788
8,70,8,4,0,0,1,,4,S,0,S,15,0.788676,0.005162,0.004071
8,71,3,5,0,0,1,,2,S,0,S,17,0.035718,0.761298,0.027192
8,72,8,5,0,0,1,,3,S,0,S,15,0.781659,0.013341,0.010428
9,1,3,2,0,0,1,,1,S,0,S,20,0.753001,0.044078,0.033191
9,2,6,3,0,0,1,,3,S,0,S,22,0.778329,0.027562,0.021452
9,3,2,7,0,0,1,,5,S,0,S,15,0.028375,0.75979,0.021559
9,4,3,5,0,0,1,,2,S,0,S,17,0.020778,0.778597,0.016178
9,5,7,3,0,0,1,,4,S,0,S,17,0.7901,0.011809,0.00933
9,6,9,4,0,0,1,,5,S,0,S,15,0.798746,0.001609,0.001285
9,7,2,1,0,0,1,,1,S,0,S,18,0.759104,0.038257,0.029041
9,8,5,1,0,0,1,,4,S,0,S,14,0.766689,0.021556,0.016527
9,9,7,9,0,0,1,,2,S,0,S,25,0.043056,0.759807,0.032714
9,10,6,1,0,0,1,,5,S,0,S,15,0.78407,0.011882,0.009316
9,11,7,5,0,0,1,,2,S,0,S,16,0.769357,0.024732,0.019028
9,12,8,4,0,0,1,,4,S,0,S,16,0.754434,0.040469,0.030531
9,13,2,4,0,0,1,,2,S,0,S,19,0.018118,0.786846,0.014256
9,14,6,5,0,0,1,,1,S,0,S,19,0.750471,0.046127,0.034617
9,15,8,3,0,0,1,,5,S,0,S,18,0.758172,0.042176,0.031977
9,16,9,1,0,0,1,,8,L,0,S,13,0.762509,0.020253,0.015443
9,17,6,4,0,0,1,,2,S,0,S,18,0.779336,0.022825,0.017788
9,18,8,6,0,0,0,,2,S,0,S,21,0.031168,0.775771,0.024179
9,19,5,4,0,0,1,,1,S,0,S,16,0.761554,0.032956,0.025098
9,20,9,7,0,0,1,,2,S,0,S,17,0.763237,0.031408,0.023972
9,21,4,5,0,0,0,,1,S,0,S,22,0.795137,0.012572,0.009996
9,22,9,3,0,0,1,,6,S,0,S,15,0.757015,0.034608,0.026199
9,23,2,5,0,0,1,,3,S,0,S,17,0.043015,0.750639,0.032288
9,24,5,7,0,0,0,,2,S,0,S,28,0.778692,0.024552,0.019118
9,25,5,9,0,0,1,,4,S,0,S,19,0.040517,0.760852,0.030827
9,26,3,1,0,0,1,,2,S,0,S,19,0.758607,0.039648,0.030077
9,27,6,2,0,0,1,,4,S,0,S,15,0.771373,0.020915,0.016133
9,28,1,5,0,0,1,,4,S,0,S,15,0.005363,0.790601,0.00424
9,29,8,5,0,0,1,,3,S,0,S,17,0.758021,0.039216,0.029727
9,30,5,2,0,0,1,,3,S,0,S,14,0.756243,0.028748,0.021741
9,31,1,2,0,0,1,,1,S,0,S,18,0.028749,0.768076,0.022081
9,32,2,9,0,0,1,,7,L,0,S,14,0.029339,0.759222,0.022275
9,33,3,4,0,0,1,,1,S,0,S,18,0.022598,0.779339,0.017611
9,34,4,9,0,0,1,,5,S,0,S,16,0.037658,0.757468,0.028525
9,35,9,2,0,0,1,,7,L,0,S,13,0.754687,0.025405,0.019173
9,36,8,1,0,0,1,,7,L,0,S,14,0.764979,0.024634,0.018844
9,37,9,5,0,0,1,,4,S,0,S,15,0.775797,0.018811,0.014594
9,38,6,8,0,0,1,,2,S,0,S,16,0.035909,0.755006,0.027112
9,39,1,4,0,0,1,,3,S,0,S,15,0.021437,0.770807,0.016524
9,40,1,3,0,0,1,,2,S,0,S,14,0.027138,0.759023,0.020598
9,41,4,7,0,0,1,,3,S,0,S,19,0.008491,0.794683,0.006748
9,42,6,7,0,0,1,,1,S,0,S,20,0.021012,0.780178,0.016393
9,43,1,6,0,0,1,,5,S,0,S,13,0.025012,0.755044,0.018885
9,44,4,8,0,0,1,,4,S,0,S,16,0.016665,0.779567,0.012992
9,45,7,8,0,0,1,,1,S,0,S,21,0.015446,0.787439,0.012163
9,46,3,8,0,0,1,,5,S,0,S,14,0.01162,0.777584,0.009036
9,47,7,1,0,0,1,,6,S,0,S,14,0.786171,0.005374,0.004225
9,48,2,6,0,0,1,,4,S,0,S,15,0.010033,0.787753,0.007903
9,49,4,2,0,0,1,,2,S,0,S,15,0.752288,0.035585,0.02677
9,50,4,3,0,0,1,,1,S,0,S,31,0.754017,0.048399,0.036494
9,51,8,7,0,0,0,,1,S,0,S,27,0.047365,0.752796,0.035656
9,52,2,3,0,0,1,,1,S,0,S,17,0.0103,0.793759,0.008176
9,53,5,8,0,0,1,,3,S,0,S,18,0.02676,0.771634,0.020649
9,54,3,9,0,0,1,,6,S,0,S,14,0.020981,0.769764,0.01615
9,55,2,8,0,0,1,,6,S,0,S,14,0.019065,0.768169,0.014645
9,56,7,4,0,0,1,,3,S,0,S,15,0.750596,0.037099,0.027846
9,57,1,7,0,0,1,,6,S,0,S,14,0.000536,0.789612,0.000423
9,58,4,1,0,0,1,,3,S,0,S,15,0.766566,0.025394,0.019466
9,59,3,6,0,0,1,,3,S,0,S,15,0.000583,0.799535,0.000466
9,60,6,9,0,0,1,,3,S,0,S,17,0.02525,0.776265,0.019601
9,61,3,7,0,0,1,,4,S,0,S,15,0.017469,0.773593,0.013514
9,62,9,8,0,0,1,,1,S,0,S,23,0.771888,0.030991,0.023922
9,63,1,9,0,0,1,,8,L,0,S,13,0.01455,0.770201,0.011206
9,64,7,2,0,0,1,,5,S,0,S,14,0.777081,0.011559,0.008983
9,65,5,6,0,0,1,,1,S,0,S,22,0.049935,0.75027,0.037465
9,66,5,3,0,0,1,,2,S,0,S,18,0.774113,0.02752,0.021303
9,67,4,6,0,0,1,,2,S,0,S,17,0.037102,0.759606,0.028183
9,68,7,6,0,0,1,,1,S,0,S,22,0.755047,0.0446,0.033675
9,69,8,2,0,0,1,,6,S,0,S,14,0.754232,0.032081,0.024197
9,70,9,6,0,0,1,,3,S,0,S,18,0.778133,0.024967,0.019428
9,71,1,8,0,0,1,,7,L,0,S,13,0.008452,0.774132,0.006543
9,72,8,9,0,0,1,,1,S,0,S,19,0.014854,0.795506,0.011817
10,1,5,3,0,0,1,,2,S,0,S,22,0.767126,0.035805,0.027467
10,2,5,4,0,0,0,,1,S,0,S,17,0.031051,0.767845,0.023842
10,3,6,4,0,0,1,,2,S,0,S,21,0.756482,0.044865,0.03394
10,4,3,1,0,0,1,,2,S,0,S,17,0.771848,0.026042,0.020101
10,5,1,3,0,0,1,,2,S,0,S,20,0.012676,0.792961,0.010052
10,6,9,8,0,0,0,,1,S,0,S,47,0.035738,0.769611,0.027505
10,7,2,6,0,0,1,,4,S,0,S,15,0.023041,0.772924,0.017809
10,8,1,4,0,0,1,,3,S,0,S,15,0.037864,0.750845,0.02843
10,9,9,2,0,0,1,,7,L,0,S,15,0.782953,0.013521,0.010587
10,10,7,5,0,0,1,,2,S,0,S,16,0.764928,0.027975,0.021399
10,11,1,2,0,0,1,,1,S,0,S,22,0.038301,0.765756,0.029329
10,12,3,7,0,0,1,,4,S,0,S,15,0.009713,0.789333,0.007667
10,13,2,5,0,0,1,,3,S,0,S,17,0.040468,0.753138,0.030478
10,14,8,1,0,0,1,,7,L,0,S,13,0.758801,0.02258,0.017134
10,15,8,2,0,0,1,,6,S,0,S,15,0.794487,0.006806,0.005407
10,16,7,2,0,0,1,,5,S,0,S,14,0.751282,0.034965,0.026269
10,17,5,7,0,0,1,,2,S,0,S,16,0.034993,0.760981,0.026629
10,18,3,9,0,0,1,,6,S,0,S,14,0.02262,0.768137,0.017375
10,19,3,8,0,0,1,,5,S,0,S,14,0.029802,0.759103,0.022623
10,20,8,5,0,0,1,,3,S,0,S,17,0.79648,0.006841,0.005449
10,21,9,1,0,0,1,,8,L,0,S,13,0.750314,0.026812,0.020118
10,22,8,3,0,0,1,,5,S,0,S,15,0.767748,0.025407,0.019506
10,23,4,1,0,0,1,,3,S,0,S,15,0.780997,0.011876,0.009275
10,24,6,3,0,0,1,,3,S,0,S,16,0.78075,0.017812,0.013906
10,25,7,8,0,0,0,,1,S,0,S,22,0.792314,0.016934,0.013417
10,26,2,9,0,0,1,,7,L,0,S,15,0.003288,0.797991,0.002624
10,27,7,1,0,0,1,,6,S,0,S,13,0.763295,0.01785,0.013624
10,28,2,3,0,0,1,,1,S,0,S,21,0.045886,0.753672,0.034583
10,29,9,4,0,0,1,,5,S,0,S,19,0.774522,0.026564,0.020574
10,30,5,2,0,0,1,,3,S,0,S,19,0.76209,0.040202,0.030637
10,31,6,1,0,0,1,,5,S,0,S,14,0.793686,0.000574,0.000455
10,32,3,4,0,0,1,,1,S,0,S,15,0.028011,0.764861,0.021425
10,33,4,6,0,0,1,,2,S,0,S,17,0.016716,0.784802,0.013119
10,34,3,5,0,0,1,,2,S,0,S,16,0.038153,0.753135,0.028735
10,35,4,7,0,0,1,,3,S,0,S,17,0.030162,0.767126,0.023138
10,36,5,8,0,0,1,,3,S,0,S,16,0.00871,0.795087,0.006925
10,37,7,9,0,0,0,,2,S,0,S,25,0.784062,0.024224,0.018993
10,38,5,6,0,0,1,,1,S,0,S,16,0.024258,0.775278,0.018807
10,39,9,6,0,0,1,,3,S,0,S,23,0.784724,0.022334,0.017526
10,40,5,1,0,0,1,,4,S,0,S,15,0.766088,0.025554,0.019577
10,41,9,7,0,0,1,,2,S,0,S,21,0.763722,0.037683,0.028779
10,42,8,4,0,0,1,,4,S,0,S,18,0.755399,0.043063,0.03253
10,43,4,9,0,0,1,,5,S,0,S,16,0.020308,0.7773,0.015785
10,44,8,9,0,0,1,,1,S,0,S,26,0.02309,0.787807,0.01819
10,45,6,7,0,0,1,,1,S,0,S,32,0.042939,0.762712,0.03275
10,46,2,1,0,0,1,,1,S,0,S,16,0.767427,0.027363,0.020999
10,47,1,7,0,0,1,,6,S,0,S,15,0.018131,0.777306,0.014093
10,48,4,5,0,0,1,,1,S,0,S,24,0.012242,0.792776,0.009705
10,49,3,2,0,0,0,,1,S,0,S,21,0.014055,0.796662,0.011197
10,50,7,3,0,0,1,,4,S,0,S,15,0.778,0.015965,0.01242
10,51,1,6,0,0,1,,5,S,0,S,15,0.011225,0.786752,0.008831
10,52,2,7,0,0,1,,5,S,0,S,15,0.030782,0.76238,0.023468
10,53,8,7,0,0,1,,1,S,0,S,20,0.764013,0.039436,0.030129
10,54,4,8,0,0,1,,4,S,0,S,16,0.033719,0.760472,0.025643
10,55,7,4,0,0,1,,3,S,0,S,18,0.787676,0.015855,0.012489
10,56,4,3,0,0,1,,1,S,0,S,20,0.788909,0.014766,0.011649
10,57,7,6,0,0,1,,1,S,0,S,20,0.785975,0.020732,0.016295
10,58,4,2,0,0,1,,2,S,0,S,18,0.773954,0.027121,0.020991
10,59,5,9,0,0,1,,4,S,0,S,15,0.034036,0.758706,0.025823
10,60,2,8,0,0,1,,6,S,0,S,15,0.011565,0.787713,0.00911
10,61,8,6,0,0,1,,2,S,0,S,21,0.758296,0.045281,0.034336
10,62,6,2,0,0,1,,4,S,0,S,15,0.762989,0.031087,0.023719
10,63,3,6,0,0,1,,3,S,0,S,15,0.003266,0.798142,0.002607
10,64,1,5,0,0,1,,4,S,0,S,17,0.016454,0.782299,0.012872
10,65,6,9,0,0,1,,3,S,0,S,20,0.013626,0.796176,0.010849
10,66,2,4,0,0,1,,2,S,0,S,16,0.016698,0.783153,0.013077
10,67,6,8,0,0,1,,2,S,0,S,21,0.027111,0.780623,0.021163
10,68,9,5,0,0,1,,4,S,0,S,17,0.778812,0.018308,0.014258
10,69,9,3,0,0,1,,6,S,0,S,15,0.754738,0.033077,0.024965
10,70,1,9,0,0,1,,8,L,0,S,14,0.02952,0.757933,0.022374
10,71,1,8,0,0,1,,7,L,0,S,15,0.000968,0.799966,0.000775
10,72,6,5,0,0,1,,1,S,0,S,18,0.783133,0.018643,0.0146
11,1,3,9,0,0,1,,6,S,0,S,14,0.008257,0.781043,0.006449
11,2,6,1,0,0,1,,5,S,0,S,14,0.770579,0.017817,0.013729
11,3,7,5,0,0,1,,2,S,0,S,17,0.79171,0.012317,0.009752
11,4,6,3,0,0,1,,3,S,0,S,16,0.756316,0.036476,0.027587
11,5,9,3,0,0,1,,6,S,0,S,13,0.780752,0.004806,0.003752
11,6,9,7,0,0,1,,2,S,0,S,14,0.760592,0.025905,0.019703
11,7,4,6,0,0,1,,2,S,0,S,16,0.005266,0.796886,0.004197
11,8,1,4,0,0,1,,3,S,0,S,15,0.01064,0.783919,0.008341
11,9,8,3,0,0,1,,5,S,0,S,15,0.776519,0.016528,0.012835
11,10,5,4,0,0,1,,1,S,0,S,21,0.788593,0.018918,0.014918
11,11,5,9,0,0,1,,4,S,0,S,16,0.025369,0.769946,0.019533
11,12,2,5,0,0,1,,3,S,0,S,15,0.018769,0.774988,0.014545
11,13,5,6,0,0,1,,1,S,0,S,22,0.014659,0.79445,0.011646
11,14,3,6,0,0,1,,3,S,0,S,15,0.028844,0.761025,0.021951
11,15,8,1,0,0,1,,7,L,0,S,13,0.752566,0.025287,0.01903
11,16,5,8,0,0,1,,3,S,0,S,17,0.028544,0.770102,0.021982
11,17,3,8,0,0,1,,5,S,0,S,14,0.02426,0.761385,0.018471
11,18,3,1,0,0,1,,2,S,0,S,15,0.756699,0.029804,0.022552
11,19,1,2,0,0,1,,1,S,0,S,18,0.034017,0.7634,0.025968
11,20,6,2,0,0,1,,4,S,0,S,17,0.778551,0.023614,0.018385
11,21,6,5,0,0,0,,1,S,0,S,20,0.023409,0.782568,0.018319
11,22,3,5,0,0,1,,2,S,0,S,16,0.036615,0.754663,0.027632
11,23,8,9,0,0,1,,1,S,0,S,16,0.03027,0.762555,0.023082
11,24,1,5,0,0,1,,4,S,0,S,15,0.008145,0.78694,0.00641
11,25,4,9,0,0,1,,5,S,0,S,14,0.015274,0.773792,0.011819
11,26,3,4,0,0,1,,1,S,0,S,17,0.005147,0.797675,0.004105
11,27,7,3,0,0,1,,4,S,0,S,14,0.779705,0.011586,0.009034
11,28,1,9,0,0,1,,8,L,0,S,13,0.013074,0.767787,0.010038
11,29,1,6,0,0,1,,5,S,0,S,14,0.017038,0.770778,0.013133
11,30,4,3,0,0,1,,1,S,0,S,19,0.784323,0.018497,0.014507
11,31,8,4,0,0,1,,4,S,0,S,20,0.757972,0.041715,0.031618
11,32,9,1,0,0,1,,8,L,0,S,12,0.768669,0.006895,0.0053
11,33,1,7,0,0,1,,6,S,0,S,15,0.014411,0.778238,0.011215
11,34,9,6,0,0,1,,3,S,0,S,15,0.767188,0.025291,0.019403
11,35,9,2,0,0,1,,7,L,0,S,13,0.775836,0.01046,0.008115
11,36,4,2,0,0,1,,2,S,0,S,20,0.760162,0.041156,0.031285
11,37,9,4,0,0,1,,5,S,0,S,14,0.758654,0.028012,0.021251
11,38,6,9,0,0,1,,3,S,0,S,15,0.010477,0.785965,0.008234
11,39,6,8,0,0,1,,2,S,0,S,15,0.034271,0.756665,0.025932
11,40,3,7,0,0,1,,4,S,0,S,17,0.011571,0.788708,0.009126
11,41,7,9,0,0,1,,2,S,0,S,19,0.031813,0.768898,0.024461
11,42,1,8,0,0,1,,7,L,0,S,13,0.02487,0.753317,0.018735
11,43,5,2,0,0,1,,3,S,0,S,15,0.760522,0.032001,0.024338
11,44,5,3,0,0,1,,2,S,0,S,15,0.775291,0.018304,0.014191
11,45,8,5,0,0,1,,3,S,0,S,21,0.782523,0.02268,0.017748
11,46,6,4,0,0,0,,2,S,0,S,20,0.037909,0.764624,0.028986
11,47,5,1,0,0,1,,4,S,0,S,13,0.752352,0.026207,0.019717
11,48,4,8,0,0,1,,4,S,0,S,14,0.032706,0.752324,0.024605
11,49,2,1,0,0,1,,1,S,0,S,17,0.783127,0.015041,0.011779
11,50,2,4,0,0,1,,2,S,0,S,15,0.021571,0.771574,0.016643
11,51,8,7,0,0,1,,1,S,0,S,20,0.776944,0.025897,0.020121
11,52,6,7,0,0,1,,1,S,0,S,21,0.022312,0.784115,0.017495
11,53,7,8,0,0,1,,1,S,0,S,23,0.042327,0.760459,0.032188
11,54,9,5,0,0,1,,4,S,0,S,14,0.755231,0.030487,0.023025
11,55,4,1,0,0,1,,3,S,0,S,15,0.77702,0.015688,0.01219
11,56,2,6,0,0,1,,4,S,0,S,14,0.02531,0.761676,0.019278
11,57,8,2,0,0,1,,6,S,0,S,15,0.762226,0.029837,0.022742
11,58,7,4,0,0,1,,3,S,0,S,17,0.798466,0.007102,0.005671
11,59,1,3,0,0,1,,2,S,0,S,20,0.017585,0.78366,0.01378
11,60,8,6,0,0,0,,2,S,0,S,22,0.039671,0.762074,0.030232
11,61,2,7,0,0,1,,5,S,0,S,15,0.025722,0.765386,0.019687
11,62,4,7,0,0,1,,3,S,0,S,17,0.032484,0.764281,0.024827
11,63,7,1,0,0,1,,6,S,0,S,13,0.787159,0.00036,0.000283
11,64,9,8,0,0,1,,1,S,0,S,17,0.785528,0.015498,0.012174
11,65,7,6,0,0,1,,1,S,0,S,19,0.783918,0.021515,0.016866
11,66,2,9,0,0,1,,7,L,0,S,13,0.018581,0.76208,0.01416
11,67,3,2,0,0,1,,1,S,0,S,23,0.770328,0.032906,0.025349
11,68,2,3,0,0,1,,1,S,0,S,22,0.013608,0.791952,0.010777
11,69,2,8,0,0,1,,6,S,0,S,14,0,0.800044,0
11,70,4,5,0,0,1,,1,S,0,S,17,0.019436,0.7815,0.015189
11,71,7,2,0,0,1,,5,S,0,S,14,0.770851,0.020495,0.015799
11,72,5,7,0,0,0,,2,S,0,S,20,0.763512,0.037531,0.028656
12,1,5,9,0,0,1,,4,S,0,S,15,0.022343,0.772593,0.017262
12,2,6,1,0,0,1,,5,S,0,S,14,0.793695,0.001712,0.001359
12,3,5,8,0,0,1,,3,S,0,S,15,0.030538,0.76253,0.023286
12,4,1,3,0,0,1,,2,S,0,S,16,0.029321,0.760977,0.022313
12,5,6,2,0,0,1,,4,S,0,S,15,0.788584,0.008166,0.006439
12,6,4,3,0,0,1,,1,S,0,S,20,0.784446,0.021474,0.016845
12,7,3,1,0,0,1,,2,S,0,S,17,0.790699,0.013474,0.010654
12,8,5,4,0,0,1,,1,S,0,S,24,0.795061,0.012234,0.009727
12,9,8,3,0,0,1,,5,S,0,S,14,0.769377,0.017712,0.013627
12,10,2,1,0,0,1,,1,S,0,S,19,0.773319,0.030235,0.023382
12,11,8,1,0,0,1,,7,L,0,S,13,0.776849,0.00803,0.006238
12,12,3,4,0,0,1,,1,S,0,S,24,0.038742,0.76388,0.029594
12,13,3,5,0,0,1,,2,S,0,S,17,0.029349,0.772862,0.022683
12,14,1,7,0,0,1,,6,S,0,S,15,0.001512,0.794425,0.001201
12,15,4,2,0,0,1,,2,S,0,S,18,0.784359,0.019066,0.014954
12,16,6,9,0,0,1,,3,S,0,S,22,0.028258,0.778878,0.02201
12,17,3,9,0,0,1,,6,S,0,S,15,0.004569,0.796899,0.003641
12,18,4,8,0,0,1,,4,S,0,S,16,0.015827,0.78702,0.012456
12,19,6,5,0,0,1,,1,S,0,S,17,0.772545,0.028783,0.022237
12,20,8,2,0,0,1,,6,S,0,S,14,0.788119,0.003092,0.002437
12,21,7,2,0,0,1,,5,S,0,S,14,0.767239,0.020274,0.015555
12,22,5,3,0,0,1,,2,S,0,S,24,0.770977,0.032463,0.025028
12,23,7,5,0,0,1,,2,S,0,S,16,0.784587,0.016333,0.012814
12,24,8,7,0,0,1,,1,S,0,S,15,0.757466,0.031566,0.02391
12,25,2,9,0,0,1,,7,L,0,S,14,0.012959,0.781259,0.010124
12,26,6,8,0,0,1,,2,S,0,S,25,0.021735,0.788628,0.017141
12,27,4,7,0,0,1,,3,S,0,S,19,0.04155,0.759323,0.03155
12,28,7,3,0,0,1,,4,S,0,S,15,0.796155,0.001904,0.001516
12,29,8,4,0,0,1,,4,S,0,S,14,0.769099,0.017222,0.013245
12,30,2,5,0,0,1,,3,S,0,S,16,0.008825,0.795936,0.007024
12,31,3,7,0,0,1,,4,S,0,S,17,0.017246,0.785895,0.013553
12,32,4,5,0,0,1,,1,S,0,S,20,0.036326,0.769508,0.027953
12,33,6,3,0,0,1,,3,S,0,S,15,0.760527,0.030251,0.023007
12,34,9,8,0,0,1,,1,S,0,S,31,0.784861,0.024133,0.018941
12,35,4,1,0,0,1,,3,S,0,S,15,0.757861,0.034278,0.025978
12,36,7,6,0,0,1,,1,S,0,S,37,0.780162,0.02653,0.020698
12,37,5,6,0,0,1,,1,S,0,S,15,0.008312,0.789031,0.006559
12,38,9,6,0,0,0,,3,S,0,S,20,0.047132,0.750334,0.035365
12,39,3,2,0,0,1,,1,S,0,S,22,0.762468,0.039686,0.030259
12,40,3,6,0,0,1,,3,S,0,S,14,0.028603,0.759427,0.021722
12,41,8,6,0,0,1,,2,S,0,S,20,0.777609,0.024438,0.019003
12,42,1,2,0,0,1,,1,S,0,S,17,0.031858,0.760065,0.024214
12,43,6,4,0,0,1,,2,S,0,S,15,0.760807,0.029285,0.02228
12,44,7,4,0,0,1,,3,S,0,S,15,0.796019,0.001299,0.001034
12,45,2,6,0,0,1,,4,S,0,S,14,0.00348,0.792038,0.002756
12,46,1,9,0,0,1,,8,L,0,S,13,0.026559,0.751743,0.019966
12,47,9,4,0,0,1,,5,S,0,S,15,0.768122,0.022604,0.017363
12,48,2,8,0,0,1,,6,S,0,S,14,0.018342,0.77474,0.014211
12,49,5,7,0,0,1,,2,S,0,S,18,0.019904,0.782927,0.015584
12,50,9,5,0,0,1,,4,S,0,S,17,0.787327,0.015995,0.012593
12,51,5,2,0,0,1,,3,S,0,S,19,0.75015,0.045766,0.034331
12,52,1,4,0,0,1,,3,S,0,S,16,0.032547,0.755808,0.024599
12,53,9,2,0,0,1,,7,L,0,S,15,0.794269,0.002756,0.002189
12,54,9,3,0,0,1,,6,S,0,S,15,0.767976,0.023458,0.018015
12,55,9,7,0,0,1,,2,S,0,S,17,0.764162,0.032506,0.02484
12,56,8,5,0,0,1,,3,S,0,S,15,0.771943,0.022033,0.017008
12,57,6,7,0,0,0,,1,S,0,S,18,0.794831,0.010944,0.008698
12,58,2,7,0,0,1,,5,S,0,S,15,0.038002,0.752732,0.028605
12,59,4,9,0,0,1,,5,S,0,S,16,0.00601,0.798956,0.004801
12,60,9,1,0,0,1,,8,L,0,S,14,0.797243,0,0
12,61,1,6,0,0,1,,5,S,0,S,13,0.01892,0.760408,0.014387
12,62,5,1,0,0,1,,4,S,0,S,16,0.773218,0.023777,0.018384
12,63,2,4,0,0,1,,2,S,0,S,18,0.03777,0.759835,0.028699
12,64,1,5,0,0,1,,4,S,0,S,15,0.006148,0.79054,0.004861
12,65,3,8,0,0,1,,5,S,0,S,15,0.01149,0.788525,0.00906
12,66,8,9,0,0,0,,1,S,0,S,18,0.76016,0.037479,0.02849
12,67,7,9,0,0,0,,2,S,0,S,22,0.794832,0.014639,0.011636
12,68,7,8,0,0,0,,1,S,0,S,20,0.767342,0.035874,0.027528
12,69,2,3,0,0,1,,1,S,0,S,18,0.032089,0.768062,0.024646
12,70,4,6,0,0,1,,2,S,0,S,15,0.025487,0.768856,0.019596
12,71,1,8,0,0,1,,7,L,0,S,14,0,0.799897,0
12,72,7,1,0,0,1,,6,S,0,S,13,0.761435,0.020803,0.01584
13,1,3,7,0,0,1,,4,S,0,S,18,0.014714,0.790373,0.01163
13,2,9,7,0,0,0,,2,S,0,S,23,0.039452,0.764982,0.03018
13,3,3,9,0,0,1,,6,S,0,S,14,0.018121,0.771214,0.013975
13,4,2,1,0,0,1,,1,S,0,S,17,0.782243,0.016471,0.012884
13,5,4,3,0,0,0,,1,S,0,S,24,0.037213,0.767593,0.028564
13,6,1,8,0,0,1,,7,L,0,S,14,0.031305,0.751158,0.023515
13,7,2,7,0,0,1,,5,S,0,S,16,0.018805,0.778183,0.014633
13,8,5,9,0,0,1,,4,S,0,S,15,0,0.800685,0
13,9,5,1,0,0,1,,4,S,0,S,15,0.789469,0.008154,0.006438
13,10,6,3,0,0,1,,3,S,0,S,19,0.783639,0.022357,0.01752
13,11,5,8,0,0,1,,3,S,0,S,19,0.038741,0.763598,0.029583
13,12,6,5,0,0,0,,1,S,0,S,26,0.03483,0.769136,0.026789
13,13,6,4,0,0,0,,2,S,0,S,24,0.028796,0.778592,0.02242
13,14,5,2,0,0,1,,3,S,0,S,16,0.797781,0.007737,0.006172
13,15,9,4,0,0,1,,5,S,0,S,19,0.784019,0.021743,0.017047
13,16,9,6,0,0,1,,3,S,0,S,21,0.769398,0.036724,0.028255
13,17,1,2,0,0,1,,1,S,0,S,20,0.041909,0.756025,0.031684
13,18,7,5,0,0,1,,2,S,0,S,19,0.757797,0.040498,0.030689
13,19,6,9,0,0,1,,3,S,0,S,14,0.01613,0.774277,0.012489
13,20,9,1,0,0,1,,8,L,0,S,14,0.758226,0.028521,0.021625
13,21,1,4,0,0,1,,3,S,0,S,16,0.007331,0.789779,0.00579
13,22,3,5,0,0,1,,2,S,0,S,29,0.023425,0.783105,0.018345
13,23,4,7,0,0,1,,3,S,0,S,16,0.009815,0.791291,0.007766
13,24,1,5,0,0,1,,4,S,0,S,16,0.013579,0.779608,0.010586
13,25,8,3,0,0,1,,5,S,0,S,16,0.789734,0.012364,0.009764
13,26,8,5,0,0,1,,3,S,0,S,18,0.793053,0.011287,0.008951
13,27,1,3,0,0,1,,2,S,0,S,17,0.03941,0.752035,0.029638
13,28,6,7,0,0,1,,1,S,0,S,17,0.045032,0.750417,0.033793
13,29,4,9,0,0,1,,5,S,0,S,13,0.025799,0.753972,0.019452
13,30,5,3,0,0,1,,2,S,0,S,17,0.772392,0.028474,0.021993
13,31,3,2,0,0,1,,1,S,0,S,16,0.754036,0.041697,0.031441
13,32,4,2,0,0,1,,2,S,0,S,20,0.792218,0.017251,0.013667
13,33,3,6,0,0,1,,3,S,0,S,20,0.033218,0.772087,0.025647
13,34,1,7,0,0,1,,6,S,0,S,15,0,0.797544,0
13,35,5,7,0,0,1,,2,S,0,S,20,0.014848,0.793565,0.011783
13,36,8,2,0,0,1,,6,S,0,S,15,0.79229,0.008996,0.007128
13,37,4,1,0,0,1,,3,S,0,S,17,0.772711,0.025345,0.019584
13,38,7,4,0,0,1,,3,S,0,S,20,0.792326,0.015772,0.012497
13,39,3,4,0,0,1,,1,S,0,S,25,0.038017,0.766829,0.029153
13,40,3,8,0,0,1,,5,S,0,S,17,0.043812,0.752548,0.03297
13,41,8,9,0,0,1,,1,S,0,S,15,0.03096,0.76002,0.02353
13,42,7,2,0,0,1,,5,S,0,S,15,0.763687,0.031374,0.02396
13,43,3,1,0,0,1,,2,S,0,S,15,0.75873,0.03153,0.023923
13,44,7,9,0,0,1,,2,S,0,S,15,0.009112,0.788117,0.007182
13,45,9,5,0,0,1,,4,S,0,S,19,0.792622,0.013039,0.010335
13,46,7,8,0,0,1,,1,S,0,S,21,0.020433,0.788339,0.016108
13,47,4,6,0,0,1,,2,S,0,S,17,0.011882,0.793381,0.009427
13,48,2,6,0,0,1,,4,S,0,S,17,0.024267,0.776057,0.018833
13,49,7,1,0,0,1,,6,S,0,S,15,0.801032,0,0
13,50,1,6,0,0,1,,5,S,0,S,15,0.021312,0.770101,0.016412
13,51,4,5,0,0,1,,1,S,0,S,18,0.027111,0.772104,0.020932
13,52,9,2,0,0,1,,7,L,0,S,15,0.774959,0.022782,0.017655
13,53,6,1,0,0,1,,5,S,0,S,15,0.7563,0.033801,0.025564
13,54,8,1,0,0,1,,7,L,0,S,14,0.771664,0.018011,0.013898
13,55,8,4,0,0,1,,4,S,0,S,18,0.788008,0.017091,0.013468
13,56,7,6,0,0,1,,1,S,0,S,23,0.769837,0.037103,0.028563
13,57,2,4,0,0,1,,2,S,0,S,18,0.032661,0.7656,0.025005
13,58,5,6,0,0,1,,1,S,0,S,30,0.043065,0.764039,0.032904
13,59,7,3,0,0,1,,4,S,0,S,17,0.797355,0.008467,0.006751
13,60,6,2,0,0,1,,4,S,0,S,17,0.799229,0.008638,0.006904
13,61,9,8,0,0,0,,1,S,0,S,22,0.043881,0.760077,0.033353
13,62,8,7,0,0,1,,1,S,0,S,26,0.773336,0.033218,0.025689
13,63,2,5,0,0,1,,3,S,0,S,19,0.009672,0.793772,0.007677
13,64,9,3,0,0,1,,6,S,0,S,16,0.764853,0.032153,0.024592
13,65,2,8,0,0,1,,6,S,0,S,16,0.01439,0.784848,0.011294
13,66,4,8,0,0,1,,4,S,0,S,16,0.005676,0.79755,0.004527
13,67,2,3,0,0,1,,1,S,0,S,29,0.046346,0.755117,0.034997
13,68,8,6,0,0,1,,2,S,0,S,19,0.768229,0.035688,0.027417
13,69,2,9,0,0,1,,7,L,0,S,14,0,0.800213,0
13,70,5,4,0,0,1,,1,S,0,S,21,0.76247,0.0406,0.030956
13,71,1,9,0,0,1,,8,L,0,S,13,0.003046,0.779802,0.002376
13,72,6,8,0,0,1,,2,S,0,S,17,0.037911,0.760579,0.028835
14,1,5,1,0,0,1,,4,S,0,S,14,0.756673,0.030127,0.022796
14,2,8,9,0,0,1,,1,S,0,S,15,0.036513,0.754182,0.027537
14,3,7,8,0,0,1,,1,S,0,S,17,0.035255,0.759987,0.026793
14,4,3,4,0,0,1,,1,S,0,S,16,0.033346,0.759759,0.025335
14,5,3,9,0,0,1,,6,S,0,S,13,0.009854,0.776586,0.007652
14,6,4,1,0,0,1,,3,S,0,S,15,0.797076,0.003417,0.002724
14,7,6,1,0,0,1,,5,S,0,S,13,0.778302,0.007846,0.006107
14,8,2,5,0,0,1,,3,S,0,S,16,0.015741,0.780975,0.012293
14,9,1,7,0,0,1,,6,S,0,S,14,0.004204,0.787742,0.003311
14,10,3,8,0,0,1,,5,S,0,S,13,0,0.802388,0
14,11,7,3,0,0,1,,4,S,0,S,15,0.789929,0.005608,0.00443
14,12,7,5,0,0,1,,2,S,0,S,15,0.754395,0.033389,0.025188
14,13,4,6,0,0,1,,2,S,0,S,21,0.018731,0.792085,0.014836
14,14,5,7,0,0,1,,2,S,0,S,21,0.018541,0.788805,0.014625
14,15,9,2,0,0,1,,7,L,0,S,14,0.798233,0,0
14,16,4,5,0,0,1,,1,S,0,S,22,0.017734,0.790056,0.014011
14,17,5,2,0,0,1,,3,S,0,S,15,0.79921,0.000524,0.000418
14,18,7,9,0,0,1,,2,S,0,S,22,0.048657,0.750288,0.036507
14,19,6,9,0,0,1,,3,S,0,S,20,0.014812,0.791991,0.011731
14,20,2,6,0,0,1,,4,S,0,S,16,0.007309,0.795307,0.005813
14,21,1,4,0,0,1,,3,S,0,S,15,0.010271,0.78337,0.008046
14,22,6,2,0,0,1,,4,S,0,S,13,0.772751,0.011623,0.008981
14,23,7,2,0,0,1,,5,S,0,S,13,0.781697,0.004361,0.003409
14,24,6,3,0,0,1,,3,S,0,S,15,0.771916,0.020149,0.015553
14,25,8,4,0,0,1,,4,S,0,S,17,0.751055,0.042912,0.032229
14,26,4,8,0,0,1,,4,S,0,S,14,0.003991,0.791491,0.003159
14,27,8,6,0,0,1,,2,S,0,S,22,0.777369,0.030313,0.023565
14,28,7,4,0,0,1,,3,S,0,S,15,0.80053,0,0
14,29,5,4,0,0,1,,1,S,0,S,19,0.768296,0.03223,0.024762
14,30,4,2,0,0,1,,2,S,0,S,15,0.787572,0.010383,0.008178
14,31,1,2,0,0,1,,1,S,0,S,20,0.034817,0.763684,0.026589
14,32,6,4,0,0,1,,2,S,0,S,15,0.783982,0.011179,0.008764
14,33,2,7,0,0,1,,5,S,0,S,15,0.030183,0.76012,0.022943
14,34,1,3,0,0,1,,2,S,0,S,15,0.00287,0.792415,0.002274
14,35,2,4,0,0,1,,2,S,0,S,18,0.006684,0.797182,0.005328
14,36,7,1,0,0,1,,6,S,0,S,13,0.786913,0.000833,0.000656
14,37,1,5,0,0,1,,4,S,0,S,14,0.016358,0.770568,0.012605
14,38,8,1,0,0,1,,7,L,0,S,14,0.777874,0.013902,0.010814
14,39,9,5,0,0,1,,4,S,0,S,18,0.785239,0.017569,0.013796
14,40,6,5,0,0,1,,1,S,0,S,16,0.780646,0.016461,0.01285
14,41,1,6,0,0,1,,5,S,0,S,14,0.011259,0.780642,0.008789
14,42,3,2,0,0,1,,1,S,0,S,20,0.779154,0.024592,0.019161
14,43,5,3,0,0,1,,2,S,0,S,20,0.76464,0.035626,0.027241
14,44,9,4,0,0,1,,5,S,0,S,16,0.775681,0.021452,0.01664
14,45,3,1,0,0,1,,2,S,0,S,19,0.772047,0.029862,0.023055
14,46,8,5,0,0,1,,3,S,0,S,21,0.760402,0.040111,0.030501
14,47,8,2,0,0,1,,6,S,0,S,14,0.770053,0.019464,0.014988
14,48,3,5,0,0,1,,2,S,0,S,15,0.022877,0.769298,0.017599
14,49,5,6,0,0,1,,1,S,0,S,24,0.028091,0.780905,0.021937
14,50,9,3,0,0,1,,6,S,0,S,16,0.75767,0.035115,0.026605
14,51,9,8,0,0,0,,1,S,0,S,15,0.021702,0.772738,0.01677
14,52,2,8,0,0,1,,6,S,0,S,13,0.000392,0.787551,0.000309
14,53,5,9,0,0,1,,4,S,0,S,15,0.013715,0.783398,0.010744
14,54,2,3,0,0,1,,1,S,0,S,17,0.024777,0.771793,0.019123
14,55,2,1,0,0,1,,1,S,0,S,17,0.758076,0.036975,0.02803
14,56,3,7,0,0,1,,4,S,0,S,15,0.00559,0.792867,0.004432
14,57,9,7,0,0,1,,2,S,0,S,19,0.771628,0.030808,0.023772
14,58,9,6,0,0,1,,3,S,0,S,18,0.781291,0.023734,0.018543
14,59,7,6,0,0,1,,1,S,0,S,15,0.755703,0.03523,0.026624
14,60,6,8,0,0,1,,2,S,0,S,16,0.04069,0.750919,0.030555
14,61,2,9,0,0,1,,7,L,0,S,13,0.022736,0.75854,0.017246
14,62,8,7,0,0,1,,1,S,0,S,32,0.766874,0.038248,0.029331
14,63,9,1,0,0,1,,8,L,0,S,13,0.751252,0.029171,0.021915
14,64,5,8,0,0,1,,3,S,0,S,14,0.012556,0.779434,0.009787
14,65,6,7,0,0,0,,1,S,0,S,16,0.751645,0.040229,0.030238
14,66,3,6,0,0,1,,3,S,0,S,15,0.015998,0.781696,0.012506
14,67,4,3,0,0,1,,1,S,0,S,22,0.754509,0.045849,0.034594
14,68,8,3,0,0,1,,5,S,0,S,18,0.770077,0.02921,0.022494
14,69,4,9,0,0,1,,5,S,0,S,15,0.002041,0.799306,0.001631
14,70,1,8,0,0,1,,7,L,0,S,12,0.007541,0.76856,0.005796
14,71,1,9,0,0,1,,8,L,0,S,13,0,0.802753,0
14,72,4,7,0,0,1,,3,S,0,S,19,0.032359,0.770589,0.024935
15,1,1,3,0,0,1,,2,S,0,S,18,0.015822,0.792721,0.012543
15,2,6,3,0,0,1,,3,S,0,S,15,0.78698,0.01298,0.010215
15,3,7,9,0,0,1,,2,S,0,S,21,0.033714,0.770458,0.025976
15,4,3,9,0,0,1,,6,S,0,S,14,0.017285,0.77255,0.013354
15,5,7,2,0,0,1,,5,S,0,S,14,0.763232,0.023237,0.017736
15,6,6,1,0,0,1,,5,S,0,S,13,0.771754,0.012698,0.0098
15,7,1,7,0,0,1,,6,S,0,S,13,0.008224,0.779913,0.006414
15,8,8,9,0,0,1,,1,S,0,S,16,0.02006,0.779283,0.015632
15,9,9,5,0,0,1,,4,S,0,S,14,0.79624,0,0
15,10,2,3,0,0,1,,1,S,0,S,19,0.013901,0.793289,0.011027
15,11,8,1,0,0,1,,7,L,0,S,14,0.790484,0.003146,0.002486
15,12,3,1,0,0,1,,2,S,0,S,15,0.755473,0.032647,0.024664
15,13,9,3,0,0,1,,6,S,0,S,13,0.759028,0.024322,0.018461
15,14,4,5,0,0,1,,1,S,0,S,25,0.02606,0.781016,0.020353
15,15,3,5,0,0,1,,2,S,0,S,21,0.03761,0.764066,0.028736
15,16,8,5,0,0,1,,3,S,0,S,17,0.768401,0.030938,0.023773
15,17,5,9,0,0,1,,4,S,0,S,15,0.028613,0.764168,0.021865
15,18,9,2,0,0,1,,7,L,0,S,13,0.759686,0.020096,0.015266
15,19,4,9,0,0,1,,5,S,0,S,14,0.025701,0.762213,0.019589
15,20,9,8,0,0,1,,1,S,0,S,20,0.788427,0.015981,0.0126
15,21,1,9,0,0,1,,8,L,0,S,13,0.022276,0.761699,0.016968
15,22,9,6,0,0,1,,3,S,0,S,15,0.800215,0.001381,0.001105
15,23,3,7,0,0,1,,4,S,0,S,14,0,0.795743,0
15,24,6,4,0,0,1,,2,S,0,S,16,0.767293,0.028066,0.021535
15,25,6,8,0,0,1,,2,S,0,S,17,0.039673,0.755378,0.029968
15,26,2,9,0,0,1,,7,L,0,S,14,0,0.801993,0
15,27,5,6,0,0,1,,1,S,0,S,21,0.032774,0.77391,0.025364
15,28,1,4,0,0,1,,3,S,0,S,16,0.018931,0.779647,0.014759
15,29,8,4,0,0,1,,4,S,0,S,19,0.779655,0.023265,0.018138
15,30,7,4,0,0,1,,3,S,0,S,15,0.753362,0.035597,0.026817
15,31,8,6,0,0,1,,2,S,0,S,25,0.755691,0.049236,0.037207
15,32,6,9,0,0,1,,3,S,0,S,18,0.042356,0.756222,0.03203
15,33,3,2,0,0,1,,1,S,0,S,23,0.773864,0.027886,0.02158
15,34,6,7,0,0,1,,1,S,0,S,17,0.014319,0.789173,0.011301
15,35,4,7,0,0,1,,3,S,0,S,14,0.00619,0.787286,0.004874
15,36,5,1,0,0,1,,4,S,0,S,14,0.769896,0.01869,0.014389
15,37,2,4,0,0,1,,2,S,0,S,16,0.037598,0.752384,0.028288
15,38,6,5,0,0,1,,1,S,0,S,15,0.760091,0.032275,0.024532
15,39,2,1,0,0,1,,1,S,0,S,17,0.787448,0.012114,0.009539
15,40,2,5,0,0,1,,3,S,0,S,18,0.007558,0.797441,0.006027
15,41,8,7,0,0,0,,1,S,0,S,15,0.023151,0.771263,0.017855
15,42,1,5,0,0,1,,4,S,0,S,17,0.018259,0.785312,0.014339
15,43,1,8,0,0,1,,7,L,0,S,13,0.014826,0.769797,0.011413
15,44,8,2,0,0,1,,6,S,0,S,16,0.775381,0.020688,0.016041
15,45,7,6,0,0,1,,1,S,0,S,16,0.757732,0.038573,0.029228
15,46,5,4,0,0,1,,1,S,0,S,22,0.759392,0.041227,0.031308
15,47,4,6,0,0,1,,2,S,0,S,17,0.027048,0.774484,0.020949
15,48,7,8,0,0,1,,1,S,0,S,19,0.030364,0.770505,0.023396
15,49,4,8,0,0,1,,4,S,0,S,14,0.015159,0.774138,0.011736
15,50,9,4,0,0,1,,5,S,0,S,14,0.772852,0.015852,0.012251
15,51,1,6,0,0,1,,5,S,0,S,15,0.015671,0.784144,0.012289
15,52,2,7,0,0,1,,5,S,0,S,13,0.015009,0.768044,0.011528
15,53,5,8,0,0,1,,3,S,0,S,15,0.0138,0.781355,0.010783
15,54,5,2,0,0,1,,3,S,0,S,17,0.776898,0.021335,0.016575
15,55,9,1,0,0,1,,8,L,0,S,12,0.76067,0.013501,0.01027
15,56,6,2,0,0,1,,4,S,0,S,15,0.791808,0.005202,0.004119
15,57,4,3,0,0,1,,1,S,0,S,23,0.78234,0.026441,0.020686
15,58,3,8,0,0,1,,5,S,0,S,14,0.007612,0.783369,0.005963
15,59,4,2,0,0,1,,2,S,0,S,20,0.750794,0.045187,0.033926
15,60,2,8,0,0,1,,6,S,0,S,13,0.021998,0.757318,0.01666
15,61,3,4,0,0,1,,1,S,0,S,18,0.043921,0.750114,0.032946
15,62,2,6,0,0,1,,4,S,0,S,15,0.029255,0.763545,0.022338
15,63,7,5,0,0,1,,2,S,0,S,15,0.788666,0.009703,0.007653
15,64,5,3,0,0,1,,2,S,0,S,17,0.75615,0.04211,0.031841
15,65,5,7,0,0,1,,2,S,0,S,15,0.001907,0.798121,0.001522
15,66,7,1,0,0,1,,6,S,0,S,13,0.784973,0.002428,0.001906
15,67,7,3,0,0,1,,4,S,0,S,14,0.759749,0.029883,0.022704
15,68,3,6,0,0,1,,3,S,0,S,16,0.042465,0.751255,0.031902
15,69,8,3,0,0,1,,5,S,0,S,16,0.762902,0.034759,0.026518
15,70,1,2,0,0,1,,1,S,0,S,19,0.023807,0.778669,0.018538
15,71,4,1,0,0,1,,3,S,0,S,15,0.772929,0.019653,0.01519
15,72,9,7,0,0,1,,2,S,0,S,21,0.756477,0.043532,0.032931
16,1,6,7,0,0,1,,1,S,0,S,18,0.023351,0.775063,0.018098
16,2,1,7,0,0,1,,6,S,0,S,13,0,0.801501,0
16,3,5,1,0,0,1,,4,S,0,S,15,0.780871,0.014488,0.011314
16,4,6,2,0,0,1,,4,S,0,S,16,0.780142,0.012969,0.010118
16,5,3,1,0,0,1,,2,S,0,S,16,0.778185,0.017142,0.013339
16,6,5,6,0,0,1,,1,S,0,S,18,0.0206,0.781298,0.016095
16,7,8,5,0,0,1,,3,S,0,S,17,0.756708,0.038526,0.029153
16,8,7,1,0,0,1,,6,S,0,S,14,0.785034,0.005122,0.004021
16,9,1,8,0,0,1,,7,L,0,S,13,0,0.790083,0
16,10,6,8,0,0,1,,2,S,0,S,20,0.008143,0.795209,0.006475
16,11,1,3,0,0,1,,2,S,0,S,14,0.005153,0.787548,0.004058
16,12,7,4,0,0,1,,3,S,0,S,16,0.757112,0.032742,0.02479
16,13,9,1,0,0,1,,8,L,0,S,13,0.755653,0.024453,0.018478
16,14,9,7,0,0,0,,2,S,0,S,23,0.018773,0.788515,0.014803
16,15,4,3,0,0,1,,1,S,0,S,18,0.788088,0.017305,0.013638
16,16,9,8,0,0,1,,1,S,0,S,25,0.75355,0.045993,0.034658
16,17,6,1,0,0,1,,5,S,0,S,14,0.774037,0.013375,0.010353
16,18,7,5,0,0,1,,2,S,0,S,22,0.764428,0.035114,0.026842
16,19,3,5,0,0,1,,2,S,0,S,16,0.036179,0.754398,0.027293
16,20,9,5,0,0,1,,4,S,0,S,19,0.794467,0.01141,0.009065
16,21,1,6,0,0,1,,5,S,0,S,13,0.011515,0.771589,0.008885
16,22,6,3,0,0,1,,3,S,0,S,18,0.78971,0.012067,0.009529
16,23,7,3,0,0,1,,4,S,0,S,17,0.775391,0.02199,0.017051
16,24,9,2,0,0,1,,7,L,0,S,15,0.787494,0.006831,0.005379
16,25,8,4,0,0,1,,4,S,0,S,15,0.77856,0.015443,0.012023
16,26,3,8,0,0,1,,5,S,0,S,15,0.029238,0.758324,0.022172
16,27,7,9,0,0,1,,2,S,0,S,19,0.018999,0.780036,0.01482
16,28,5,4,0,0,1,,1,S,0,S,21,0.786383,0.019093,0.015014
16,29,8,9,0,0,0,,1,S,0,S,27,0.758483,0.041829,0.031726
16,30,4,6,0,0,1,,2,S,0,S,26,0.021122,0.787333,0.01663
16,31,7,2,0,0,1,,5,S,0,S,16,0.798985,0,0
16,32,1,5,0,0,1,,4,S,0,S,13,0.012215,0.771421,0.009423
16,33,4,5,0,0,1,,1,S,0,S,28,0.027451,0.7807,0.021431
16,34,3,9,0,0,1,,6,S,0,S,15,0.010471,0.781967,0.008188
16,35,8,2,0,0,1,,6,S,0,S,14,0.755089,0.028114,0.021229
16,36,7,6,0,0,1,,1,S,0,S,23,0.779151,0.022981,0.017906
16,37,6,4,0,0,1,,2,S,0,S,17,0.77933,0.017341,0.013515
16,38,1,2,0,0,1,,1,S,0,S,15,0.005183,0.788541,0.004087
16,39,5,8,0,0,1,,3,S,0,S,16,0.031708,0.761883,0.024158
16,40,9,6,0,0,1,,3,S,0,S,19,0.782895,0.01994,0.015611
16,41,7,8,0,0,1,,1,S,0,S,21,0.033779,0.764076,0.02581
16,42,8,7,0,0,1,,1,S,0,S,25,0.758964,0.043067,0.032686
16,43,1,4,0,0,1,,3,S,0,S,14,0.017014,0.770508,0.01311
16,44,4,8,0,0,1,,4,S,0,S,19,0.020272,0.784033,0.015894
16,45,4,2,0,0,1,,2,S,0,S,16,0.783181,0.014352,0.011241
16,46,1,9,0,0,1,,8,L,0,S,13,0,0.799611,0
16,47,8,3,0,0,1,,5,S,0,S,15,0.760369,0.030848,0.023456
16,48,2,6,0,0,1,,4,S,0,S,14,0.019914,0.76827,0.015299
16,49,2,9,0,0,1,,7,L,0,S,13,0.023961,0.755322,0.018099
16,50,4,1,0,0,1,,3,S,0,S,14,0.778296,0.01355,0.010546
16,51,4,7,0,0,1,,3,S,0,S,17,0.043099,0.752935,0.032451
16,52,2,4,0,0,1,,2,S,0,S,16,0.016687,0.780705,0.013028
16,53,8,1,0,0,1,,7,L,0,S,13,0.767952,0.015238,0.011702
16,54,5,2,0,0,1,,3,S,0,S,18,0.776156,0.022655,0.017584
16,55,3,4,0,0,1,,1,S,0,S,23,0.033079,0.766756,0.025364
16,56,2,7,0,0,1,,5,S,0,S,13,0.024125,0.757037,0.018263
16,57,9,4,0,0,1,,5,S,0,S,15,0.75498,0.033622,0.025384
16,58,8,6,0,0,1,,2,S,0,S,18,0.795892,0.008482,0.00675
16,59,2,5,0,0,1,,3,S,0,S,14,0.021075,0.767565,0.016176
16,60,4,9,0,0,1,,5,S,0,S,17,0.040325,0.754241,0.030415
16,61,3,2,0,0,1,,1,S,0,S,22,0.784422,0.016713,0.01311
16,62,6,5,0,0,1,,1,S,0,S,29,0.765084,0.035696,0.02731
16,63,5,3,0,0,1,,2,S,0,S,26,0.791816,0.017729,0.014038
16,64,6,9,0,0,1,,3,S,0,S,18,0.020487,0.776471,0.015907
16,65,3,6,0,0,1,,3,S,0,S,16,0.033449,0.757027,0.025321
16,66,2,8,0,0,1,,6,S,0,S,14,0,0.795024,0
16,67,5,9,0,0,1,,4,S,0,S,16,0.005943,0.794096,0.004719
16,68,2,3,0,0,1,,1,S,0,S,15,0.031754,0.759323,0.024112
16,69,5,7,0,0,1,,2,S,0,S,16,0.006789,0.795071,0.005397
16,70,9,3,0,0,1,,6,S,0,S,16,0.783287,0.015808,0.012382
16,71,3,7,0,0,1,,4,S,0,S,15,0.010887,0.783458,0.008529
16,72,2,1,0,0,1,,1,S,0,S,23,0.790895,0.016344,0.012927
17,1,9,6,0,0,1,,3,S,0,S,21,0.792929,0.016544,0.013118
17,2,1,3,0,0,1,,2,S,0,S,17,0.014648,0.786971,0.011527
17,3,6,5,0,0,1,,1,S,0,S,19,0.754008,0.048228,0.036364
17,4,4,1,0,0,1,,3,S,0,S,18,0.783602,0.018951,0.01485
17,5,4,2,0,0,1,,2,S,0,S,29,0.77753,0.030961,0.024073
17,6,6,4,0,0,1,,2,S,0,S,23,0.769206,0.036125,0.027788
17,7,7,1,0,0,1,,6,S,0,S,14,0.759146,0.027673,0.021008
17,8,7,6,0,0,1,,1,S,0,S,20,0.761624,0.040977,0.031209
17,9,8,6,0,0,1,,2,S,0,S,30,0.792759,0.018025,0.01429
17,10,2,6,0,0,1,,4,S,0,S,16,0.005557,0.798305,0.004436
17,11,7,9,0,0,1,,2,S,0,S,26,0.025475,0.78367,0.019964
17,12,1,4,0,0,1,,3,S,0,S,14,0.025734,0.761135,0.019587
17,13,8,2,0,0,1,,6,S,0,S,16,0.770284,0.027518,0.021196
17,14,8,5,0,0,1,,3,S,0,S,19,0.790025,0.017683,0.01397
17,15,9,5,0,0,1,,4,S,0,S,17,0.761579,0.037828,0.028809
17,16,7,4,0,0,1,,3,S,0,S,19,0.796617,0.010394,0.00828
17,17,2,5,0,0,1,,3,S,0,S,17,0.021467,0.782129,0.01679
17,18,5,1,0,0,1,,4,S,0,S,15,0.753525,0.036901,0.027806
17,19,2,9,0,0,1,,7,L,0,S,15,0.012481,0.785639,0.009806
17,20,6,1,0,0,1,,5,S,0,S,15,0.77973,0.016684,0.013009
17,21,7,2,0,0,1,,5,S,0,S,15,0.756917,0.035483,0.026858
17,22,3,4,0,0,1,,1,S,0,S,18,0.036936,0.760234,0.02808
17,23,6,9,0,0,1,,3,S,0,S,19,0.024492,0.782297,0.01916
17,24,3,9,0,0,1,,6,S,0,S,16,0.020707,0.7777,0.016104
17,25,4,5,0,0,1,,1,S,0,S,18,0.030635,0.772614,0.023669
17,26,8,7,0,0,1,,1,S,0,S,22,0.75552,0.045939,0.034708
17,27,5,9,0,0,1,,4,S,0,S,17,0.044283,0.753278,0.033357
17,28,1,7,0,0,1,,6,S,0,S,14,0.02033,0.769454,0.015643
17,29,7,8,0,0,0,,1,S,0,S,51,0.754305,0.049243,0.037145
17,30,5,2,0,0,1,,3,S,0,S,17,0.761447,0.038345,0.029198
17,31,7,3,0,0,1,,4,S,0,S,15,0.782099,0.014259,0.011152
17,32,3,6,0,0,1,,3,S,0,S,17,0.029962,0.769019,0.023041
17,33,8,3,0,0,1,,5,S,0,S,15,0.75164,0.037349,0.028073
17,34,5,3,0,0,1,,2,S,0,S,16,0.758696,0.036438,0.027645
17,35,4,7,0,0,1,,3,S,0,S,17,0.015197,0.788102,0.011977
17,36,2,7,0,0,1,,5,S,0,S,16,0.020337,0.778949,0.015841
17,37,1,9,0,0,1,,8,L,0,S,14,0,0.802554,0
17,38,8,4,0,0,1,,4,S,0,S,21,0.767442,0.034714,0.026641
17,39,5,6,0,0,1,,1,S,0,S,20,0.024435,0.783618,0.019148
17,40,2,1,0,0,1,,1,S,0,S,19,0.75248,0.044964,0.033835
17,41,5,4,0,0,0,,1,S,0,S,24,0.019266,0.790306,0.015226
17,42,1,2,0,0,1,,1,S,0,S,16,0.015766,0.784954,0.012375
17,43,5,7,0,0,1,,2,S,0,S,22,0.022415,0.787011,0.017641
17,44,4,3,0,0,1,,1,S,0,S,20,0.759167,0.041094,0.031197
17,45,6,7,0,0,0,,1,S,0,S,26,0.765852,0.040731,0.031194
17,46,9,8,0,0,0,,1,S,0,S,29,0.017878,0.792911,0.014176
17,47,9,4,0,0,1,,5,S,0,S,19,0.788135,0.017116,0.01349
17,48,9,7,0,0,1,,2,S,0,S,19,0.764422,0.037149,0.028398
17,49,5,8,0,0,1,,3,S,0,S,18,0.019159,0.786795,0.015074
17,50,9,3,0,0,1,,6,S,0,S,15,0.779362,0.016326,0.012724
17,51,1,5,0,0,1,,4,S,0,S,15,0.002302,0.799212,0.00184
17,52,8,9,0,0,1,,1,S,0,S,20,0.026764,0.778392,0.020833
17,53,3,5,0,0,1,,2,S,0,S,20,0.026698,0.779272,0.020805
17,54,3,2,0,0,1,,1,S,0,S,21,0.786769,0.020707,0.016292
17,55,3,7,0,0,1,,4,S,0,S,18,0.019098,0.784184,0.014977
17,56,4,9,0,0,1,,5,S,0,S,15,0.033024,0.759147,0.02507
17,57,4,8,0,0,1,,4,S,0,S,15,0.038665,0.751512,0.029057
17,58,1,8,0,0,1,,7,L,0,S,14,0,0.798493,0
17,59,8,1,0,0,1,,7,L,0,S,15,0.786062,0.010157,0.007984
17,60,2,4,0,0,1,,2,S,0,S,16,0.030292,0.764896,0.02317
17,61,2,3,0,0,0,,1,S,0,S,27,0.788994,0.019748,0.015581
17,62,7,5,0,0,1,,2,S,0,S,17,0.767534,0.033197,0.02548
17,63,6,8,0,0,1,,2,S,0,S,19,0.042901,0.758815,0.032554
17,64,1,6,0,0,1,,5,S,0,S,14,0.01215,0.780666,0.009485
17,65,9,2,0,0,1,,7,L,0,S,15,0.753569,0.038016,0.028648
17,66,6,3,0,0,1,,3,S,0,S,16,0.792847,0.00975,0.00773
17,67,3,1,0,0,1,,2,S,0,S,17,0.782503,0.017366,0.013589
17,68,6,2,0,0,1,,4,S,0,S,16,0.757703,0.039092,0.02962
17,69,2,8,0,0,1,,6,S,0,S,15,0.017169,0.779289,0.013379
17,70,4,6,0,0,1,,2,S,0,S,16,0.032647,0.763778,0.024935
17,71,9,1,0,0,1,,8,L,0,S,14,0.756843,0.029374,0.022232
17,72,3,8,0,0,1,,5,S,0,S,16,0.027562,0.768595,0.021184
18,1,3,7,0,0,1,,4,S,0,S,17,0.019031,0.779497,0.014835
18,2,1,9,0,0,1,,8,L,0,S,13,0.026545,0.753934,0.020013
18,3,5,3,0,0,1,,2,S,0,S,18,0.758449,0.039485,0.029947
18,4,2,7,0,0,1,,5,S,0,S,15,0.003956,0.790729,0.003128
18,5,2,9,0,0,1,,7,L,0,S,14,0,0.801637,0
18,6,6,2,0,0,1,,4,S,0,S,17,0.789171,0.013469,0.010629
18,7,1,4,0,0,1,,3,S,0,S,16,0.023483,0.774108,0.018178
18,8,1,6,0,0,1,,5,S,0,S,15,0.006205,0.791742,0.004913
18,9,4,7,0,0,1,,3,S,0,S,19,0.008428,0.795429,0.006703
18,10,9,4,0,0,1,,5,S,0,S,16,0.774623,0.024465,0.018951
18,11,8,6,0,0,1,,2,S,0,S,21,0.758975,0.039933,0.030308
18,12,2,1,0,0,1,,1,S,0,S,22,0.765148,0.033967,0.02599
18,13,6,9,0,0,1,,3,S,0,S,15,0.038942,0.750573,0.029229
18,14,7,4,0,0,1,,3,S,0,S,17,0.760676,0.035814,0.027243
18,15,8,2,0,0,1,,6,S,0,S,15,0.764976,0.025259,0.019322
18,16,9,3,0,0,1,,6,S,0,S,16,0.772381,0.024733,0.019104
18,17,3,8,0,0,1,,5,S,0,S,16,0.014559,0.787977,0.011472
18,18,1,3,0,0,1,,2,S,0,S,16,0.026603,0.76821,0.020437
18,19,3,1,0,0,1,,2,S,0,S,16,0.770916,0.023948,0.018462
18,20,2,8,0,0,1,,6,S,0,S,14,0.018111,0.772861,0.013998
18,21,9,2,0,0,1,,7,L,0,S,15,0.793713,0.005684,0.004512
18,22,5,9,0,0,1,,4,S,0,S,16,0.030405,0.766209,0.023297
18,23,9,8,0,0,1,,1,S,0,S,31,0.788044,0.023903,0.018837
18,24,3,2,0,0,1,,1,S,0,S,18,0.758678,0.039502,0.029969
18,25,6,3,0,0,1,,3,S,0,S,21,0.786229,0.019636,0.015438
18,26,2,3,0,0,1,,1,S,0,S,16,0.03606,0.755206,0.027233
18,27,7,2,0,0,1,,5,S,0,S,15,0.755765,0.033428,0.025264
18,28,6,7,0,0,1,,1,S,0,S,19,0.012361,0.791056,0.009778
18,29,4,5,0,0,1,,1,S,0,S,31,0.04943,0.754963,0.037318
18,30,9,1,0,0,1,,8,L,0,S,14,0.782702,0.008742,0.006842
18,31,2,5,0,0,1,,3,S,0,S,16,0.005045,0.798361,0.004028
18,32,4,9,0,0,1,,5,S,0,S,15,0.037504,0.751898,0.028199
18,33,4,3,0,0,1,,1,S,0,S,21,0.772442,0.030212,0.023337
18,34,7,5,0,0,1,,2,S,0,S,19,0.797187,0.011132,0.008874
18,35,3,6,0,0,1,,3,S,0,S,17,0.039394,0.757015,0.029822
18,36,6,5,0,0,1,,1,S,0,S,32,0.756992,0.04832,0.036578
18,37,4,2,0,0,1,,2,S,0,S,17,0.784476,0.016765,0.013152
18,38,7,9,0,0,1,,2,S,0,S,17,0.025416,0.773219,0.019652
18,39,9,5,0,0,1,,4,S,0,S,17,0.78712,0.018181,0.01431
18,40,1,5,0,0,1,,4,S,0,S,15,0.033825,0.758724,0.025664
18,41,8,1,0,0,1,,7,L,0,S,14,0.760241,0.02326,0.017683
18,42,7,3,0,0,1,,4,S,0,S,17,0.75874,0.035769,0.027139
18,43,4,8,0,0,1,,4,S,0,S,17,0.020239,0.782778,0.015842
18,44,5,8,0,0,1,,3,S,0,S,18,0.035879,0.766565,0.027504
18,45,3,4,0,0,1,,1,S,0,S,24,0.033221,0.773204,0.025687
18,46,1,8,0,0,1,,7,L,0,S,14,0.013507,0.779622,0.01053
18,47,7,1,0,0,1,,6,S,0,S,14,0.754223,0.028844,0.021755
18,48,4,1,0,0,1,,3,S,0,S,15,0.760217,0.02872,0.021834
18,49,6,8,0,0,1,,2,S,0,S,17,0.022676,0.78024,0.017693
18,50,8,9,0,0,1,,1,S,0,S,18,0.008708,0.794926,0.006922
18,51,3,5,0,0,1,,2,S,0,S,20,0.018113,0.791398,0.014335
18,52,7,6,0,0,1,,1,S,0,S,23,0.755588,0.044769,0.033827
18,53,1,2,0,0,1,,1,S,0,S,19,0.023076,0.779818,0.017995
18,54,2,6,0,0,1,,4,S,0,S,15,0.012057,0.783422,0.009445
18,55,6,1,0,0,1,,5,S,0,S,15,0.763419,0.026653,0.020348
18,56,9,7,0,0,1,,2,S,0,S,20,0.756641,0.041439,0.031355
18,57,1,7,0,0,1,,6,S,0,S,15,0,0.798484,0
18,58,5,6,0,0,1,,1,S,0,S,24,0.039968,0.76439,0.030551
18,59,5,1,0,0,1,,4,S,0,S,15,0.791184,0.005685,0.004498
18,60,9,6,0,0,1,,3,S,0,S,19,0.783323,0.022081,0.017296
18,61,7,8,0,0,1,,1,S,0,S,20,0.030747,0.773603,0.023786
18,62,6,4,0,0,1,,2,S,0,S,21,0.784672,0.022518,0.017669
18,63,8,4,0,0,1,,4,S,0,S,17,0.778887,0.020367,0.015863
18,64,4,6,0,0,1,,2,S,0,S,19,0.045682,0.752013,0.034353
18,65,3,9,0,0,1,,6,S,0,S,15,0.009706,0.788466,0.007652
18,66,2,4,0,0,1,,2,S,0,S,16,0.032779,0.761369,0.024957
18,67,8,5,0,0,1,,3,S,0,S,18,0.777436,0.02455,0.019086
18,68,8,7,0,0,1,,1,S,0,S,25,0.759472,0.037997,0.028858
18,69,5,2,0,0,1,,3,S,0,S,16,0.783492,0.016399,0.012848
18,70,8,3,0,0,1,,5,S,0,S,17,0.776679,0.020573,0.015979
18,71,5,4,0,0,1,,1,S,0,S,18,0.759641,0.040142,0.030494
18,72,5,7,0,0,1,,2,S,0,S,21,0.032812,0.768184,0.025206
19,1,1,8,0,0,1,,7,L,0,S,14,0.009435,0.782001,0.007378
19,2,4,6,0,0,1,,2,S,0,S,17,0.009452,0.79199,0.007486
19,3,8,5,0,0,1,,3,S,0,S,16,0.758801,0.033949,0.02576
19,4,3,9,0,0,1,,6,S,0,S,14,0.028425,0.76126,0.021638
19,5,6,3,0,0,1,,3,S,0,S,17,0.752436,0.043146,0.032465
19,6,7,2,0,0,1,,5,S,0,S,13,0.756498,0.025148,0.019024
19,7,2,5,0,0,1,,3,S,0,S,17,0.038381,0.756808,0.029047
19,8,9,5,0,0,1,,4,S,0,S,15,0.796863,8E-06,7E-06
19,9,5,8,0,0,1,,3,S,0,S,18,0.016107,0.787847,0.012689
19,10,4,2,0,0,1,,2,S,0,S,16,0.794625,0.007927,0.006299
19,11,5,9,0,0,1,,4,S,0,S,18,0.020731,0.784696,0.016267
19,12,8,6,0,0,1,,2,S,0,S,19,0.767781,0.030212,0.023196
19,13,4,5,0,0,1,,1,S,0,S,20,0.015493,0.7912,0.012258
19,14,4,1,0,0,1,,3,S,0,S,15,0.780647,0.01569,0.012248
19,15,7,5,0,0,1,,2,S,0,S,16,0.767745,0.027591,0.021183
19,16,2,3,0,0,1,,1,S,0,S,21,0.039932,0.763208,0.030476
19,17,9,6,0,0,1,,3,S,0,S,16,0.784116,0.010969,0.008601
19,18,4,3,0,0,1,,1,S,0,S,23,0.791507,0.018728,0.014823
19,19,2,7,0,0,1,,5,S,0,S,14,0.011928,0.778968,0.009292
19,20,8,2,0,0,1,,6,S,0,S,13,0.752472,0.027648,0.020805
19,21,2,1,0,0,1,,1,S,0,S,16,0.788242,0.012096,0.009534
19,22,1,3,0,0,1,,2,S,0,S,18,0.01706,0.786749,0.013422
19,23,6,1,0,0,1,,5,S,0,S,14,0.772981,0.016894,0.013059
19,24,3,6,0,0,1,,3,S,0,S,15,0.033636,0.754182,0.025368
19,25,1,2,0,0,0,,1,S,0,S,19,0.775715,0.026259,0.02037
19,26,4,8,0,0,1,,4,S,0,S,15,0.022927,0.771412,0.017686
19,27,3,1,0,0,1,,2,S,0,S,16,0.777512,0.020702,0.016096
19,28,5,3,0,0,1,,2,S,0,S,16,0.758053,0.036815,0.027907
19,29,3,2,0,0,1,,1,S,0,S,17,0.772466,0.027261,0.021058
19,30,4,7,0,0,1,,3,S,0,S,14,0.032988,0.752135,0.024812
19,31,6,8,0,0,1,,2,S,0,S,17,0.00817,0.795343,0.006498
19,32,7,4,0,0,1,,3,S,0,S,17,0.78866,0.015547,0.012262
19,33,1,5,0,0,1,,4,S,0,S,16,0.019578,0.776546,0.015203
19,34,1,6,0,0,1,,5,S,0,S,15,0.008455,0.785163,0.006639
19,35,7,9,0,0,1,,2,S,0,S,33,0.023208,0.787963,0.018287
19,36,6,7,0,0,1,,1,S,0,S,16,0.004286,0.796489,0.003413
19,37,5,7,0,0,1,,2,S,0,S,16,0.033694,0.75943,0.025588
19,38,7,8,0,0,1,,1,S,0,S,27,0.021503,0.786865,0.01692
19,39,6,2,0,0,1,,4,S,0,S,15,0.798734,0.000983,0.000785
19,40,5,1,0,0,1,,4,S,0,S,14,0.792901,0.001899,0.001506
19,41,3,7,0,0,1,,4,S,0,S,14,0.007408,0.785048,0.005816
19,42,7,3,0,0,1,,4,S,0,S,15,0.782768,0.014636,0.011457
19,43,9,8,0,0,1,,1,S,0,S,17,0.750928,0.041437,0.031116
19,44,2,6,0,0,1,,4,S,0,S,16,0.005596,0.793638,0.004441
19,45,3,5,0,0,1,,2,S,0,S,17,0.024564,0.774607,0.019027
19,46,1,9,0,0,1,,8,L,0,S,14,0.009925,0.78373,0.007778
19,47,4,9,0,0,1,,5,S,0,S,15,0.024235,0.772242,0.018715
19,48,9,2,0,0,1,,7,L,0,S,13,0.791038,0,0
19,49,3,8,0,0,1,,5,S,0,S,14,0.027581,0.759897,0.020958
19,50,7,1,0,0,1,,6,S,0,S,13,0.773815,0.011717,0.009067
19,51,9,3,0,0,1,,6,S,0,S,14,0.787544,0.005232,0.004121
19,52,6,4,0,0,0,,2,S,0,S,28,0.052022,0.750463,0.039041
19,53,3,4,0,0,1,,1,S,0,S,16,0.029932,0.7678,0.022982
19,54,5,2,0,0,1,,3,S,0,S,14,0.770901,0.019171,0.014779
19,55,2,4,0,0,1,,2,S,0,S,16,0.040716,0.753811,0.030692
19,56,6,5,0,0,1,,1,S,0,S,22,0.771122,0.031683,0.024431
19,57,1,7,0,0,1,,6,S,0,S,14,0,0.80306,0
19,58,6,9,0,0,1,,3,S,0,S,17,0.010765,0.794645,0.008554
19,59,8,4,0,0,1,,4,S,0,S,17,0.778001,0.023371,0.018183
19,60,5,6,0,0,1,,1,S,0,S,24,0.035903,0.764807,0.027459
19,61,8,9,0,0,1,,1,S,0,S,26,0.031272,0.776581,0.024286
19,62,1,4,0,0,1,,3,S,0,S,15,0.032958,0.758414,0.024996
19,63,9,4,0,0,1,,5,S,0,S,15,0.7836,0.012404,0.00972
19,64,8,1,0,0,1,,7,L,0,S,13,0.770178,0.013944,0.010739
19,65,7,6,0,0,1,,1,S,0,S,19,0.785874,0.016514,0.012978
19,66,8,7,0,0,0,,1,S,0,S,19,0.023323,0.778415,0.018155
19,67,2,8,0,0,1,,6,S,0,S,14,0.033075,0.752521,0.02489
19,68,5,4,0,0,1,,1,S,0,S,21,0.788098,0.020406,0.016082
19,69,9,1,0,0,1,,8,L,0,S,13,0.804182,0,0
19,70,9,7,0,0,1,,2,S,0,S,20,0.774836,0.025412,0.01969
19,71,8,3,0,0,1,,5,S,0,S,15,0.776546,0.018901,0.014677
19,72,2,9,0,0,1,,7,L,0,S,14,0.034021,0.753783,0.025644
20,1,3,9,0,0,1,,6,S,0,S,16,0.018989,0.77608,0.014737
20,2,4,8,0,0,1,,4,S,0,S,17,0.032055,0.766772,0.024579
20,3,4,9,0,0,1,,5,S,0,S,16,0.033425,0.761648,0.025458
20,4,8,5,0,0,1,,3,S,0,S,17,0.782414,0.018186,0.014229
20,5,7,5,0,0,1,,2,S,0,S,19,0.78533,0.01877,0.014741
20,6,2,8,0,0,1,,6,S,0,S,16,0.001259,0.798564,0.001006
20,7,1,9,0,0,1,,8,L,0,S,14,0.029873,0.756577,0.022601
20,8,7,4,0,0,1,,3,S,0,S,18,0.797447,0.010514,0.008385
20,9,5,2,0,0,1,,3,S,0,S,17,0.755354,0.035805,0.027046
20,10,3,6,0,0,1,,3,S,0,S,18,0.019815,0.781235,0.01548
20,11,8,4,0,0,1,,4,S,0,S,16,0.77102,0.027515,0.021214
20,12,4,1,0,0,1,,3,S,0,S,17,0.78441,0.017573,0.013784
20,13,3,8,0,0,1,,5,S,0,S,17,0.012578,0.787374,0.009904
20,14,7,2,0,0,1,,5,S,0,S,16,0.782049,0.016692,0.013054
20,15,2,3,0,0,1,,1,S,0,S,22,0.029332,0.772415,0.022657
20,16,9,7,0,0,1,,2,S,0,S,15,0.797614,0.002372,0.001892
20,17,7,1,0,0,1,,6,S,0,S,15,0.769197,0.023808,0.018313
20,18,6,7,0,0,1,,1,S,0,S,22,0.017282,0.791984,0.013687
20,19,2,6,0,0,1,,4,S,0,S,16,0.028054,0.765311,0.02147
20,20,1,2,0,0,1,,1,S,0,S,20,0.021978,0.782978,0.017209
20,21,3,1,0,0,1,,2,S,0,S,18,0.789817,0.01164,0.009193
20,22,1,7,0,0,1,,6,S,0,S,15,0.034829,0.75751,0.026383
20,23,4,2,0,0,1,,2,S,0,S,18,0.760574,0.038131,0.029002
20,24,5,8,0,0,1,,3,S,0,S,19,0.013056,0.788415,0.010293
20,25,1,8,0,0,1,,7,L,0,S,15,0.010503,0.787049,0.008266
20,26,9,1,0,0,1,,8,L,0,S,13,0.77355,0.01066,0.008246
20,27,8,6,0,0,1,,2,S,0,S,18,0.757822,0.040952,0.031034
20,28,9,8,0,0,1,,1,S,0,S,15,0.763926,0.027292,0.020849
20,29,4,5,0,0,1,,1,S,0,S,23,0.022009,0.785213,0.017282
20,30,3,4,0,0,1,,1,S,0,S,23,0.047337,0.752694,0.03563
20,31,8,9,0,0,1,,1,S,0,S,36,0.044386,0.758407,0.033662
20,32,3,7,0,0,1,,4,S,0,S,18,0.026654,0.773399,0.020614
20,33,2,7,0,0,1,,5,S,0,S,16,0.031862,0.761205,0.024254
20,34,9,3,0,0,1,,6,S,0,S,13,0.751145,0.0285,0.021408
20,35,7,9,0,0,1,,2,S,0,S,19,0.045116,0.752736,0.033961
20,36,5,6,0,0,1,,1,S,0,S,21,0.034634,0.764276,0.02647
20,37,8,1,0,0,1,,7,L,0,S,14,0.752905,0.032382,0.024381
20,38,2,4,0,0,1,,2,S,0,S,18,0.036126,0.761238,0.0275
20,39,5,3,0,0,1,,2,S,0,S,18,0.77617,0.022167,0.017205
20,40,7,8,0,0,1,,1,S,0,S,23,0.033275,0.771464,0.02567
20,41,9,5,0,0,1,,4,S,0,S,14,0.765325,0.021611,0.016539
20,42,9,6,0,0,1,,3,S,0,S,15,0.792824,0.005558,0.004407
20,43,6,5,0,0,1,,1,S,0,S,24,0.762521,0.039173,0.02987
20,44,9,4,0,0,1,,5,S,0,S,14,0.784141,0.009459,0.007417
20,45,5,4,0,0,1,,1,S,0,S,21,0.784832,0.019303,0.01515
20,46,1,5,0,0,1,,4,S,0,S,16,0.031546,0.762815,0.024064
20,47,7,3,0,0,1,,4,S,0,S,16,0.765746,0.030512,0.023364
20,48,9,2,0,0,1,,7,L,0,S,13,0.756865,0.023272,0.017614
20,49,8,3,0,0,1,,5,S,0,S,15,0.764434,0.028466,0.021761
20,50,7,6,0,0,1,,1,S,0,S,23,0.786269,0.022241,0.017488
20,51,5,1,0,0,1,,4,S,0,S,16,0.76089,0.029314,0.022305
20,52,2,1,0,0,1,,1,S,0,S,21,0.769601,0.029888,0.023002
20,53,6,4,0,0,1,,2,S,0,S,20,0.756688,0.044671,0.033802
20,54,6,9,0,0,1,,3,S,0,S,17,0.032769,0.763837,0.02503
20,55,6,8,0,0,1,,2,S,0,S,19,0.009684,0.797006,0.007718
20,56,5,7,0,0,1,,2,S,0,S,22,0.019067,0.785247,0.014973
20,57,2,9,0,0,1,,7,L,0,S,15,0.016584,0.774978,0.012852
20,58,4,3,0,0,1,,1,S,0,S,19,0.766722,0.03567,0.027349
20,59,1,4,0,0,1,,3,S,0,S,17,0.016282,0.788271,0.012835
20,60,4,6,0,0,1,,2,S,0,S,19,0.014312,0.793786,0.011361
20,61,1,3,0,0,1,,2,S,0,S,19,0.015504,0.791295,0.012269
20,62,6,1,0,0,1,,5,S,0,S,16,0.771515,0.024364,0.018797
20,63,5,9,0,0,1,,4,S,0,S,17,0.035806,0.75554,0.027053
20,64,6,2,0,0,1,,4,S,0,S,17,0.767518,0.029732,0.02282
20,65,1,6,0,0,1,,5,S,0,S,15,0.031906,0.760516,0.024265
20,66,8,2,0,0,1,,6,S,0,S,15,0.776019,0.018465,0.014329
20,67,2,5,0,0,1,,3,S,0,S,17,0.040281,0.750349,0.030225
20,68,8,7,0,0,1,,1,S,0,S,18,0.771068,0.031105,0.023984
20,69,4,7,0,0,1,,3,S,0,S,19,0.023725,0.782836,0.018573
20,70,3,5,0,0,1,,2,S,0,S,20,0.043718,0.751557,0.032857
20,71,6,3,0,0,1,,3,S,0,S,18,0.789138,0.01533,0.012098
20,72,3,2,0,0,1,,1,S,0,S,20,0.787785,0.015296,0.01205
21,1,8,5,0,0,1,,3,S,0,S,18,0.758231,0.037232,0.028231
21,2,4,5,0,0,1,,1,S,0,S,24,0.022831,0.779122,0.017788
21,3,4,8,0,0,1,,4,S,0,S,18,0.013505,0.78635,0.01062
21,4,8,2,0,0,1,,6,S,0,S,15,0.797277,0.001935,0.001543
21,5,1,6,0,0,1,,5,S,0,S,14,0.027244,0.760501,0.020719
21,6,9,7,0,0,1,,2,S,0,S,25,0.778889,0.031338,0.024409
21,7,7,4,0,0,1,,3,S,0,S,19,0.776696,0.02667,0.020714
21,8,9,8,0,0,1,,1,S,0,S,34,0.768221,0.036843,0.028303
21,9,1,4,0,0,1,,3,S,0,S,15,0.023567,0.768527,0.018112
21,10,9,1,0,0,1,,8,L,0,S,15,0.789474,0.008877,0.007009
21,11,3,5,0,0,1,,2,S,0,S,20,0.037223,0.76,0.028289
21,12,9,4,0,0,1,,5,S,0,S,17,0.769671,0.030278,0.023304
21,13,3,1,0,0,1,,2,S,0,S,17,0.758504,0.035297,0.026773
21,14,4,1,0,0,1,,3,S,0,S,17,0.792822,0.007405,0.005871
21,15,9,5,0,0,1,,4,S,0,S,18,0.770237,0.030063,0.023156
21,16,8,9,0,0,1,,1,S,0,S,18,0.011544,0.790804,0.009129
21,17,1,7,0,0,1,,6,S,0,S,14,0.012329,0.780566,0.009624
21,18,4,6,0,0,1,,2,S,0,S,20,0.013265,0.792766,0.010516
21,19,7,5,0,0,1,,2,S,0,S,21,0.779768,0.024318,0.018963
21,20,2,6,0,0,1,,4,S,0,S,16,0.036633,0.759334,0.027817
21,21,5,8,0,0,1,,3,S,0,S,20,0.036514,0.762452,0.02784
21,22,5,2,0,0,1,,3,S,0,S,15,0.768817,0.024322,0.018699
21,23,1,2,0,0,1,,1,S,0,S,19,0.022957,0.780096,0.017909
21,24,2,4,0,0,1,,2,S,0,S,18,0.040916,0.757132,0.030979
21,25,2,1,0,0,1,,1,S,0,S,20,0.79296,0.013823,0.010961
21,26,5,3,0,0,1,,2,S,0,S,17,0.795183,0.008289,0.006591
21,27,3,9,0,0,1,,6,S,0,S,15,0.018832,0.772387,0.014546
21,28,6,7,0,0,1,,1,S,0,S,27,0.047281,0.755261,0.035709
21,29,3,6,0,0,1,,3,S,0,S,18,0.030258,0.769943,0.023297
21,30,1,9,0,0,1,,8,L,0,S,13,0.016242,0.765039,0.012426
21,31,1,5,0,0,1,,4,S,0,S,15,0.010911,0.783121,0.008545
21,32,6,9,0,0,1,,3,S,0,S,17,0.033087,0.760448,0.025161
21,33,7,2,0,0,1,,5,S,0,S,15,0.771436,0.023227,0.017918
21,34,4,3,0,0,1,,1,S,0,S,18,0.75598,0.03896,0.029453
21,35,9,2,0,0,1,,7,L,0,S,14,0.7521,0.035101,0.026399
21,36,5,9,0,0,1,,4,S,0,S,16,0.037844,0.752824,0.02849
21,37,3,4,0,0,1,,1,S,0,S,23,0.033918,0.768141,0.026054
21,38,9,6,0,0,1,,3,S,0,S,20,0.782108,0.025877,0.020238
21,39,3,7,0,0,1,,4,S,0,S,17,0.021128,0.780128,0.016483
21,40,3,2,0,0,1,,1,S,0,S,17,0.787035,0.01414,0.011129
21,41,3,8,0,0,1,,5,S,0,S,17,0.016154,0.782201,0.012636
21,42,2,9,0,0,1,,7,L,0,S,14,0.026327,0.760108,0.020012
21,43,7,9,0,0,1,,2,S,0,S,16,0.036933,0.75528,0.027894
21,44,2,8,0,0,1,,6,S,0,S,16,0.005293,0.795826,0.004213
21,45,5,6,0,0,1,,1,S,0,S,39,0.049042,0.754132,0.036984
21,46,7,1,0,0,1,,6,S,0,S,15,0.753829,0.03567,0.026889
21,47,4,7,0,0,1,,3,S,0,S,18,0.020757,0.781515,0.016222
21,48,9,3,0,0,1,,6,S,0,S,16,0.797952,0.005888,0.004698
21,49,2,5,0,0,1,,3,S,0,S,17,0.042068,0.751567,0.031617
21,50,4,9,0,0,1,,5,S,0,S,16,0.000882,0.797818,0.000704
21,51,1,8,0,0,1,,7,L,0,S,14,0.011381,0.777967,0.008854
21,52,8,7,0,0,1,,1,S,0,S,26,0.769457,0.036667,0.028214
21,53,1,3,0,0,1,,2,S,0,S,16,0.035903,0.756667,0.027167
21,54,8,4,0,0,1,,4,S,0,S,17,0.759509,0.036029,0.027364
21,55,2,7,0,0,1,,5,S,0,S,16,0.007995,0.796415,0.006368
21,56,8,1,0,0,1,,7,L,0,S,15,0.78267,0.012144,0.009505
21,57,6,8,0,0,1,,2,S,0,S,24,0.037886,0.761697,0.028858
21,58,6,3,0,0,1,,3,S,0,S,16,0.776237,0.020109,0.015609
21,59,5,4,0,0,1,,1,S,0,S,19,0.772556,0.028915,0.022338
21,60,6,5,0,0,1,,1,S,0,S,19,0.774554,0.024751,0.019171
21,61,5,7,0,0,1,,2,S,0,S,21,0.022602,0.785249,0.017748
21,62,2,3,0,0,1,,1,S,0,S,27,0.042886,0.760961,0.032635
21,63,6,1,0,0,1,,5,S,0,S,15,0.771919,0.019753,0.015248
21,64,7,8,0,0,1,,1,S,0,S,20,0.035385,0.765229,0.027078
21,65,5,1,0,0,1,,4,S,0,S,15,0.751089,0.036822,0.027657
21,66,4,2,0,0,1,,2,S,0,S,16,0.767934,0.026108,0.020049
21,67,7,3,0,0,1,,4,S,0,S,17,0.798309,0.006783,0.005415
21,68,7,6,0,0,1,,1,S,0,S,41,0.789454,0.02174,0.017163
21,69,8,6,0,0,1,,2,S,0,S,20,0.765332,0.036936,0.028268
21,70,8,3,0,0,1,,5,S,0,S,16,0.790182,0.009919,0.007838
21,71,6,4,0,0,1,,2,S,0,S,18,0.78442,0.017219,0.013507
21,72,6,2,0,0,1,,4,S,0,S,15,0.787413,0.008915,0.00702
22,1,9,5,0,0,1,,4,S,0,S,16,0.775801,0.023111,0.01793
22,2,5,4,0,0,1,,1,S,0,S,20,0.751775,0.044991,0.033823
22,3,8,9,0,0,1,,1,S,0,S,17,0.026528,0.769442,0.020412
22,4,3,2,0,0,1,,1,S,0,S,18,0.776392,0.02435,0.018905
22,5,9,1,0,0,1,,8,L,0,S,13,0.752376,0.027295,0.020536
22,6,3,1,0,0,1,,2,S,0,S,17,0.787148,0.012665,0.009969
22,7,5,7,0,0,1,,2,S,0,S,16,0.036107,0.752742,0.027179
22,8,4,9,0,0,1,,5,S,0,S,14,0,0.799448,0
22,9,7,5,0,0,1,,2,S,0,S,20,0.780253,0.023259,0.018148
22,10,9,7,0,0,1,,2,S,0,S,24,0.78985,0.01782,0.014075
22,11,7,3,0,0,1,,4,S,0,S,17,0.765369,0.031892,0.024409
22,12,5,1,0,0,1,,4,S,0,S,15,0.76225,0.025806,0.01967
22,13,2,1,0,0,1,,1,S,0,S,19,0.754641,0.041474,0.031298
22,14,5,2,0,0,1,,3,S,0,S,16,0.780419,0.016017,0.0125
22,15,9,8,0,0,0,,1,S,0,S,19,0.028968,0.772207,0.022369
22,16,8,1,0,0,1,,7,L,0,S,14,0.795087,0,0
22,17,5,3,0,0,1,,2,S,0,S,20,0.788013,0.016859,0.013285
22,18,1,6,0,0,1,,5,S,0,S,16,0.018969,0.778312,0.014764
22,19,4,5,0,0,1,,1,S,0,S,17,0.035127,0.763111,0.026806
22,20,5,8,0,0,1,,3,S,0,S,15,0.019018,0.770926,0.014661
22,21,1,9,0,0,1,,8,L,0,S,13,0.008753,0.77543,0.006787
22,22,4,3,0,0,0,,1,S,0,S,20,0.029861,0.775611,0.02316
22,23,3,6,0,0,1,,3,S,0,S,19,0.023695,0.778407,0.018444
22,24,3,8,0,0,1,,5,S,0,S,14,0.016087,0.771622,0.012413
22,25,7,1,0,0,1,,6,S,0,S,15,0.801008,0,0
22,26,1,4,0,0,1,,3,S,0,S,16,0.039034,0.753541,0.029414
22,27,6,7,0,0,1,,1,S,0,S,29,0.048365,0.752716,0.036405
22,28,7,4,0,0,1,,3,S,0,S,18,0.795997,0.008618,0.00686
22,29,5,9,0,0,1,,4,S,0,S,15,0.000151,0.795636,0.00012
22,30,1,2,0,0,1,,1,S,0,S,25,0.036954,0.766238,0.028315
22,31,9,4,0,0,1,,5,S,0,S,15,0.768743,0.025668,0.019732
22,32,1,8,0,0,1,,7,L,0,S,13,0.019266,0.761169,0.014664
22,33,6,1,0,0,1,,5,S,0,S,14,0.797895,0,0
22,34,8,6,0,0,1,,2,S,0,S,16,0.776761,0.01975,0.015341
22,35,4,7,0,0,1,,3,S,0,S,15,0.006841,0.790328,0.005407
22,36,2,7,0,0,1,,5,S,0,S,14,0.018326,0.76928,0.014098
22,37,3,5,0,0,1,,2,S,0,S,18,0.019687,0.782829,0.015412
22,38,7,6,0,0,1,,1,S,0,S,19,0.793896,0.010729,0.008517
22,39,1,7,0,0,1,,6,S,0,S,14,0.008871,0.781488,0.006932
22,40,7,9,0,0,1,,2,S,0,S,15,0.028737,0.759688,0.021831
22,41,2,3,0,0,1,,1,S,0,S,17,0.03828,0.758413,0.029032
22,42,8,2,0,0,1,,6,S,0,S,14,0.778831,0.011821,0.009207
22,43,6,2,0,0,1,,4,S,0,S,14,0.781522,0.011576,0.009047
22,44,4,2,0,0,1,,2,S,0,S,18,0.751731,0.045384,0.034116
22,45,8,4,0,0,1,,4,S,0,S,15,0.751131,0.037434,0.028118
22,46,9,3,0,0,1,,6,S,0,S,15,0.777646,0.019322,0.015025
22,47,3,7,0,0,1,,4,S,0,S,15,0.015717,0.777134,0.012214
22,48,4,6,0,0,1,,2,S,0,S,18,0.032297,0.767952,0.024802
22,49,8,7,0,0,1,,1,S,0,S,37,0.766899,0.034866,0.026739
22,50,9,2,0,0,1,,7,L,0,S,14,0.790475,0.004581,0.003621
22,51,7,2,0,0,1,,5,S,0,S,15,0.77794,0.015927,0.01239
22,52,4,1,0,0,1,,3,S,0,S,17,0.772744,0.025514,0.019716
22,53,7,8,0,0,1,,1,S,0,S,16,0.017925,0.776933,0.013926
22,54,1,3,0,0,1,,2,S,0,S,17,0.011256,0.792476,0.00892
22,55,1,5,0,0,1,,4,S,0,S,15,0.037627,0.751427,0.028274
22,56,2,8,0,0,1,,6,S,0,S,13,0.026731,0.751382,0.020085
22,57,8,3,0,0,1,,5,S,0,S,15,0.760874,0.030505,0.02321
22,58,6,5,0,0,1,,1,S,0,S,16,0.755021,0.039496,0.029821
22,59,4,8,0,0,1,,4,S,0,S,14,0.00941,0.782051,0.007359
22,60,6,8,0,0,1,,2,S,0,S,18,0.031312,0.767798,0.024041
22,61,2,9,0,0,1,,7,L,0,S,13,0.015479,0.766639,0.011867
22,62,6,3,0,0,1,,3,S,0,S,15,0.763161,0.030707,0.023434
22,63,8,5,0,0,1,,3,S,0,S,16,0.753364,0.038714,0.029166
22,64,9,6,0,0,1,,3,S,0,S,16,0.796285,0.006296,0.005013
22,65,3,9,0,0,1,,6,S,0,S,14,0.002222,0.790037,0.001755
22,66,3,4,0,0,1,,1,S,0,S,21,0.01174,0.796236,0.009348
22,67,6,4,0,0,1,,2,S,0,S,15,0.753348,0.037724,0.028419
22,68,6,9,0,0,1,,3,S,0,S,17,0.020162,0.780176,0.01573
22,69,2,4,0,0,1,,2,S,0,S,17,0.027541,0.771239,0.02124
22,70,2,5,0,0,1,,3,S,0,S,16,0.018886,0.779431,0.014721
22,71,5,6,0,0,0,,1,S,0,S,24,0.783909,0.020491,0.016063
22,72,2,6,0,0,1,,4,S,0,S,16,0.039527,0.752139,0.02973
23,1,2,9,0,0,1,,7,L,0,S,14,0.002924,0.789623,0.002309
23,2,1,6,0,0,1,,5,S,0,S,14,0.027953,0.761026,0.021273
23,3,4,3,0,0,1,,1,S,0,S,49,0.769157,0.035289,0.027143
23,4,3,5,0,0,1,,2,S,0,S,23,0.015226,0.790606,0.012038
23,5,8,5,0,0,1,,3,S,0,S,16,0.789919,0.010696,0.008449
23,6,2,7,0,0,1,,5,S,0,S,14,0.011454,0.779778,0.008931
23,7,9,2,0,0,1,,7,L,0,S,14,0.766705,0.024662,0.018908
23,8,5,8,0,0,1,,3,S,0,S,20,0.045981,0.752883,0.034618
23,9,3,1,0,0,1,,2,S,0,S,16,0.774873,0.019226,0.014897
23,10,8,1,0,0,1,,7,L,0,S,14,0.799696,0,0
23,11,6,1,0,0,1,,5,S,0,S,14,0.766826,0.019916,0.015272
23,12,3,9,0,0,1,,6,S,0,S,15,0.030588,0.757035,0.023156
23,13,1,3,0,0,1,,2,S,0,S,17,0.006469,0.797641,0.00516
23,14,7,1,0,0,1,,6,S,0,S,14,0.802661,0,0
23,15,4,6,0,0,1,,2,S,0,S,16,0.038232,0.756456,0.028921
23,16,8,7,0,0,1,,1,S,0,S,23,0.775906,0.029647,0.023003
23,17,2,5,0,0,1,,3,S,0,S,16,0.020102,0.776838,0.015616
23,18,4,9,0,0,1,,5,S,0,S,16,0.027952,0.768035,0.021468
23,19,6,8,0,0,1,,2,S,0,S,19,0.015685,0.789199,0.012378
23,20,1,8,0,0,1,,7,L,0,S,14,0.023279,0.767293,0.017861
23,21,3,2,0,0,1,,1,S,0,S,25,0.758847,0.043,0.03263
23,22,6,3,0,0,1,,3,S,0,S,18,0.752909,0.041029,0.030891
23,23,8,4,0,0,1,,4,S,0,S,18,0.755788,0.042388,0.032037
23,24,3,7,0,0,1,,4,S,0,S,16,0.010402,0.788003,0.008197
23,25,6,5,0,0,1,,1,S,0,S,17,0.761119,0.034478,0.026242
23,26,4,1,0,0,1,,3,S,0,S,15,0.775746,0.018638,0.014459
23,27,9,4,0,0,1,,5,S,0,S,16,0.766332,0.03127,0.023963
23,28,4,8,0,0,1,,4,S,0,S,16,0.028907,0.768574,0.022217
23,29,8,6,0,0,1,,2,S,0,S,27,0.792237,0.017407,0.01379
23,30,1,2,0,0,1,,1,S,0,S,18,0.043761,0.756792,0.033118
23,31,9,5,0,0,1,,4,S,0,S,15,0.795228,0.00485,0.003857
23,32,1,5,0,0,1,,4,S,0,S,17,0.035443,0.762929,0.027041
23,33,6,2,0,0,1,,4,S,0,S,16,0.75869,0.035781,0.027146
23,34,5,3,0,0,1,,2,S,0,S,17,0.756494,0.037002,0.027992
23,35,2,3,0,0,1,,1,S,0,S,16,0.001336,0.798897,0.001068
23,36,6,9,0,0,1,,3,S,0,S,19,0.012697,0.791121,0.010045
23,37,7,9,0,0,1,,2,S,0,S,28,0.024729,0.783066,0.019364
23,38,1,9,0,0,1,,8,L,0,S,14,0.023058,0.765936,0.017661
23,39,1,7,0,0,1,,6,S,0,S,14,0.033779,0.753299,0.025446
23,40,9,3,0,0,1,,6,S,0,S,15,0.771641,0.021844,0.016855
23,41,7,8,0,0,1,,1,S,0,S,31,0.036644,0.770414,0.028231
23,42,7,5,0,0,1,,2,S,0,S,16,0.794352,0.008218,0.006528
23,43,3,8,0,0,1,,5,S,0,S,15,0.031067,0.758158,0.023554
23,44,7,3,0,0,1,,4,S,0,S,16,0.761474,0.032566,0.024798
23,45,6,4,0,0,1,,2,S,0,S,26,0.769967,0.034616,0.026653
23,46,9,7,0,0,1,,2,S,0,S,18,0.787702,0.017682,0.013928
23,47,8,2,0,0,1,,6,S,0,S,15,0.770953,0.024218,0.018671
23,48,5,7,0,0,1,,2,S,0,S,23,0.044292,0.756732,0.033517
23,49,2,1,0,0,1,,1,S,0,S,22,0.776352,0.026285,0.020406
23,50,5,1,0,0,1,,4,S,0,S,14,0.782099,0.008611,0.006734
23,51,9,8,0,0,1,,1,S,0,S,19,0.78917,0.018054,0.014248
23,52,2,6,0,0,1,,4,S,0,S,14,0.006747,0.786043,0.005303
23,53,9,6,0,0,1,,3,S,0,S,18,0.76424,0.036462,0.027866
23,54,4,2,0,0,1,,2,S,0,S,19,0.783361,0.023555,0.018452
23,55,5,9,0,0,1,,4,S,0,S,20,0.039477,0.75918,0.02997
23,56,6,7,0,0,1,,1,S,0,S,20,0.030818,0.770988,0.02376
23,57,3,4,0,0,1,,1,S,0,S,17,0.01874,0.780856,0.014633
23,58,7,2,0,0,1,,5,S,0,S,15,0.774928,0.02212,0.017142
23,59,8,9,0,0,1,,1,S,0,S,27,0.021958,0.784923,0.017235
23,60,2,8,0,0,1,,6,S,0,S,14,0.002934,0.791185,0.002321
23,61,7,6,0,0,1,,1,S,0,S,26,0.791918,0.018717,0.014822
23,62,8,3,0,0,1,,5,S,0,S,16,0.756421,0.035442,0.026809
23,63,3,6,0,0,1,,3,S,0,S,16,0.001947,0.798915,0.001555
23,64,1,4,0,0,1,,3,S,0,S,15,0.025268,0.770223,0.019462
23,65,2,4,0,0,1,,2,S,0,S,14,0.033493,0.751787,0.02518
23,66,4,7,0,0,1,,3,S,0,S,17,0.013861,0.79008,0.010951
23,67,7,4,0,0,1,,3,S,0,S,18,0.763334,0.037541,0.028657
23,68,4,5,0,0,0,,1,S,0,S,21,0.753756,0.04711,0.035509
23,69,9,1,0,0,1,,8,L,0,S,13,0.775773,0.010122,0.007853
23,70,5,4,0,0,1,,1,S,0,S,21,0.78498,0.021463,0.016848
23,71,5,6,0,0,1,,1,S,0,S,21,0.047818,0.751262,0.035923
23,72,5,2,0,0,1,,3,S,0,S,16,0.788947,0.012459,0.009829
24,1,9,5,0,0,1,,4,S,0,S,15,0.778721,0.019126,0.014893
24,2,6,9,0,0,1,,3,S,0,S,16,0.016017,0.783023,0.012542
24,3,1,8,0,0,1,,7,L,0,S,14,0.012902,0.781287,0.01008
24,4,3,7,0,0,1,,4,S,0,S,15,0.013302,0.778778,0.01036
24,5,8,3,0,0,1,,5,S,0,S,17,0.785032,0.016922,0.013284
24,6,5,4,0,0,1,,1,S,0,S,23,0.781048,0.025608,0.020001
24,7,1,6,0,0,1,,5,S,0,S,14,0.013064,0.78025,0.010193
24,8,6,2,0,0,1,,4,S,0,S,15,0.787284,0.012018,0.009462
24,9,7,9,0,0,1,,2,S,0,S,15,0.019228,0.773894,0.01488
24,10,3,1,0,0,1,,2,S,0,S,16,0.756418,0.034397,0.026019
24,11,4,8,0,0,1,,4,S,0,S,18,0.038556,0.762196,0.029387
24,12,3,6,0,0,1,,3,S,0,S,15,0.010866,0.785294,0.008533
24,13,8,5,0,0,1,,3,S,0,S,16,0.77011,0.027927,0.021507
24,14,9,3,0,0,1,,6,S,0,S,15,0.755039,0.036171,0.027311
24,15,4,7,0,0,1,,3,S,0,S,18,0.041667,0.753526,0.031397
24,16,4,3,0,0,1,,1,S,0,S,19,0.767437,0.033462,0.02568
24,17,7,4,0,0,1,,3,S,0,S,19,0.771582,0.030664,0.02366
24,18,5,6,0,0,1,,1,S,0,S,17,0.037611,0.759009,0.028547
24,19,8,7,0,0,0,,1,S,0,S,24,0.038154,0.763643,0.029136
24,20,5,9,0,0,1,,4,S,0,S,15,0,0.799955,0
24,21,9,7,0,0,1,,2,S,0,S,20,0.788697,0.017293,0.013639
24,22,3,5,0,0,1,,2,S,0,S,19,0.010227,0.795874,0.008139
24,23,8,4,0,0,1,,4,S,0,S,17,0.771956,0.02862,0.022094
24,24,5,3,0,0,1,,2,S,0,S,21,0.760836,0.039363,0.029949
24,25,5,8,0,0,1,,3,S,0,S,17,0.037823,0.759684,0.028734
24,26,6,1,0,0,1,,5,S,0,S,13,0.752017,0.027847,0.020942
24,27,9,6,0,0,1,,3,S,0,S,19,0.752884,0.047868,0.036039
24,28,1,3,0,0,1,,2,S,0,S,16,0.012106,0.788355,0.009544
24,29,2,9,0,0,1,,7,L,0,S,14,0.007968,0.785392,0.006258
24,30,8,1,0,0,1,,7,L,0,S,13,0.750083,0.029375,0.022034
24,31,3,2,0,0,1,,1,S,0,S,32,0.759171,0.043874,0.033308
24,32,8,6,0,0,0,,2,S,0,S,24,0.034296,0.772376,0.02649
24,33,4,6,0,0,1,,2,S,0,S,18,0.038039,0.761893,0.028982
24,34,4,2,0,0,1,,2,S,0,S,16,0.782804,0.018243,0.014281
24,35,5,7,0,0,1,,2,S,0,S,17,0.040919,0.751068,0.030733
24,36,2,1,0,0,1,,1,S,0,S,15,0.773691,0.020621,0.015955
24,37,6,5,0,0,1,,1,S,0,S,16,0.775035,0.023981,0.018586
24,38,3,8,0,0,1,,5,S,0,S,15,0.010694,0.786373,0.008409
24,39,4,1,0,0,1,,3,S,0,S,14,0.774643,0.015485,0.011996
24,40,1,4,0,0,1,,3,S,0,S,15,0.038412,0.752556,0.028907
24,41,2,6,0,0,1,,4,S,0,S,16,0.013924,0.788219,0.010975
24,42,5,2,0,0,1,,3,S,0,S,16,0.75099,0.042277,0.031749
24,43,9,4,0,0,1,,5,S,0,S,16,0.797831,0.006885,0.005493
24,44,2,5,0,0,1,,3,S,0,S,28,0.042828,0.763096,0.032682
24,45,7,5,0,0,1,,2,S,0,S,17,0.753348,0.042183,0.031778
24,46,6,8,0,0,1,,2,S,0,S,26,0.031286,0.777503,0.024325
24,47,6,7,0,0,1,,1,S,0,S,26,0.021475,0.784803,0.016854
24,48,5,1,0,0,1,,4,S,0,S,14,0.758015,0.027387,0.020759
24,49,7,1,0,0,1,,6,S,0,S,14,0.77946,0.011005,0.008578
24,50,1,2,0,0,1,,1,S,0,S,18,0.045077,0.754258,0.034
24,51,4,5,0,0,0,,1,S,0,S,18,0.781331,0.022689,0.017728
24,52,6,3,0,0,1,,3,S,0,S,17,0.790945,0.012158,0.009616
24,53,8,9,0,0,1,,1,S,0,S,16,0.012364,0.787762,0.00974
24,54,9,1,0,0,1,,8,L,0,S,13,0.777103,0.009751,0.007577
24,55,7,6,0,0,0,,1,S,0,S,19,0.027573,0.775536,0.021384
24,56,2,4,0,0,1,,2,S,0,S,20,0.036604,0.767376,0.028089
24,57,6,4,0,0,1,,2,S,0,S,17,0.778638,0.023256,0.018108
24,58,1,5,0,0,1,,4,S,0,S,16,0.030514,0.766761,0.023397
24,59,2,3,0,0,1,,1,S,0,S,21,0.047281,0.753042,0.035605
24,60,4,9,0,0,1,,5,S,0,S,15,0.011198,0.785278,0.008793
24,61,9,2,0,0,1,,7,L,0,S,14,0.773871,0.019521,0.015107
24,62,1,7,0,0,1,,6,S,0,S,14,0.015029,0.774443,0.011639
24,63,9,8,0,0,1,,1,S,0,S,19,0.758351,0.044305,0.033598
24,64,7,3,0,0,1,,4,S,0,S,19,0.796364,0.009477,0.007547
24,65,7,2,0,0,1,,5,S,0,S,16,0.793031,0.009327,0.007397
24,66,2,8,0,0,1,,6,S,0,S,16,0.013857,0.789184,0.010935
24,67,8,2,0,0,1,,6,S,0,S,15,0.784097,0.014585,0.011436
24,68,3,9,0,0,1,,6,S,0,S,13,0.023043,0.756066,0.017422
24,69,2,7,0,0,1,,5,S,0,S,16,0.016696,0.781237,0.013043
24,70,1,9,0,0,1,,8,L,0,S,13,0.002072,0.786349,0.001629
24,71,3,4,0,0,1,,1,S,0,S,17,0.029801,0.767479,0.022871
24,72,7,8,0,0,1,,1,S,0,S,19,0.028306,0.775571,0.021954
25,1,8,9,0,0,1,,1,S,0,S,17,0.043956,0.75486,0.033181
25,2,9,8,0,0,1,,1,S,0,S,29,0.77692,0.027532,0.02139
25,3,7,4,0,0,1,,3,S,0,S,16,0.763718,0.029206,0.022305
25,4,9,5,0,0,1,,4,S,0,S,15,0.776235,0.018791,0.014586
25,5,6,2,0,0,1,,4,S,0,S,16,0.774843,0.020541,0.015916
25,6,2,9,0,0,1,,7,L,0,S,14,0.032334,0.753335,0.024359
25,7,9,2,0,0,1,,7,L,0,S,14,0.781251,0.009008,0.007038
25,8,4,3,0,0,1,,1,S,0,S,18,0.750144,0.042584,0.031944
25,9,8,6,0,0,1,,2,S,0,S,22,0.76253,0.040649,0.030996
25,10,4,5,0,0,1,,1,S,0,S,20,0.044811,0.75324,0.033753
25,11,1,3,0,0,1,,2,S,0,S,17,0.020291,0.779201,0.015811
25,12,1,9,0,0,1,,8,L,0,S,13,0.027075,0.756117,0.020472
25,13,7,1,0,0,1,,6,S,0,S,14,0.781573,0.010272,0.008028
25,14,6,4,0,0,1,,2,S,0,S,19,0.771713,0.027483,0.021209
25,15,3,9,0,0,1,,6,S,0,S,15,0.038653,0.752463,0.029085
25,16,1,2,0,0,1,,1,S,0,S,17,0.009179,0.793088,0.00728
25,17,4,6,0,0,1,,2,S,0,S,20,0.017152,0.786187,0.013485
25,18,8,3,0,0,1,,5,S,0,S,16,0.77129,0.025327,0.019535
25,19,3,4,0,0,1,,1,S,0,S,20,0.041165,0.755914,0.031117
25,20,8,4,0,0,1,,4,S,0,S,20,0.764158,0.036453,0.027855
25,21,2,8,0,0,1,,6,S,0,S,14,0.001837,0.789469,0.00145
25,22,6,7,0,0,1,,1,S,0,S,18,0.019883,0.782452,0.015558
25,23,1,4,0,0,1,,3,S,0,S,15,0.014095,0.780029,0.010995
25,24,5,8,0,0,1,,3,S,0,S,15,0.023507,0.770535,0.018113
25,25,6,3,0,0,1,,3,S,0,S,16,0.785922,0.011995,0.009427
25,26,5,4,0,0,1,,1,S,0,S,24,0.773188,0.031514,0.024366
25,27,7,5,0,0,1,,2,S,0,S,16,0.761355,0.033897,0.025808
25,28,5,9,0,0,1,,4,S,0,S,17,0.01012,0.797885,0.008075
25,29,5,6,0,0,1,,1,S,0,S,27,0.026471,0.782154,0.020705
25,30,4,8,0,0,1,,4,S,0,S,15,0.00258,0.79334,0.002047
25,31,8,2,0,0,1,,6,S,0,S,16,0.758547,0.035162,0.026672
25,32,9,7,0,0,1,,2,S,0,S,19,0.795948,0.010219,0.008134
25,33,9,3,0,0,1,,6,S,0,S,14,0.786906,0.004786,0.003766
25,34,2,6,0,0,1,,4,S,0,S,16,0.035246,0.755415,0.026625
25,35,3,1,0,0,1,,2,S,0,S,17,0.783252,0.017464,0.013679
25,36,1,8,0,0,1,,7,L,0,S,13,0.005109,0.781593,0.003993
25,37,1,6,0,0,1,,5,S,0,S,15,0.002425,0.796786,0.001932
25,38,9,4,0,0,1,,5,S,0,S,15,0.775915,0.016354,0.012689
25,39,4,9,0,0,1,,5,S,0,S,16,0.01176,0.788872,0.009277
25,40,6,9,0,0,1,,3,S,0,S,18,0.040564,0.758894,0.030784
25,41,3,5,0,0,1,,2,S,0,S,19,0.047459,0.750644,0.035625
25,42,3,6,0,0,1,,3,S,0,S,19,0.025564,0.776442,0.019849
25,43,2,5,0,0,1,,3,S,0,S,17,0.007562,0.795153,0.006013
25,44,5,7,0,0,1,,2,S,0,S,16,0.034635,0.761619,0.026379
25,45,3,8,0,0,1,,5,S,0,S,14,0.031803,0.752294,0.023925
25,46,1,5,0,0,1,,4,S,0,S,15,0.006649,0.792974,0.005273
25,47,3,7,0,0,1,,4,S,0,S,15,0.030612,0.760416,0.023278
25,48,8,1,0,0,1,,7,L,0,S,15,0.772879,0.022142,0.017113
25,49,4,1,0,0,1,,3,S,0,S,17,0.793026,0.008284,0.006569
25,50,9,1,0,0,1,,8,L,0,S,13,0.759622,0.021546,0.016366
25,51,4,2,0,0,1,,2,S,0,S,19,0.770954,0.027293,0.021042
25,52,6,5,0,0,1,,1,S,0,S,19,0.756641,0.042465,0.032131
25,53,4,7,0,0,1,,3,S,0,S,16,0.003474,0.797041,0.002769
25,54,2,3,0,0,1,,1,S,0,S,24,0.03688,0.762163,0.028108
25,55,9,6,0,0,1,,3,S,0,S,15,0.764655,0.026491,0.020257
25,56,1,7,0,0,1,,6,S,0,S,13,0.023461,0.758673,0.0178
25,57,5,2,0,0,1,,3,S,0,S,17,0.771771,0.027349,0.021107
25,58,8,5,0,0,1,,3,S,0,S,21,0.783528,0.024765,0.019404
25,59,5,3,0,0,1,,2,S,0,S,17,0.787474,0.015065,0.011863
25,60,2,1,0,0,1,,1,S,0,S,21,0.79579,0.009989,0.007949
25,61,6,8,0,0,1,,2,S,0,S,16,0.023267,0.771826,0.017958
25,62,7,6,0,0,1,,1,S,0,S,17,0.793462,0.009453,0.007501
25,63,2,7,0,0,1,,5,S,0,S,14,0.027043,0.757916,0.020497
25,64,6,1,0,0,1,,5,S,0,S,15,0.782834,0.012602,0.009865
25,65,7,3,0,0,1,,4,S,0,S,15,0.79991,0,0
25,66,7,2,0,0,1,,5,S,0,S,15,0.792688,0.004276,0.00339
25,67,5,1,0,0,1,,4,S,0,S,16,0.800046,0.003985,0.003188
25,68,7,8,0,0,1,,1,S,0,S,19,0.01264,0.79208,0.010012
25,69,3,2,0,0,1,,1,S,0,S,20,0.791617,0.013264,0.0105
25,70,8,7,0,0,0,,1,S,0,S,17,0.027744,0.77289,0.021443
25,71,2,4,0,0,1,,2,S,0,S,17,0.020323,0.77535,0.015758
25,72,7,9,0,0,0,,2,S,0,S,24,0.759049,0.045299,0.034384
26,1,9,8,0,0,1,,1,S,0,S,16,0.767849,0.027415,0.021051
26,2,8,7,0,0,1,,1,S,0,S,28,0.758555,0.044243,0.033561
26,3,4,2,0,0,1,,2,S,0,S,15,0.754412,0.033072,0.02495
26,4,9,4,0,0,1,,5,S,0,S,13,0.768468,0.015018,0.011541
26,5,5,9,0,0,1,,4,S,0,S,14,0.015515,0.773033,0.011993
26,6,4,9,0,0,1,,5,S,0,S,14,0.025999,0.758745,0.019727
26,7,2,5,0,0,1,,3,S,0,S,19,0.011495,0.797228,0.009164
26,8,3,5,0,0,1,,2,S,0,S,17,0.016259,0.789916,0.012843
26,9,2,3,0,0,1,,1,S,0,S,23,0.038638,0.765884,0.029592
26,10,3,1,0,0,1,,2,S,0,S,15,0.770193,0.024105,0.018566
26,11,1,5,0,0,1,,4,S,0,S,15,0.002938,0.795061,0.002336
26,12,7,2,0,0,1,,5,S,0,S,14,0.752218,0.030005,0.02257
26,13,5,2,0,0,1,,3,S,0,S,16,0.784442,0.013065,0.010248
26,14,8,1,0,0,1,,7,L,0,S,12,0.769324,0.008006,0.006159
26,15,6,4,0,0,1,,2,S,0,S,14,0.76926,0.01986,0.015278
26,16,2,8,0,0,1,,6,S,0,S,14,0.027171,0.760129,0.020653
26,17,8,3,0,0,1,,5,S,0,S,14,0.791341,0.004267,0.003376
26,18,1,8,0,0,1,,7,L,0,S,13,0.00546,0.779083,0.004254
26,19,6,2,0,0,1,,4,S,0,S,13,0.773266,0.01087,0.008405
26,20,2,1,0,0,1,,1,S,0,S,15,0.798498,0.000382,0.000305
26,21,4,8,0,0,1,,4,S,0,S,15,0.02698,0.763915,0.02061
26,22,6,9,0,0,1,,3,S,0,S,20,0.028598,0.773095,0.022109
26,23,7,6,0,0,1,,1,S,0,S,20,0.772214,0.027515,0.021248
26,24,3,2,0,0,1,,1,S,0,S,18,0.767304,0.032952,0.025285
26,25,3,9,0,0,1,,6,S,0,S,13,0.018605,0.765341,0.014239
26,26,2,7,0,0,1,,5,S,0,S,14,0.000632,0.79442,0.000502
26,27,9,2,0,0,1,,7,L,0,S,12,0.75425,0.018208,0.013733
26,28,6,3,0,0,1,,3,S,0,S,14,0.768229,0.021772,0.016726
26,29,6,5,0,0,1,,1,S,0,S,15,0.790203,0.009054,0.007155
26,30,1,4,0,0,1,,3,S,0,S,16,0.00123,0.798538,0.000983
26,31,8,5,0,0,1,,3,S,0,S,14,0.766395,0.024006,0.018398
26,32,9,6,0,0,1,,3,S,0,S,14,0.784983,0.006761,0.005307
26,33,7,3,0,0,1,,4,S,0,S,17,0.788937,0.012538,0.009891
26,34,9,3,0,0,1,,6,S,0,S,13,0.768251,0.016229,0.012468
26,35,1,7,0,0,1,,6,S,0,S,13,0,0.800229,0
26,36,6,1,0,0,1,,5,S,0,S,12,0.756972,0.016871,0.012771
26,37,2,4,0,0,1,,2,S,0,S,25,0.032387,0.772626,0.025023
26,38,5,1,0,0,1,,4,S,0,S,14,0.770189,0.017911,0.013795
26,39,8,4,0,0,1,,4,S,0,S,14,0.791923,0.00274,0.00217
26,40,8,6,0,0,1,,2,S,0,S,15,0.796594,0.002165,0.001725
26,41,5,3,0,0,1,,2,S,0,S,22,0.778975,0.026912,0.020964
26,42,2,9,0,0,1,,7,L,0,S,14,0,0.795197,0
26,43,1,6,0,0,1,,5,S,0,S,14,0.028524,0.754137,0.021511
26,44,7,4,0,0,1,,3,S,0,S,17,0.793518,0.007682,0.006095
26,45,4,6,0,0,1,,2,S,0,S,22,0.025423,0.777596,0.019769
26,46,7,9,0,0,1,,2,S,0,S,15,0.029467,0.758046,0.022337
26,47,9,5,0,0,1,,4,S,0,S,14,0.801976,0,0
26,48,8,2,0,0,1,,6,S,0,S,13,0.788987,0,0
26,49,5,8,0,0,1,,3,S,0,S,15,0.012707,0.782896,0.009949
26,50,3,7,0,0,1,,4,S,0,S,13,0.019933,0.764719,0.015243
26,51,4,7,0,0,1,,3,S,0,S,14,0.028028,0.757296,0.021226
26,52,9,1,0,0,1,,8,L,0,S,12,0.786084,0,0
26,53,4,3,0,0,1,,1,S,0,S,20,0.789606,0.016654,0.01315
26,54,5,4,0,0,1,,1,S,0,S,21,0.764901,0.036277,0.027748
26,55,1,2,0,0,1,,1,S,0,S,20,0.020885,0.779225,0.016274
26,56,3,6,0,0,1,,3,S,0,S,16,0.030379,0.766143,0.023274
