ANN,trial,N1,N2,P1,P2,Succ.,,Ndist,Ndist,Pdist,Pdist,rt,a1,a2,x_acc
1,1,8,4,0,0,1,,4,S,0,S,16,0.752221,0.041915,0.03153
1,2,3,8,0,0,1,,5,S,0,S,13,0.020192,0.761654,0.015379
1,3,8,6,0,0,0,,2,S,0,S,17,0.019892,0.780874,0.015533
1,4,5,8,0,0,1,,3,S,0,S,15,0.032802,0.757705,0.024854
1,5,2,3,0,0,0,,1,S,0,S,41,0.781849,0.025256,0.019746
1,6,4,9,0,0,1,,5,S,0,S,15,0.02675,0.76448,0.02045
1,7,7,6,0,0,0,,1,S,0,S,16,0.005603,0.796761,0.004464
1,8,8,9,0,0,1,,1,S,0,S,25,0.01913,0.788653,0.015087
1,9,9,6,0,0,1,,3,S,0,S,20,0.755063,0.045664,0.034479
1,10,5,2,0,0,1,,3,S,0,S,15,0.775345,0.021401,0.016593
1,11,6,3,0,0,1,,3,S,0,S,19,0.794262,0.011747,0.00933
1,12,5,6,0,0,1,,1,S,0,S,15,0.02853,0.764755,0.021819
1,13,4,1,0,0,1,,3,S,0,S,15,0.773096,0.020393,0.015766
1,14,2,8,0,0,1,,6,S,0,S,14,0.019493,0.769432,0.014999
1,15,3,2,0,0,1,,1,S,0,S,26,0.750161,0.052531,0.039407
1,16,7,9,0,0,1,,2,S,0,S,18,0.045729,0.750333,0.034312
1,17,9,4,0,0,1,,5,S,0,S,14,0.775628,0.017893,0.013878
1,18,8,3,0,0,1,,5,S,0,S,16,0.792595,0.007421,0.005882
1,19,3,1,0,0,1,,2,S,0,S,17,0.791846,0.011777,0.009325
1,20,6,8,0,0,1,,2,S,0,S,15,0.016693,0.778011,0.012987
1,21,9,5,0,0,1,,4,S,0,S,14,0.770597,0.019165,0.014768
1,22,9,7,0,0,1,,2,S,0,S,15,0.75103,0.038228,0.028711
1,23,9,3,0,0,1,,6,S,0,S,14,0.792589,0.002244,0.001779
1,24,9,8,0,0,1,,1,S,0,S,20,0.769171,0.033102,0.025461
1,25,5,3,0,0,1,,2,S,0,S,17,0.752621,0.0422,0.031761
1,26,5,9,0,0,1,,4,S,0,S,18,0.014832,0.79038,0.011723
1,27,8,1,0,0,1,,7,L,0,S,13,0.767651,0.016216,0.012448
1,28,6,4,0,0,1,,2,S,0,S,22,0.772222,0.034659,0.026764
1,29,4,7,0,0,1,,3,S,0,S,16,0.016566,0.780307,0.012926
1,30,1,2,0,0,1,,1,S,0,S,23,0.026852,0.782331,0.021007
1,31,1,7,0,0,1,,6,S,0,S,14,0.023824,0.764584,0.018216
1,32,6,2,0,0,1,,4,S,0,S,15,0.751827,0.039355,0.029588
1,33,2,5,0,0,1,,3,S,0,S,20,0.032829,0.768946,0.025244
1,34,4,6,0,0,1,,2,S,0,S,14,0.012146,0.778891,0.00946
1,35,7,2,0,0,1,,5,S,0,S,15,0.78711,0.011469,0.009027
1,36,5,1,0,0,1,,4,S,0,S,14,0.790486,0.004735,0.003743
1,37,7,5,0,0,1,,2,S,0,S,18,0.750635,0.044646,0.033512
1,38,6,9,0,0,1,,3,S,0,S,17,0.018484,0.783263,0.014478
1,39,1,3,0,0,1,,2,S,0,S,17,0.010442,0.793053,0.008281
1,40,3,5,0,0,1,,2,S,0,S,16,0.029968,0.764539,0.022911
1,41,1,8,0,0,1,,7,L,0,S,13,0.012485,0.772674,0.009647
1,42,6,5,0,0,1,,1,S,0,S,22,0.774218,0.029883,0.023136
1,43,1,5,0,0,1,,4,S,0,S,16,0.009719,0.791274,0.00769
1,44,9,1,0,0,1,,8,L,0,S,12,0.763372,0.013911,0.01062
1,45,8,5,0,0,1,,3,S,0,S,17,0.795606,0.00709,0.005641
1,46,8,2,0,0,1,,6,S,0,S,14,0.77055,0.020105,0.015492
1,47,5,4,0,0,1,,1,S,0,S,19,0.755795,0.045845,0.034649
1,48,8,7,0,0,1,,1,S,0,S,22,0.771337,0.031323,0.02416
1,49,2,6,0,0,1,,4,S,0,S,14,0.016547,0.77472,0.012819
1,50,7,4,0,0,1,,3,S,0,S,18,0.755241,0.044095,0.033302
1,51,1,9,0,0,1,,8,L,0,S,14,0.008228,0.785722,0.006465
1,52,6,1,0,0,1,,5,S,0,S,14,0.776063,0.015535,0.012056
1,53,2,7,0,0,1,,5,S,0,S,16,0.025759,0.770242,0.01984
1,54,3,9,0,0,1,,6,S,0,S,14,0.018618,0.771377,0.014361
1,55,2,1,0,0,1,,1,S,0,S,15,0.786001,0.011598,0.009116
1,56,5,7,0,0,1,,2,S,0,S,19,0.046935,0.750518,0.035226
1,57,6,7,0,0,1,,1,S,0,S,18,0.030744,0.768887,0.023639
1,58,4,8,0,0,1,,4,S,0,S,14,0.015001,0.773723,0.011606
1,59,2,9,0,0,1,,7,L,0,S,15,0.034072,0.756691,0.025782
1,60,3,6,0,0,1,,3,S,0,S,13,0.017981,0.76598,0.013773
1,61,2,4,0,0,1,,2,S,0,S,20,0.021318,0.787212,0.016782
1,62,4,2,0,0,1,,2,S,0,S,18,0.796147,0.010012,0.007971
1,63,7,8,0,0,1,,1,S,0,S,16,0.010341,0.789231,0.008161
1,64,3,7,0,0,1,,4,S,0,S,15,0,0.799502,0
1,65,9,2,0,0,1,,7,L,0,S,13,0.786141,0.004258,0.003348
1,66,4,3,0,0,0,,1,S,0,S,24,0.041043,0.759212,0.03116
1,67,4,5,0,0,1,,1,S,0,S,19,0.037484,0.760067,0.02849
1,68,7,1,0,0,1,,6,S,0,S,14,0.797496,0,0
1,69,1,6,0,0,1,,5,S,0,S,13,0.010398,0.776797,0.008077
1,70,3,4,0,0,1,,1,S,0,S,16,0.024876,0.77469,0.019271
1,71,7,3,0,0,1,,4,S,0,S,17,0.778458,0.021074,0.016405
1,72,1,4,0,0,1,,3,S,0,S,15,0.041648,0.750231,0.031246
2,1,7,8,0,0,0,,1,S,0,S,18,0.752743,0.045969,0.034603
2,2,2,6,0,0,1,,4,S,0,S,14,0.019386,0.770751,0.014942
2,3,9,4,0,0,1,,5,S,0,S,14,0.776089,0.017175,0.01333
2,4,3,5,0,0,1,,2,S,0,S,19,0.027359,0.778735,0.021306
2,5,9,2,0,0,1,,7,L,0,S,15,0.789713,0.010025,0.007917
2,6,3,6,0,0,1,,3,S,0,S,16,0.034594,0.759524,0.026275
2,7,2,1,0,0,1,,1,S,0,S,21,0.793512,0.017619,0.013981
2,8,7,1,0,0,1,,6,S,0,S,13,0.788045,0.002184,0.001721
2,9,6,7,0,0,1,,1,S,0,S,19,0.010634,0.791522,0.008417
2,10,8,9,0,0,1,,1,S,0,S,17,0.034261,0.76065,0.026061
2,11,8,7,0,0,1,,1,S,0,S,29,0.756453,0.042956,0.032494
2,12,2,8,0,0,1,,6,S,0,S,13,0.031799,0.75113,0.023885
2,13,8,3,0,0,1,,5,S,0,S,14,0.758144,0.028511,0.021616
2,14,4,7,0,0,1,,3,S,0,S,18,0.013731,0.786917,0.010805
2,15,8,2,0,0,1,,6,S,0,S,16,0.791583,0.008721,0.006903
2,16,1,2,0,0,1,,1,S,0,S,15,0.036519,0.754773,0.027564
2,17,4,6,0,0,1,,2,S,0,S,18,0.016563,0.784512,0.012994
2,18,2,7,0,0,1,,5,S,0,S,14,0.018771,0.770497,0.014463
2,19,3,8,0,0,1,,5,S,0,S,15,0.025291,0.771267,0.019506
2,20,6,8,0,0,1,,2,S,0,S,17,0.007482,0.797025,0.005963
2,21,7,5,0,0,1,,2,S,0,S,15,0.775419,0.02071,0.016059
2,22,6,1,0,0,1,,5,S,0,S,15,0.800746,0,0
2,23,5,8,0,0,1,,3,S,0,S,16,0.00958,0.795418,0.00762
2,24,9,8,0,0,1,,1,S,0,S,33,0.760933,0.047141,0.035871
2,25,9,5,0,0,1,,4,S,0,S,16,0.769358,0.030539,0.023495
2,26,1,4,0,0,1,,3,S,0,S,17,0.013768,0.790979,0.01089
2,27,3,1,0,0,1,,2,S,0,S,15,0.75814,0.035204,0.026689
2,28,4,9,0,0,1,,5,S,0,S,15,0.025999,0.764144,0.019867
2,29,1,6,0,0,1,,5,S,0,S,14,0,0.800691,0
2,30,8,4,0,0,1,,4,S,0,S,15,0.790235,0.007422,0.005865
2,31,1,8,0,0,1,,7,L,0,S,13,0.012388,0.776468,0.009619
2,32,4,5,0,0,1,,1,S,0,S,25,0.014705,0.795384,0.011696
2,33,9,6,0,0,1,,3,S,0,S,19,0.773398,0.030017,0.023215
2,34,5,3,0,0,1,,2,S,0,S,16,0.778605,0.02149,0.016732
2,35,7,2,0,0,1,,5,S,0,S,14,0.773976,0.016499,0.01277
2,36,8,6,0,0,1,,2,S,0,S,27,0.777994,0.026594,0.02069
2,37,7,4,0,0,1,,3,S,0,S,13,0.750349,0.029788,0.022351
2,38,7,9,0,0,0,,2,S,0,S,24,0.779983,0.02538,0.019796
2,39,3,9,0,0,1,,6,S,0,S,15,0,0.801402,0
2,40,1,9,0,0,1,,8,L,0,S,13,0,0.789887,0
2,41,9,3,0,0,1,,6,S,0,S,14,0.791872,0.005042,0.003993
2,42,6,4,0,0,1,,2,S,0,S,16,0.775975,0.020464,0.015879
2,43,2,9,0,0,1,,7,L,0,S,13,0.016548,0.767924,0.012707
2,44,7,6,0,0,1,,1,S,0,S,17,0.791641,0.010478,0.008294
2,45,6,2,0,0,1,,4,S,0,S,18,0.792855,0.010386,0.008235
2,46,9,1,0,0,1,,8,L,0,S,13,0.767089,0.019927,0.015286
2,47,8,1,0,0,1,,7,L,0,S,14,0.792619,0.002949,0.002338
2,48,1,5,0,0,1,,4,S,0,S,14,0.024798,0.766651,0.019011
2,49,6,9,0,0,1,,3,S,0,S,16,0.004184,0.795044,0.003326
2,50,7,3,0,0,1,,4,S,0,S,13,0.763496,0.019919,0.015208
2,51,3,4,0,0,0,,1,S,0,S,18,0.79156,0.014653,0.011599
2,52,5,1,0,0,1,,4,S,0,S,15,0.783706,0.015559,0.012194
2,53,1,7,0,0,1,,6,S,0,S,14,0,0.800208,0
2,54,3,7,0,0,1,,4,S,0,S,16,0.032848,0.76061,0.024984
2,55,5,4,0,0,1,,1,S,0,S,17,0.791724,0.013222,0.010468
2,56,6,5,0,0,1,,1,S,0,S,25,0.752945,0.048169,0.036269
2,57,4,3,0,0,1,,1,S,0,S,16,0.787073,0.01239,0.009752
2,58,5,6,0,0,1,,1,S,0,S,17,0.029698,0.769081,0.02284
2,59,1,3,0,0,1,,2,S,0,S,18,0.014044,0.792816,0.011134
2,60,2,4,0,0,1,,2,S,0,S,19,0.031929,0.77202,0.02465
2,61,5,7,0,0,1,,2,S,0,S,17,0.027282,0.770985,0.021034
2,62,6,3,0,0,1,,3,S,0,S,15,0.754273,0.034509,0.026029
2,63,5,2,0,0,1,,3,S,0,S,19,0.774195,0.029652,0.022956
2,64,8,5,0,0,1,,3,S,0,S,18,0.784508,0.019667,0.015429
2,65,4,1,0,0,1,,3,S,0,S,15,0.78857,0.009427,0.007434
2,66,3,2,0,0,1,,1,S,0,S,22,0.791867,0.017291,0.013692
2,67,5,9,0,0,1,,4,S,0,S,15,0.01474,0.781704,0.011522
2,68,2,5,0,0,1,,3,S,0,S,15,0.020002,0.778071,0.015563
2,69,4,8,0,0,1,,4,S,0,S,16,0.024259,0.773732,0.01877
2,70,9,7,0,0,1,,2,S,0,S,19,0.761556,0.038467,0.029294
2,71,4,2,0,0,1,,2,S,0,S,18,0.755116,0.040821,0.030824
2,72,2,3,0,0,1,,1,S,0,S,22,0.019535,0.790356,0.01544
3,1,4,2,0,0,1,,2,S,0,S,21,0.77666,0.029513,0.022922
3,2,9,5,0,0,1,,4,S,0,S,15,0.752758,0.03799,0.028598
3,3,1,5,0,0,1,,4,S,0,S,14,0.028832,0.759672,0.021903
3,4,3,1,0,0,1,,2,S,0,S,16,0.765753,0.029993,0.022968
3,5,6,9,0,0,1,,3,S,0,S,15,0.035791,0.757939,0.027127
3,6,9,7,0,0,1,,2,S,0,S,17,0.768703,0.027941,0.021478
3,7,2,6,0,0,1,,4,S,0,S,15,0.037425,0.752954,0.028179
3,8,4,8,0,0,1,,4,S,0,S,15,0.025221,0.768202,0.019375
3,9,8,7,0,0,1,,1,S,0,S,18,0.764673,0.031498,0.024086
3,10,8,3,0,0,1,,5,S,0,S,14,0.799793,0,0
3,11,7,9,0,0,1,,2,S,0,S,18,0.017375,0.787988,0.013691
3,12,6,4,0,0,1,,2,S,0,S,22,0.76184,0.043192,0.032905
3,13,2,3,0,0,1,,1,S,0,S,25,0.044105,0.757731,0.03342
3,14,3,4,0,0,1,,1,S,0,S,16,0.013303,0.788804,0.010494
3,15,2,8,0,0,1,,6,S,0,S,15,0.027859,0.763461,0.02127
3,16,7,8,0,0,0,,1,S,0,S,19,0.761385,0.038683,0.029453
3,17,3,7,0,0,1,,4,S,0,S,14,0.014313,0.775757,0.011103
3,18,2,7,0,0,1,,5,S,0,S,14,0.025368,0.759166,0.019258
3,19,7,6,0,0,1,,1,S,0,S,18,0.760844,0.039369,0.029954
3,20,4,9,0,0,1,,5,S,0,S,14,0,0.801282,0
3,21,3,2,0,0,1,,1,S,0,S,24,0.762036,0.043298,0.032995
3,22,1,2,0,0,1,,1,S,0,S,23,0.03238,0.774592,0.025081
3,23,6,2,0,0,1,,4,S,0,S,15,0.771238,0.025445,0.019624
3,24,1,7,0,0,1,,6,S,0,S,14,0.003422,0.789373,0.002701
3,25,7,1,0,0,1,,6,S,0,S,13,0.77473,0.010501,0.008136
3,26,8,1,0,0,1,,7,L,0,S,12,0.750369,0.021331,0.016006
3,27,6,8,0,0,1,,2,S,0,S,20,0.049,0.752022,0.036849
3,28,6,1,0,0,1,,5,S,0,S,14,0.793546,0.002488,0.001974
3,29,7,4,0,0,1,,3,S,0,S,17,0.781521,0.020415,0.015955
3,30,3,9,0,0,1,,6,S,0,S,13,0.025529,0.758002,0.019351
3,31,4,5,0,0,1,,1,S,0,S,15,0.018621,0.777648,0.014481
3,32,9,2,0,0,1,,7,L,0,S,13,0.779584,0.008544,0.006661
3,33,8,4,0,0,1,,4,S,0,S,15,0.780776,0.014901,0.011634
3,34,1,4,0,0,1,,3,S,0,S,15,0.029488,0.763769,0.022522
3,35,4,1,0,0,1,,3,S,0,S,16,0.784794,0.014346,0.011259
3,36,1,9,0,0,1,,8,L,0,S,13,0.016565,0.769246,0.012743
3,37,1,6,0,0,1,,5,S,0,S,15,0.00502,0.796123,0.003997
3,38,8,9,0,0,0,,1,S,0,S,23,0.766273,0.03743,0.028682
3,39,9,4,0,0,1,,5,S,0,S,14,0.750889,0.03521,0.026439
3,40,8,6,0,0,1,,2,S,0,S,16,0.799767,0.003622,0.002897
3,41,3,8,0,0,1,,5,S,0,S,15,0.012745,0.785093,0.010006
3,42,7,5,0,0,1,,2,S,0,S,20,0.780077,0.025608,0.019976
3,43,5,9,0,0,1,,4,S,0,S,16,0.008206,0.792688,0.006505
3,44,1,8,0,0,1,,7,L,0,S,14,0.03412,0.751828,0.025653
3,45,3,6,0,0,1,,3,S,0,S,15,0.021018,0.776272,0.016316
3,46,4,3,0,0,0,,1,S,0,S,24,0.046723,0.755697,0.035308
3,47,2,5,0,0,1,,3,S,0,S,15,0.021147,0.773086,0.016348
3,48,6,7,0,0,1,,1,S,0,S,17,0.020139,0.78068,0.015722
3,49,7,3,0,0,1,,4,S,0,S,15,0.798761,0.001601,0.001279
3,50,2,1,0,0,1,,1,S,0,S,16,0.784369,0.013625,0.010687
3,51,3,5,0,0,1,,2,S,0,S,15,0.006781,0.793656,0.005382
3,52,2,4,0,0,1,,2,S,0,S,16,0.034273,0.759826,0.026041
3,53,6,3,0,0,1,,3,S,0,S,16,0.779378,0.02136,0.016647
3,54,9,1,0,0,1,,8,L,0,S,12,0.760639,0.014685,0.01117
3,55,4,6,0,0,1,,2,S,0,S,15,0.034622,0.757927,0.026241
3,56,4,7,0,0,1,,3,S,0,S,14,0.023366,0.763089,0.01783
3,57,5,1,0,0,1,,4,S,0,S,14,0.789821,0.002351,0.001857
3,58,5,7,0,0,1,,2,S,0,S,17,0.03321,0.759563,0.025225
3,59,8,2,0,0,1,,6,S,0,S,13,0.766505,0.017458,0.013382
3,60,5,8,0,0,1,,3,S,0,S,22,0.012315,0.794764,0.009788
3,61,7,2,0,0,1,,5,S,0,S,14,0.775074,0.016906,0.013104
3,62,5,6,0,0,1,,1,S,0,S,24,0.044116,0.757965,0.033438
3,63,9,6,0,0,1,,3,S,0,S,15,0.776295,0.020329,0.015781
3,64,2,9,0,0,1,,7,L,0,S,14,0,0.797919,0
3,65,8,5,0,0,1,,3,S,0,S,16,0.772583,0.024364,0.018823
3,66,5,2,0,0,1,,3,S,0,S,15,0.768814,0.024045,0.018486
3,67,6,5,0,0,0,,1,S,0,S,20,0.017731,0.792201,0.014046
3,68,9,3,0,0,1,,6,S,0,S,13,0.760992,0.022037,0.01677
3,69,9,8,0,0,1,,1,S,0,S,15,0.759297,0.032148,0.02441
3,70,5,3,0,0,1,,2,S,0,S,16,0.777872,0.019163,0.014907
3,71,5,4,0,0,1,,1,S,0,S,22,0.794887,0.012887,0.010244
3,72,1,3,0,0,1,,2,S,0,S,19,0.021634,0.783771,0.016956
4,1,4,1,0,0,1,,3,S,0,S,15,0.8008,0,0
4,2,7,8,0,0,1,,1,S,0,S,26,0.020046,0.792121,0.015879
4,3,1,2,0,0,1,,1,S,0,S,17,0.032331,0.765064,0.024735
4,4,9,7,0,0,1,,2,S,0,S,24,0.750216,0.050493,0.037881
4,5,2,7,0,0,1,,5,S,0,S,14,0,0.802248,0
4,6,4,9,0,0,1,,5,S,0,S,15,0.039708,0.751866,0.029855
4,7,9,2,0,0,1,,7,L,0,S,15,0.793267,0.006826,0.005415
4,8,3,8,0,0,1,,5,S,0,S,15,0.036074,0.75123,0.0271
4,9,7,5,0,0,1,,2,S,0,S,23,0.777749,0.031582,0.024563
4,10,8,5,0,0,1,,3,S,0,S,18,0.757986,0.040515,0.03071
4,11,7,9,0,0,1,,2,S,0,S,21,0.040178,0.767161,0.030823
4,12,6,7,0,0,1,,1,S,0,S,20,0.047063,0.75173,0.035379
4,13,7,2,0,0,1,,5,S,0,S,15,0.754533,0.038381,0.02896
4,14,2,5,0,0,1,,3,S,0,S,14,0.013903,0.777737,0.010813
4,15,5,1,0,0,1,,4,S,0,S,14,0.790985,0.003265,0.002582
4,16,8,4,0,0,1,,4,S,0,S,17,0.796607,0.008028,0.006396
4,17,9,5,0,0,1,,4,S,0,S,18,0.761621,0.038944,0.029661
4,18,5,3,0,0,1,,2,S,0,S,17,0.754322,0.041661,0.031426
4,19,3,4,0,0,1,,1,S,0,S,17,0.032422,0.763051,0.02474
4,20,3,1,0,0,1,,2,S,0,S,15,0.773343,0.017971,0.013898
4,21,6,5,0,0,1,,1,S,0,S,22,0.75746,0.045687,0.034606
4,22,7,1,0,0,1,,6,S,0,S,13,0.770588,0.015526,0.011964
4,23,3,6,0,0,1,,3,S,0,S,18,0.042019,0.752463,0.031618
4,24,3,2,0,0,0,,1,S,0,S,30,0.042017,0.759047,0.031893
4,25,8,3,0,0,1,,5,S,0,S,15,0.782828,0.013409,0.010497
4,26,5,7,0,0,1,,2,S,0,S,17,0.023642,0.775983,0.018346
4,27,1,4,0,0,1,,3,S,0,S,15,0.020333,0.773893,0.015736
4,28,1,7,0,0,1,,6,S,0,S,14,0.005375,0.786676,0.004228
4,29,3,9,0,0,1,,6,S,0,S,15,0.02175,0.77168,0.016784
4,30,9,1,0,0,1,,8,L,0,S,13,0.787669,0.001403,0.001105
4,31,9,8,0,0,1,,1,S,0,S,20,0.786122,0.021073,0.016566
4,32,1,5,0,0,1,,4,S,0,S,14,0.028575,0.75844,0.021673
4,33,8,9,0,0,0,,1,S,0,S,22,0.789915,0.01959,0.015475
4,34,5,6,0,0,0,,1,S,0,S,21,0.782125,0.024447,0.019121
4,35,1,8,0,0,1,,7,L,0,S,14,0.01798,0.77157,0.013873
4,36,9,3,0,0,1,,6,S,0,S,15,0.785634,0.012371,0.009719
4,37,2,6,0,0,1,,4,S,0,S,15,0.019401,0.774849,0.015033
4,38,5,8,0,0,1,,3,S,0,S,18,0.031827,0.769226,0.024482
4,39,5,9,0,0,1,,4,S,0,S,17,0.036938,0.762606,0.028169
4,40,8,6,0,0,1,,2,S,0,S,16,0.782209,0.016905,0.013223
4,41,2,1,0,0,1,,1,S,0,S,18,0.769419,0.029354,0.022586
4,42,8,7,0,0,1,,1,S,0,S,25,0.792027,0.015827,0.012535
4,43,6,9,0,0,1,,3,S,0,S,22,0.025763,0.783674,0.02019
4,44,2,8,0,0,1,,6,S,0,S,14,0.004655,0.789095,0.003673
4,45,4,3,0,0,1,,1,S,0,S,23,0.786054,0.021832,0.017161
4,46,8,1,0,0,1,,7,L,0,S,13,0.785449,0.002077,0.001632
4,47,7,3,0,0,1,,4,S,0,S,16,0.794991,0.009198,0.007313
4,48,2,3,0,0,1,,1,S,0,S,16,0.025757,0.770233,0.019839
4,49,7,6,0,0,1,,1,S,0,S,17,0.772289,0.029577,0.022842
4,50,9,6,0,0,1,,3,S,0,S,16,0.785287,0.015683,0.012316
4,51,7,4,0,0,1,,3,S,0,S,18,0.763817,0.038436,0.029358
4,52,3,5,0,0,1,,2,S,0,S,16,0.017407,0.779702,0.013572
4,53,4,8,0,0,1,,4,S,0,S,16,0.020132,0.77885,0.01568
4,54,9,4,0,0,1,,5,S,0,S,16,0.750799,0.043116,0.032372
4,55,4,2,0,0,1,,2,S,0,S,21,0.758661,0.04333,0.032873
4,56,5,4,0,0,1,,1,S,0,S,30,0.758423,0.04585,0.034774
4,57,1,3,0,0,1,,2,S,0,S,17,0.021942,0.777654,0.017063
4,58,8,2,0,0,1,,6,S,0,S,15,0.790507,0.007846,0.006203
4,59,6,8,0,0,1,,2,S,0,S,28,0.040324,0.765086,0.030852
4,60,2,4,0,0,1,,2,S,0,S,15,0.002044,0.79756,0.00163
4,61,3,7,0,0,1,,4,S,0,S,15,0.016267,0.775477,0.012615
4,62,2,9,0,0,1,,7,L,0,S,14,0,0.801633,0
4,63,1,6,0,0,1,,5,S,0,S,16,0.005008,0.796629,0.003989
4,64,5,2,0,0,1,,3,S,0,S,17,0.770913,0.029073,0.022413
4,65,4,5,0,0,1,,1,S,0,S,16,0.041763,0.751959,0.031404
4,66,4,7,0,0,1,,3,S,0,S,15,0.032701,0.757536,0.024772
4,67,6,3,0,0,1,,3,S,0,S,16,0.794645,0.007968,0.006332
4,68,4,6,0,0,1,,2,S,0,S,20,0.036025,0.766506,0.027614
4,69,6,2,0,0,1,,4,S,0,S,15,0.754237,0.037083,0.027969
4,70,6,4,0,0,1,,2,S,0,S,18,0.767477,0.033889,0.026009
4,71,1,9,0,0,1,,8,L,0,S,14,0.008654,0.785483,0.006797
4,72,6,1,0,0,1,,5,S,0,S,13,0.769158,0.015284,0.011756
5,1,3,4,0,0,1,,1,S,0,S,18,0.033843,0.762837,0.025817
5,2,1,9,0,0,1,,8,L,0,S,13,0.026394,0.753149,0.019879
5,3,1,2,0,0,1,,1,S,0,S,19,0.01962,0.781635,0.015336
5,4,8,2,0,0,1,,6,S,0,S,14,0.755268,0.026991,0.020386
5,5,5,2,0,0,1,,3,S,0,S,19,0.774461,0.024879,0.019268
5,6,9,2,0,0,1,,7,L,0,S,14,0.777415,0.011751,0.009135
5,7,3,9,0,0,1,,6,S,0,S,15,0,0.797514,0
5,8,6,8,0,0,1,,2,S,0,S,16,0.041662,0.751511,0.031309
5,9,9,8,0,0,1,,1,S,0,S,25,0.787263,0.019463,0.015323
5,10,2,3,0,0,1,,1,S,0,S,14,0.028194,0.758856,0.021395
5,11,8,3,0,0,1,,5,S,0,S,15,0.784503,0.011558,0.009067
5,12,5,1,0,0,1,,4,S,0,S,14,0.783828,0.007022,0.005504
5,13,7,3,0,0,1,,4,S,0,S,15,0.791449,0.007647,0.006052
5,14,8,4,0,0,1,,4,S,0,S,16,0.764191,0.028482,0.021766
5,15,7,5,0,0,1,,2,S,0,S,17,0.779013,0.021982,0.017125
5,16,9,3,0,0,1,,6,S,0,S,14,0.758478,0.029522,0.022392
5,17,3,8,0,0,1,,5,S,0,S,15,0.001502,0.795136,0.001195
5,18,9,7,0,0,1,,2,S,0,S,15,0.765631,0.026858,0.020564
5,19,6,9,0,0,1,,3,S,0,S,16,0.038691,0.755695,0.029239
5,20,7,4,0,0,1,,3,S,0,S,16,0.773492,0.022832,0.01766
5,21,7,2,0,0,1,,5,S,0,S,14,0.761604,0.023659,0.018019
5,22,6,3,0,0,1,,3,S,0,S,17,0.793265,0.013388,0.010621
5,23,1,6,0,0,1,,5,S,0,S,16,0.036203,0.758626,0.027465
5,24,2,8,0,0,1,,6,S,0,S,13,0,0.801714,0
5,25,2,5,0,0,1,,3,S,0,S,13,0.021297,0.760588,0.016198
5,26,3,1,0,0,1,,2,S,0,S,14,0.773373,0.014298,0.011057
5,27,2,1,0,0,1,,1,S,0,S,21,0.793363,0.011539,0.009155
5,28,4,9,0,0,1,,5,S,0,S,15,0.006322,0.788825,0.004987
5,29,3,2,0,0,1,,1,S,0,S,20,0.767402,0.030485,0.023395
5,30,2,4,0,0,1,,2,S,0,S,14,0,0.79444,0
5,31,6,7,0,0,0,,1,S,0,S,19,0.7708,0.033089,0.025505
5,32,3,6,0,0,1,,3,S,0,S,23,0.017411,0.790409,0.013761
5,33,1,3,0,0,1,,2,S,0,S,17,0.018421,0.78422,0.014446
5,34,2,7,0,0,1,,5,S,0,S,14,0.004278,0.788635,0.003373
5,35,8,1,0,0,1,,7,L,0,S,13,0.805058,0,0
5,36,2,6,0,0,1,,4,S,0,S,14,0.019947,0.769463,0.015348
5,37,1,8,0,0,1,,7,L,0,S,13,0.027473,0.751379,0.020643
5,38,9,5,0,0,1,,4,S,0,S,16,0.766193,0.030039,0.023016
5,39,4,3,0,0,1,,1,S,0,S,25,0.773624,0.031114,0.024071
5,40,5,8,0,0,1,,3,S,0,S,15,0.009422,0.785921,0.007405
5,41,8,7,0,0,1,,1,S,0,S,16,0.781805,0.015363,0.012011
5,42,1,4,0,0,1,,3,S,0,S,15,0.030425,0.760039,0.023125
5,43,6,5,0,0,1,,1,S,0,S,33,0.791221,0.021154,0.016738
5,44,4,5,0,0,1,,1,S,0,S,17,0.031804,0.764528,0.024315
5,45,8,5,0,0,1,,3,S,0,S,17,0.767641,0.029293,0.022487
5,46,8,6,0,0,1,,2,S,0,S,15,0.77052,0.022318,0.017197
5,47,5,3,0,0,1,,2,S,0,S,24,0.794792,0.015171,0.012058
5,48,1,5,0,0,1,,4,S,0,S,15,0.006695,0.792132,0.005303
5,49,6,2,0,0,1,,4,S,0,S,16,0.78833,0.011629,0.009168
5,50,4,1,0,0,1,,3,S,0,S,14,0.778789,0.009814,0.007643
5,51,7,1,0,0,1,,6,S,0,S,12,0.753492,0.01887,0.014218
5,52,9,4,0,0,1,,5,S,0,S,15,0.750916,0.037624,0.028253
5,53,1,7,0,0,1,,6,S,0,S,16,0.004047,0.798256,0.003231
5,54,8,9,0,0,1,,1,S,0,S,22,0.039241,0.759311,0.029796
5,55,9,1,0,0,1,,8,L,0,S,12,0.761901,0.012813,0.009762
5,56,3,5,0,0,1,,2,S,0,S,17,0.017548,0.783118,0.013742
5,57,2,9,0,0,1,,7,L,0,S,13,0,0.803047,0
5,58,7,9,0,0,1,,2,S,0,S,23,0.025771,0.778939,0.020074
5,59,7,8,0,0,1,,1,S,0,S,23,0.045715,0.753536,0.034448
5,60,5,7,0,0,1,,2,S,0,S,20,0.027507,0.775547,0.021333
5,61,3,7,0,0,1,,4,S,0,S,19,0.024502,0.777066,0.01904
5,62,4,2,0,0,1,,2,S,0,S,19,0.757181,0.037233,0.028192
5,63,9,6,0,0,1,,3,S,0,S,15,0.798013,0.002588,0.002065
5,64,5,4,0,0,0,,1,S,0,S,19,0.027747,0.773209,0.021454
5,65,5,6,0,0,1,,1,S,0,S,29,0.027563,0.78011,0.021502
5,66,4,7,0,0,1,,3,S,0,S,20,0.016772,0.787371,0.013206
5,67,4,6,0,0,1,,2,S,0,S,26,0.025324,0.780869,0.019775
5,68,7,6,0,0,1,,1,S,0,S,15,0.777905,0.018114,0.014091
5,69,6,1,0,0,1,,5,S,0,S,13,0.77805,0.008788,0.006838
5,70,6,4,0,0,1,,2,S,0,S,20,0.764114,0.038698,0.02957
5,71,4,8,0,0,1,,4,S,0,S,15,0.00799,0.786326,0.006283
5,72,5,9,0,0,1,,4,S,0,S,15,0.007728,0.78845,0.006093
6,1,8,6,0,0,1,,2,S,0,S,25,0.778541,0.024846,0.019343
6,2,7,3,0,0,1,,4,S,0,S,17,0.796788,0.00588,0.004686
6,3,6,1,0,0,1,,5,S,0,S,14,0.757764,0.027971,0.021196
6,4,1,6,0,0,1,,5,S,0,S,15,0,0.800284,0
6,5,7,1,0,0,1,,6,S,0,S,14,0.799928,0,0
6,6,4,9,0,0,1,,5,S,0,S,17,0.018345,0.786116,0.014421
6,7,4,2,0,0,1,,2,S,0,S,18,0.78538,0.020335,0.01597
6,8,2,4,0,0,1,,2,S,0,S,19,0.038568,0.761956,0.029387
6,9,8,1,0,0,1,,7,L,0,S,14,0.796645,0,0
6,10,5,1,0,0,1,,4,S,0,S,14,0.772782,0.015721,0.012149
6,11,1,7,0,0,1,,6,S,0,S,15,0.006067,0.793546,0.004814
6,12,7,8,0,0,1,,1,S,0,S,20,0.013059,0.791928,0.010342
6,13,6,9,0,0,1,,3,S,0,S,18,0.011476,0.795989,0.009135
6,14,6,3,0,0,1,,3,S,0,S,20,0.777599,0.024812,0.019294
6,15,9,7,0,0,1,,2,S,0,S,20,0.784665,0.020401,0.016008
6,16,6,5,0,0,1,,1,S,0,S,24,0.786771,0.02072,0.016302
6,17,1,3,0,0,1,,2,S,0,S,16,0.039145,0.752987,0.029475
6,18,7,9,0,0,1,,2,S,0,S,27,0.021657,0.788991,0.017088
6,19,2,3,0,0,1,,1,S,0,S,21,0.040972,0.757564,0.031039
6,20,6,8,0,0,1,,2,S,0,S,16,0.037628,0.753313,0.028346
6,21,8,7,0,0,1,,1,S,0,S,22,0.794222,0.01334,0.010595
6,22,2,7,0,0,1,,5,S,0,S,16,0.041125,0.750648,0.03087
6,23,3,8,0,0,1,,5,S,0,S,15,0.012181,0.780146,0.009503
6,24,6,4,0,0,1,,2,S,0,S,22,0.772328,0.032999,0.025486
6,25,1,8,0,0,1,,7,L,0,S,14,0.006808,0.785714,0.005349
6,26,6,7,0,0,1,,1,S,0,S,19,0.046927,0.750659,0.035226
6,27,1,5,0,0,1,,4,S,0,S,16,0.011189,0.790291,0.008843
6,28,9,8,0,0,0,,1,S,0,S,21,0.023947,0.778613,0.018645
6,29,4,7,0,0,1,,3,S,0,S,18,0.035131,0.764806,0.026868
6,30,8,5,0,0,1,,3,S,0,S,18,0.796524,0.008017,0.006385
6,31,8,9,0,0,1,,1,S,0,S,25,0.043761,0.759879,0.033253
6,32,1,2,0,0,1,,1,S,0,S,18,0.036075,0.766062,0.027636
6,33,7,6,0,0,1,,1,S,0,S,24,0.776509,0.027287,0.021188
6,34,4,8,0,0,1,,4,S,0,S,16,0.01721,0.780285,0.013429
6,35,5,9,0,0,1,,4,S,0,S,19,0.027296,0.776677,0.021201
6,36,4,5,0,0,1,,1,S,0,S,26,0.02178,0.7868,0.017136
6,37,3,9,0,0,1,,6,S,0,S,15,0.03604,0.753753,0.027166
6,38,5,2,0,0,1,,3,S,0,S,16,0.761629,0.033653,0.025631
6,39,1,9,0,0,1,,8,L,0,S,14,0.022697,0.769272,0.01746
6,40,7,2,0,0,1,,5,S,0,S,15,0.764718,0.029004,0.02218
6,41,3,7,0,0,1,,4,S,0,S,16,0.03052,0.762454,0.02327
6,42,2,6,0,0,1,,4,S,0,S,16,0.027845,0.765409,0.021313
6,43,2,5,0,0,1,,3,S,0,S,19,0.022177,0.780928,0.017319
6,44,2,8,0,0,1,,6,S,0,S,15,0.018204,0.774067,0.014091
6,45,9,4,0,0,1,,5,S,0,S,17,0.794003,0.010207,0.008105
6,46,2,9,0,0,1,,7,L,0,S,16,0.007724,0.795444,0.006144
6,47,4,6,0,0,1,,2,S,0,S,18,0.012205,0.79138,0.009659
6,48,8,2,0,0,1,,6,S,0,S,15,0.75982,0.031932,0.024263
6,49,5,3,0,0,1,,2,S,0,S,18,0.759431,0.036161,0.027462
6,50,7,4,0,0,1,,3,S,0,S,17,0.773745,0.026657,0.020626
6,51,2,1,0,0,1,,1,S,0,S,15,0.75331,0.03491,0.026298
6,52,8,4,0,0,1,,4,S,0,S,17,0.766296,0.031602,0.024217
6,53,5,8,0,0,1,,3,S,0,S,17,0.033821,0.759963,0.025703
6,54,5,6,0,0,1,,1,S,0,S,21,0.016278,0.787725,0.012822
6,55,3,2,0,0,1,,1,S,0,S,24,0.780473,0.025739,0.020089
6,56,3,4,0,0,1,,1,S,0,S,19,0.013336,0.791786,0.010559
6,57,1,4,0,0,1,,3,S,0,S,16,0.016413,0.785183,0.012888
6,58,4,1,0,0,1,,3,S,0,S,15,0.796196,0.002621,0.002087
6,59,7,5,0,0,1,,2,S,0,S,17,0.756755,0.038766,0.029336
6,60,5,7,0,0,1,,2,S,0,S,23,0.014752,0.793076,0.011699
6,61,9,5,0,0,1,,4,S,0,S,17,0.779169,0.020721,0.016145
6,62,9,6,0,0,1,,3,S,0,S,21,0.753616,0.04388,0.033068
6,63,8,3,0,0,1,,5,S,0,S,17,0.790346,0.010074,0.007962
6,64,3,1,0,0,1,,2,S,0,S,16,0.7877,0.009668,0.007616
6,65,3,6,0,0,1,,3,S,0,S,16,0.018692,0.775372,0.014494
6,66,6,2,0,0,1,,4,S,0,S,17,0.774169,0.026895,0.020821
6,67,4,3,0,0,1,,1,S,0,S,22,0.762655,0.038638,0.029467
6,68,3,5,0,0,1,,2,S,0,S,18,0.036419,0.75951,0.027661
6,69,9,2,0,0,1,,7,L,0,S,15,0.776246,0.019649,0.015252
6,70,5,4,0,0,1,,1,S,0,S,19,0.758572,0.040813,0.03096
6,71,9,3,0,0,1,,6,S,0,S,16,0.765302,0.028123,0.021523
6,72,9,1,0,0,1,,8,L,0,S,13,0.752651,0.026363,0.019842
7,1,4,8,0,0,1,,4,S,0,S,18,0.020011,0.782993,0.015669
7,2,1,4,0,0,1,,3,S,0,S,15,0.01776,0.774146,0.013749
7,3,4,7,0,0,1,,3,S,0,S,21,0.040699,0.760254,0.030942
7,4,5,9,0,0,1,,4,S,0,S,16,0.013264,0.783149,0.010387
7,5,5,1,0,0,1,,4,S,0,S,15,0.792664,0.004902,0.003886
7,6,9,6,0,0,1,,3,S,0,S,18,0.769873,0.02932,0.022572
7,7,3,7,0,0,1,,4,S,0,S,15,0.000322,0.799236,0.000258
7,8,1,8,0,0,1,,7,L,0,S,14,0.005605,0.787238,0.004413
7,9,8,7,0,0,1,,1,S,0,S,17,0.753677,0.040009,0.030154
7,10,9,5,0,0,1,,4,S,0,S,16,0.760401,0.032957,0.025061
7,11,6,9,0,0,1,,3,S,0,S,16,0.028297,0.76668,0.021694
7,12,3,4,0,0,1,,1,S,0,S,15,0.027837,0.762019,0.021212
7,13,3,5,0,0,1,,2,S,0,S,15,0.003809,0.793773,0.003024
7,14,4,2,0,0,1,,2,S,0,S,15,0.789023,0.008432,0.006653
7,15,9,2,0,0,1,,7,L,0,S,13,0.767682,0.016276,0.012494
7,16,9,1,0,0,1,,8,L,0,S,13,0.769883,0.015047,0.011584
7,17,8,3,0,0,1,,5,S,0,S,16,0.764992,0.029135,0.022288
7,18,6,2,0,0,1,,4,S,0,S,14,0.756968,0.030239,0.02289
7,19,5,3,0,0,1,,2,S,0,S,23,0.779885,0.024769,0.019317
7,20,2,4,0,0,1,,2,S,0,S,17,0.006508,0.794935,0.005173
7,21,1,3,0,0,1,,2,S,0,S,15,0.014738,0.780118,0.011497
7,22,8,2,0,0,1,,6,S,0,S,13,0.750681,0.028002,0.02102
7,23,9,3,0,0,1,,6,S,0,S,15,0.752177,0.03738,0.028116
7,24,8,5,0,0,1,,3,S,0,S,17,0.759824,0.034318,0.026075
7,25,3,6,0,0,1,,3,S,0,S,14,0.013389,0.776536,0.010397
7,26,8,4,0,0,1,,4,S,0,S,16,0.762981,0.028994,0.022122
7,27,3,2,0,0,1,,1,S,0,S,24,0.775142,0.029965,0.023227
7,28,2,1,0,0,1,,1,S,0,S,18,0.777778,0.023783,0.018498
7,29,7,8,0,0,0,,1,S,0,S,18,0.752713,0.043382,0.032654
7,30,4,5,0,0,1,,1,S,0,S,22,0.031745,0.770986,0.024475
7,31,5,4,0,0,1,,1,S,0,S,23,0.790766,0.014139,0.011181
7,32,4,6,0,0,1,,2,S,0,S,18,0.02343,0.777087,0.018207
7,33,7,3,0,0,1,,4,S,0,S,16,0.793416,0.007408,0.005878
7,34,7,4,0,0,1,,3,S,0,S,16,0.791155,0.00754,0.005965
7,35,6,1,0,0,1,,5,S,0,S,14,0.760004,0.028383,0.021572
7,36,3,8,0,0,1,,5,S,0,S,14,0.012026,0.779732,0.009377
7,37,1,2,0,0,1,,1,S,0,S,28,0.041139,0.760901,0.031303
7,38,3,9,0,0,1,,6,S,0,S,13,0.019293,0.761797,0.014698
7,39,4,3,0,0,1,,1,S,0,S,24,0.784275,0.022923,0.017978
7,40,6,3,0,0,1,,3,S,0,S,20,0.769323,0.033985,0.026146
7,41,5,2,0,0,1,,3,S,0,S,15,0.78941,0.006958,0.005493
7,42,6,5,0,0,1,,1,S,0,S,30,0.766705,0.037607,0.028834
7,43,2,3,0,0,1,,1,S,0,S,16,0.03806,0.754173,0.028704
7,44,2,9,0,0,1,,7,L,0,S,14,0.005834,0.785303,0.004582
7,45,2,7,0,0,1,,5,S,0,S,16,0.002606,0.799157,0.002082
7,46,5,8,0,0,1,,3,S,0,S,18,0.029617,0.769213,0.022781
7,47,4,1,0,0,1,,3,S,0,S,15,0.792308,0.006346,0.005028
7,48,4,9,0,0,1,,5,S,0,S,16,0.008185,0.791192,0.006476
7,49,7,2,0,0,1,,5,S,0,S,13,0.763186,0.019061,0.014547
7,50,1,7,0,0,1,,6,S,0,S,14,0.02825,0.757393,0.021397
7,51,1,9,0,0,1,,8,L,0,S,13,0.014359,0.767521,0.011021
7,52,8,6,0,0,1,,2,S,0,S,20,0.76792,0.031649,0.024304
7,53,5,6,0,0,1,,1,S,0,S,18,0.033212,0.76302,0.025341
7,54,2,8,0,0,1,,6,S,0,S,15,0.006049,0.791615,0.004789
7,55,7,5,0,0,1,,2,S,0,S,17,0.797773,0.004995,0.003985
7,56,9,8,0,0,1,,1,S,0,S,18,0.771702,0.029154,0.022498
7,57,3,1,0,0,1,,2,S,0,S,23,0.763484,0.039573,0.030214
7,58,9,7,0,0,1,,2,S,0,S,16,0.756301,0.037007,0.027989
7,59,6,4,0,0,1,,2,S,0,S,20,0.772065,0.029954,0.023126
7,60,7,9,0,0,1,,2,S,0,S,24,0.024682,0.779182,0.019232
7,61,9,4,0,0,1,,5,S,0,S,15,0.750041,0.037357,0.028019
7,62,6,7,0,0,1,,1,S,0,S,29,0.035492,0.770474,0.027346
7,63,7,6,0,0,1,,1,S,0,S,18,0.75103,0.043398,0.032593
7,64,1,6,0,0,1,,5,S,0,S,14,0.006933,0.784106,0.005436
7,65,1,5,0,0,1,,4,S,0,S,14,0.031497,0.752116,0.023689
7,66,8,1,0,0,1,,7,L,0,S,13,0.753068,0.026654,0.020073
7,67,8,9,0,0,1,,1,S,0,S,20,0.039971,0.756845,0.030252
7,68,5,7,0,0,1,,2,S,0,S,22,0.030501,0.771965,0.023545
7,69,6,8,0,0,1,,2,S,0,S,19,0.03044,0.77267,0.02352
7,70,2,6,0,0,1,,4,S,0,S,15,0.007733,0.787997,0.006093
7,71,7,1,0,0,1,,6,S,0,S,13,0.765433,0.017804,0.013628
7,72,2,5,0,0,1,,3,S,0,S,16,0.007326,0.792128,0.005803
8,1,6,8,0,0,0,,2,S,0,S,21,0.76516,0.037497,0.028691
8,2,5,1,0,0,1,,4,S,0,S,13,0.770281,0.013229,0.01019
8,3,6,3,0,0,1,,3,S,0,S,15,0.78443,0.012945,0.010155
8,4,4,9,0,0,1,,5,S,0,S,15,0.015769,0.781282,0.01232
8,5,9,4,0,0,1,,5,S,0,S,15,0.775342,0.020376,0.015798
8,6,6,4,0,0,1,,2,S,0,S,15,0.77665,0.019476,0.015126
8,7,3,2,0,0,1,,1,S,0,S,21,0.753966,0.046746,0.035245
8,8,5,4,0,0,1,,1,S,0,S,18,0.751709,0.045967,0.034554
8,9,5,7,0,0,1,,2,S,0,S,17,0.012954,0.789566,0.010228
8,10,1,6,0,0,1,,5,S,0,S,12,0.014948,0.75962,0.011355
8,11,8,3,0,0,1,,5,S,0,S,15,0.794521,0.006406,0.00509
8,12,4,3,0,0,1,,1,S,0,S,22,0.751438,0.051141,0.038429
8,13,5,8,0,0,1,,3,S,0,S,17,0.028492,0.770503,0.021953
8,14,7,8,0,0,1,,1,S,0,S,17,0.034406,0.763699,0.026276
8,15,8,2,0,0,1,,6,S,0,S,14,0.759718,0.02854,0.021682
8,16,8,6,0,0,1,,2,S,0,S,24,0.766248,0.039914,0.030584
8,17,3,9,0,0,1,,6,S,0,S,15,0.004447,0.79513,0.003536
8,18,6,1,0,0,1,,5,S,0,S,12,0.758619,0.015561,0.011805
8,19,1,2,0,0,1,,1,S,0,S,14,0.013503,0.775461,0.010471
8,20,7,9,0,0,1,,2,S,0,S,16,0.025886,0.770705,0.019951
8,21,8,4,0,0,1,,4,S,0,S,15,0.787222,0.012583,0.009906
8,22,1,8,0,0,1,,7,L,0,S,12,0.02116,0.750841,0.015888
8,23,2,6,0,0,1,,4,S,0,S,14,0.010157,0.781041,0.007933
8,24,2,8,0,0,1,,6,S,0,S,14,0.021966,0.765225,0.016809
8,25,4,2,0,0,1,,2,S,0,S,19,0.752692,0.046602,0.035077
8,26,6,7,0,0,0,,1,S,0,S,23,0.750929,0.049261,0.036992
8,27,3,8,0,0,1,,5,S,0,S,15,0.029574,0.763825,0.022589
8,28,1,7,0,0,1,,6,S,0,S,12,0.018158,0.754401,0.013698
8,29,4,8,0,0,1,,4,S,0,S,16,0.007769,0.796034,0.006184
8,30,5,2,0,0,1,,3,S,0,S,17,0.775496,0.023847,0.018493
8,31,4,1,0,0,1,,3,S,0,S,14,0.802134,0,0
8,32,9,2,0,0,1,,7,L,0,S,15,0.800731,0,0
8,33,6,2,0,0,1,,4,S,0,S,14,0.750406,0.034323,0.025756
8,34,9,7,0,0,1,,2,S,0,S,24,0.782523,0.024161,0.018906
8,35,9,1,0,0,1,,8,L,0,S,12,0.758029,0.015898,0.012051
8,36,1,9,0,0,1,,8,L,0,S,12,0.012013,0.762409,0.009159
8,37,8,7,0,0,1,,1,S,0,S,22,0.786824,0.021762,0.017123
8,38,2,3,0,0,1,,1,S,0,S,18,0.014059,0.789135,0.011095
8,39,9,3,0,0,1,,6,S,0,S,15,0.783189,0.013795,0.010804
8,40,9,5,0,0,1,,4,S,0,S,15,0.759838,0.030612,0.02326
8,41,8,5,0,0,1,,3,S,0,S,15,0.772608,0.022224,0.01717
8,42,2,4,0,0,1,,2,S,0,S,17,0.033681,0.76288,0.025695
8,43,5,6,0,0,1,,1,S,0,S,16,0.035287,0.759423,0.026798
8,44,7,1,0,0,1,,6,S,0,S,13,0.773386,0.011338,0.008768
8,45,2,5,0,0,1,,3,S,0,S,17,0.020646,0.777003,0.016042
8,46,2,9,0,0,1,,7,L,0,S,14,0.004659,0.786923,0.003666
8,47,4,6,0,0,1,,2,S,0,S,15,0.024785,0.771077,0.019111
8,48,2,7,0,0,1,,5,S,0,S,14,0.016109,0.772324,0.012442
8,49,7,5,0,0,1,,2,S,0,S,19,0.774659,0.027657,0.021425
8,50,6,5,0,0,1,,1,S,0,S,15,0.761251,0.02964,0.022564
8,51,5,3,0,0,1,,2,S,0,S,18,0.776412,0.02591,0.020117
8,52,3,1,0,0,1,,2,S,0,S,14,0.791057,0.003199,0.002531
8,53,3,6,0,0,1,,3,S,0,S,15,0.012393,0.786287,0.009744
8,54,7,3,0,0,1,,4,S,0,S,18,0.788413,0.016913,0.013335
8,55,1,4,0,0,1,,3,S,0,S,14,0,0.799238,0
8,56,5,9,0,0,1,,4,S,0,S,16,0.021953,0.775045,0.017015
8,57,9,8,0,0,1,,1,S,0,S,21,0.757596,0.043377,0.032862
8,58,8,1,0,0,1,,7,L,0,S,12,0.763788,0.012881,0.009838
8,59,3,5,0,0,1,,2,S,0,S,22,0.013574,0.795642,0.0108
8,60,7,4,0,0,1,,3,S,0,S,18,0.765849,0.035364,0.027084
8,61,7,6,0,0,0,,1,S,0,S,16,0.039851,0.754279,0.030058
8,62,1,3,0,0,1,,2,S,0,S,14,0.001241,0.792691,0.000984
8,63,4,5,0,0,1,,1,S,0,S,27,0.026921,0.781298,0.021033
8,64,1,5,0,0,1,,4,S,0,S,14,0,0.801253,0
8,65,4,7,0,0,1,,3,S,0,S,15,0.034232,0.757927,0.025945
8,66,2,1,0,0,1,,1,S,0,S,15,0.786492,0.007816,0.006147
8,67,8,9,0,0,1,,1,S,0,S,28,0.021241,0.788657,0.016752
8,68,7,2,0,0,1,,5,S,0,S,17,0.78462,0.017181,0.01348
8,69,3,4,0,0,1,,1,S,0,S,24,0.02102,0.789813,0.016602
8,70,6,9,0,0,1,,3,S,0,S,24,0.027135,0.778598,0.021128
8,71,9,6,0,0,1,,3,S,0,S,32,0.757662,0.045823,0.034719
8,72,3,7,0,0,1,,4,S,0,S,15,0.020819,0.774504,0.016125
9,1,1,4,0,0,1,,3,S,0,S,14,0.023439,0.763433,0.017894
9,2,7,4,0,0,1,,3,S,0,S,16,0.75366,0.040523,0.030541
9,3,9,7,0,0,1,,2,S,0,S,23,0.787164,0.017597,0.013852
9,4,4,2,0,0,1,,2,S,0,S,19,0.786752,0.019086,0.015016
9,5,6,1,0,0,1,,5,S,0,S,14,0.765736,0.021109,0.016164
9,6,9,4,0,0,1,,5,S,0,S,20,0.775464,0.029745,0.023066
9,7,3,7,0,0,1,,4,S,0,S,15,0.030126,0.755181,0.022751
9,8,5,9,0,0,1,,4,S,0,S,17,0.040715,0.755915,0.030777
9,9,5,7,0,0,1,,2,S,0,S,20,0.018179,0.785587,0.014281
9,10,3,4,0,0,1,,1,S,0,S,16,0.004218,0.797046,0.003362
9,11,7,3,0,0,1,,4,S,0,S,14,0.781192,0.01136,0.008875
9,12,4,3,0,0,1,,1,S,0,S,20,0.770268,0.032903,0.025344
9,13,5,6,0,0,1,,1,S,0,S,33,0.047885,0.756008,0.036201
9,14,7,8,0,0,0,,1,S,0,S,18,0.784886,0.018869,0.01481
9,15,1,6,0,0,1,,5,S,0,S,15,0.001018,0.79607,0.000811
9,16,1,5,0,0,1,,4,S,0,S,15,0.030681,0.755583,0.023182
9,17,9,6,0,0,1,,3,S,0,S,18,0.754275,0.043216,0.032596
9,18,4,9,0,0,1,,5,S,0,S,15,0.025925,0.767092,0.019887
9,19,2,4,0,0,1,,2,S,0,S,15,0.022838,0.768957,0.017562
9,20,2,9,0,0,1,,7,L,0,S,14,0.025492,0.759025,0.019349
9,21,7,1,0,0,1,,6,S,0,S,13,0.770804,0.014581,0.011239
9,22,3,8,0,0,1,,5,S,0,S,15,0.01489,0.778676,0.011594
9,23,3,6,0,0,1,,3,S,0,S,16,0.025729,0.768362,0.019769
9,24,6,8,0,0,1,,2,S,0,S,21,0.045885,0.750865,0.034454
9,25,6,3,0,0,1,,3,S,0,S,15,0.75048,0.036382,0.027304
9,26,8,3,0,0,1,,5,S,0,S,15,0.791526,0.007922,0.00627
9,27,3,1,0,0,1,,2,S,0,S,18,0.789591,0.013142,0.010377
9,28,4,5,0,0,1,,1,S,0,S,20,0.015016,0.790187,0.011865
9,29,6,9,0,0,1,,3,S,0,S,19,0.042467,0.752709,0.031965
9,30,1,8,0,0,1,,7,L,0,S,14,0.007066,0.783658,0.005537
9,31,5,1,0,0,1,,4,S,0,S,15,0.80108,0.000703,0.000563
9,32,5,2,0,0,1,,3,S,0,S,16,0.792827,0.009981,0.007913
9,33,5,3,0,0,1,,2,S,0,S,16,0.771237,0.026722,0.020609
9,34,3,2,0,0,1,,1,S,0,S,24,0.790046,0.016567,0.013088
9,35,8,6,0,0,1,,2,S,0,S,18,0.780757,0.023067,0.01801
9,36,9,2,0,0,1,,7,L,0,S,15,0.796423,0.003617,0.002881
9,37,2,8,0,0,1,,6,S,0,S,15,0.001044,0.795856,0.000831
9,38,7,9,0,0,0,,2,S,0,S,19,0.777296,0.025863,0.020104
9,39,2,5,0,0,1,,3,S,0,S,17,0.013568,0.783644,0.010632
9,40,2,1,0,0,1,,1,S,0,S,19,0.777583,0.023313,0.018128
9,41,2,3,0,0,1,,1,S,0,S,21,0.03652,0.762531,0.027848
9,42,9,1,0,0,1,,8,L,0,S,14,0.787819,0.006641,0.005232
9,43,6,2,0,0,1,,4,S,0,S,15,0.768093,0.023047,0.017702
9,44,8,5,0,0,1,,3,S,0,S,16,0.754315,0.038147,0.028775
9,45,9,3,0,0,1,,6,S,0,S,15,0.781694,0.014872,0.011625
9,46,6,5,0,0,1,,1,S,0,S,18,0.779453,0.018571,0.014475
9,47,7,2,0,0,1,,5,S,0,S,14,0.791942,0.003308,0.002619
9,48,7,6,0,0,1,,1,S,0,S,16,0.781122,0.018001,0.014061
9,49,5,4,0,0,0,,1,S,0,S,21,0.045705,0.757426,0.034618
9,50,8,4,0,0,1,,4,S,0,S,19,0.768302,0.035325,0.02714
9,51,1,3,0,0,1,,2,S,0,S,17,0.036695,0.756789,0.02777
9,52,1,9,0,0,1,,8,L,0,S,14,0,0.794624,0
9,53,8,1,0,0,1,,7,L,0,S,14,0.794925,0.001834,0.001458
9,54,6,7,0,0,1,,1,S,0,S,26,0.026488,0.772912,0.020473
9,55,2,7,0,0,1,,5,S,0,S,15,0.014588,0.774719,0.011302
9,56,4,8,0,0,1,,4,S,0,S,16,0.005942,0.796624,0.004733
9,57,3,9,0,0,1,,6,S,0,S,15,0.002271,0.794588,0.001804
9,58,4,1,0,0,1,,3,S,0,S,16,0.765294,0.030944,0.023681
9,59,9,5,0,0,1,,4,S,0,S,17,0.786746,0.014104,0.011096
9,60,8,7,0,0,1,,1,S,0,S,21,0.767363,0.03342,0.025646
9,61,9,8,0,0,1,,1,S,0,S,35,0.763588,0.041013,0.031317
9,62,3,5,0,0,1,,2,S,0,S,18,0.008326,0.792876,0.006601
9,63,4,7,0,0,1,,3,S,0,S,16,0.025219,0.768295,0.019376
9,64,1,7,0,0,1,,6,S,0,S,14,0.017606,0.766303,0.013492
9,65,8,2,0,0,1,,6,S,0,S,14,0.75386,0.033475,0.025236
9,66,5,8,0,0,1,,3,S,0,S,18,0.041387,0.757656,0.031357
9,67,7,5,0,0,1,,2,S,0,S,15,0.770897,0.021412,0.016507
9,68,8,9,0,0,1,,1,S,0,S,24,0.03787,0.767144,0.029052
9,69,4,6,0,0,1,,2,S,0,S,17,0.033753,0.764096,0.025791
9,70,1,2,0,0,1,,1,S,0,S,18,0.028564,0.769604,0.021983
9,71,6,4,0,0,1,,2,S,0,S,25,0.794201,0.013721,0.010898
9,72,2,6,0,0,1,,4,S,0,S,16,0.005413,0.793643,0.004296
10,1,3,8,0,0,1,,5,S,0,S,15,0.004148,0.793186,0.00329
10,2,5,1,0,0,1,,4,S,0,S,14,0.763649,0.023213,0.017727
10,3,1,7,0,0,1,,6,S,0,S,13,0.010369,0.775256,0.008039
10,4,4,8,0,0,1,,4,S,0,S,15,0.002932,0.795052,0.002331
10,5,7,8,0,0,0,,1,S,0,S,23,0.772208,0.03118,0.024077
10,6,7,2,0,0,1,,5,S,0,S,13,0.759987,0.021609,0.016423
10,7,9,5,0,0,1,,4,S,0,S,16,0.757938,0.036281,0.027499
10,8,6,7,0,0,1,,1,S,0,S,18,0.02521,0.775617,0.019553
10,9,5,2,0,0,1,,3,S,0,S,15,0.766742,0.025958,0.019903
10,10,7,5,0,0,1,,2,S,0,S,15,0.776174,0.017752,0.013779
10,11,1,4,0,0,1,,3,S,0,S,15,0.032121,0.757327,0.024326
10,12,8,4,0,0,1,,4,S,0,S,14,0.76965,0.018567,0.01429
10,13,6,5,0,0,1,,1,S,0,S,17,0.76855,0.02829,0.021742
10,14,8,2,0,0,1,,6,S,0,S,13,0.774741,0.010154,0.007867
10,15,8,1,0,0,1,,7,L,0,S,13,0.798137,0,0
10,16,2,6,0,0,1,,4,S,0,S,15,0.002341,0.794848,0.001861
10,17,8,5,0,0,1,,3,S,0,S,14,0.75033,0.033457,0.025104
10,18,3,1,0,0,1,,2,S,0,S,15,0.760796,0.028444,0.02164
10,19,9,7,0,0,0,,2,S,0,S,19,0.031818,0.771394,0.024544
10,20,6,2,0,0,1,,4,S,0,S,14,0.762859,0.024064,0.018358
10,21,5,9,0,0,1,,4,S,0,S,14,0.021937,0.766634,0.016818
10,22,6,1,0,0,1,,5,S,0,S,14,0.798518,0,0
10,23,7,4,0,0,1,,3,S,0,S,15,0.798433,0.000314,0.000251
10,24,7,6,0,0,1,,1,S,0,S,17,0.780726,0.01892,0.014772
10,25,6,3,0,0,1,,3,S,0,S,17,0.75533,0.039584,0.029899
10,26,1,9,0,0,1,,8,L,0,S,12,0.017894,0.755718,0.013523
10,27,3,2,0,0,1,,1,S,0,S,17,0.784073,0.016623,0.013034
10,28,5,7,0,0,1,,2,S,0,S,16,0.016196,0.78357,0.012691
10,29,7,3,0,0,1,,4,S,0,S,15,0.770583,0.022939,0.017677
10,30,8,7,0,0,1,,1,S,0,S,19,0.776377,0.025978,0.020168
10,31,4,7,0,0,1,,3,S,0,S,15,0.003308,0.795701,0.002632
10,32,1,2,0,0,1,,1,S,0,S,19,0.031298,0.769337,0.024079
10,33,2,8,0,0,1,,6,S,0,S,14,0,0.796099,0
10,34,9,3,0,0,1,,6,S,0,S,17,0.79678,0.008759,0.006979
10,35,2,4,0,0,1,,2,S,0,S,17,0.022412,0.775609,0.017383
10,36,2,1,0,0,1,,1,S,0,S,18,0.789137,0.012375,0.009766
10,37,2,3,0,0,1,,1,S,0,S,16,0.017208,0.780774,0.013435
10,38,4,1,0,0,1,,3,S,0,S,15,0.759854,0.029422,0.022357
10,39,3,5,0,0,1,,2,S,0,S,20,0.029275,0.772427,0.022613
10,40,1,3,0,0,1,,2,S,0,S,15,0.00595,0.792247,0.004714
10,41,7,1,0,0,1,,6,S,0,S,13,0.786145,0.000721,0.000567
10,42,1,6,0,0,1,,5,S,0,S,14,0.005851,0.786315,0.004601
10,43,6,8,0,0,1,,2,S,0,S,18,0.022912,0.777256,0.017808
10,44,2,7,0,0,1,,5,S,0,S,14,0,0.796982,0
10,45,3,7,0,0,1,,4,S,0,S,15,0.004531,0.79383,0.003597
10,46,4,9,0,0,1,,5,S,0,S,13,0.02818,0.75101,0.021163
10,47,8,3,0,0,1,,5,S,0,S,15,0.797363,0.001743,0.001389
10,48,9,6,0,0,1,,3,S,0,S,20,0.751921,0.047072,0.035394
10,49,6,9,0,0,1,,3,S,0,S,15,0.025165,0.766134,0.019279
10,50,2,5,0,0,1,,3,S,0,S,16,0.026495,0.767787,0.020342
10,51,8,9,0,0,1,,1,S,0,S,19,0.036753,0.761812,0.027999
10,52,5,4,0,0,1,,1,S,0,S,19,0.79019,0.014972,0.011831
10,53,3,6,0,0,1,,3,S,0,S,16,0.03245,0.760356,0.024674
10,54,5,8,0,0,1,,3,S,0,S,16,0.015332,0.783477,0.012012
10,55,5,3,0,0,1,,2,S,0,S,22,0.764036,0.039113,0.029883
10,56,7,9,0,0,1,,2,S,0,S,17,0.042142,0.751651,0.031676
10,57,4,2,0,0,1,,2,S,0,S,17,0.78222,0.018349,0.014353
10,58,6,4,0,0,1,,2,S,0,S,16,0.761845,0.031213,0.02378
10,59,9,8,0,0,0,,1,S,0,S,19,0.028013,0.77489,0.021707
10,60,4,5,0,0,1,,1,S,0,S,20,0.02339,0.780158,0.018248
10,61,4,3,0,0,0,,1,S,0,S,19,0.033101,0.767986,0.025421
10,62,9,4,0,0,1,,5,S,0,S,16,0.792496,0.009042,0.007166
10,63,9,2,0,0,1,,7,L,0,S,14,0.780728,0.012041,0.009401
10,64,5,6,0,0,1,,1,S,0,S,19,0.023955,0.778734,0.018655
10,65,3,9,0,0,1,,6,S,0,S,14,0,0.802969,0
10,66,1,8,0,0,1,,7,L,0,S,13,0.010246,0.774353,0.007934
10,67,3,4,0,0,1,,1,S,0,S,25,0.022125,0.783781,0.017341
10,68,9,1,0,0,1,,8,L,0,S,13,0.759849,0.021763,0.016537
10,69,2,9,0,0,1,,7,L,0,S,13,0,0.78788,0
10,70,4,6,0,0,1,,2,S,0,S,16,0.030427,0.763284,0.023225
10,71,8,6,0,0,1,,2,S,0,S,16,0.777009,0.019345,0.015031
10,72,1,5,0,0,1,,4,S,0,S,15,0.012191,0.783177,0.009547
11,1,7,2,0,0,1,,5,S,0,S,16,0.776849,0.022287,0.017314
11,2,9,2,0,0,1,,7,L,0,S,14,0.762145,0.024887,0.018968
11,3,6,3,0,0,1,,3,S,0,S,17,0.783036,0.015037,0.011775
11,4,9,3,0,0,1,,6,S,0,S,15,0.781427,0.012446,0.009726
11,5,1,6,0,0,1,,5,S,0,S,15,0.006245,0.794915,0.004964
11,6,4,9,0,0,1,,5,S,0,S,16,0.007249,0.792455,0.005745
11,7,3,6,0,0,1,,3,S,0,S,16,0.032064,0.765195,0.024535
11,8,6,7,0,0,1,,1,S,0,S,19,0.016549,0.782471,0.012949
11,9,4,8,0,0,1,,4,S,0,S,14,0.032744,0.750615,0.024578
11,10,5,6,0,0,1,,1,S,0,S,28,0.017505,0.793264,0.013886
11,11,3,2,0,0,1,,1,S,0,S,26,0.765699,0.039726,0.030418
11,12,6,2,0,0,1,,4,S,0,S,16,0.788122,0.010409,0.008204
11,13,8,4,0,0,1,,4,S,0,S,15,0.790022,0.006611,0.005223
11,14,1,8,0,0,1,,7,L,0,S,13,0.009415,0.776312,0.007309
11,15,8,1,0,0,1,,7,L,0,S,14,0.800443,0,0
11,16,8,2,0,0,1,,6,S,0,S,15,0.800938,0,0
11,17,3,1,0,0,1,,2,S,0,S,17,0.781893,0.017563,0.013732
11,18,8,7,0,0,1,,1,S,0,S,26,0.780303,0.02255,0.017596
11,19,9,6,0,0,1,,3,S,0,S,17,0.795558,0.008241,0.006556
11,20,9,7,0,0,1,,2,S,0,S,22,0.793052,0.011103,0.008805
11,21,9,1,0,0,1,,8,L,0,S,13,0.756011,0.021918,0.016571
11,22,7,5,0,0,1,,2,S,0,S,22,0.790291,0.019298,0.015251
11,23,3,5,0,0,1,,2,S,0,S,17,0.016432,0.787533,0.012941
11,24,2,4,0,0,1,,2,S,0,S,18,0.037382,0.757923,0.028333
11,25,6,9,0,0,1,,3,S,0,S,18,0.029263,0.766366,0.022426
11,26,2,1,0,0,1,,1,S,0,S,20,0.774956,0.023745,0.018401
11,27,7,3,0,0,1,,4,S,0,S,17,0.764442,0.032825,0.025093
11,28,9,8,0,0,0,,1,S,0,S,19,0.025732,0.773325,0.019899
11,29,7,9,0,0,1,,2,S,0,S,17,0.033862,0.762523,0.025821
11,30,2,3,0,0,1,,1,S,0,S,17,0.031426,0.762514,0.023963
11,31,1,5,0,0,1,,4,S,0,S,15,0.018049,0.779543,0.01407
11,32,3,4,0,0,1,,1,S,0,S,26,0.038396,0.76626,0.029421
11,33,7,1,0,0,1,,6,S,0,S,14,0.754729,0.029793,0.022485
11,34,1,7,0,0,1,,6,S,0,S,14,0.003983,0.788855,0.003142
11,35,5,7,0,0,1,,2,S,0,S,17,0.040155,0.751905,0.030193
11,36,3,8,0,0,1,,5,S,0,S,14,0.002574,0.79106,0.002036
11,37,1,9,0,0,1,,8,L,0,S,14,0,0.797041,0
11,38,1,2,0,0,1,,1,S,0,S,18,0.019256,0.786187,0.015139
11,39,2,8,0,0,1,,6,S,0,S,13,0.017753,0.761557,0.01352
11,40,4,1,0,0,1,,3,S,0,S,15,0.755009,0.032574,0.024594
11,41,4,5,0,0,1,,1,S,0,S,20,0.028985,0.775435,0.022476
11,42,6,4,0,0,1,,2,S,0,S,16,0.772138,0.022154,0.017106
11,43,1,3,0,0,1,,2,S,0,S,16,0.040399,0.752463,0.030399
11,44,3,9,0,0,1,,6,S,0,S,15,0.000512,0.798682,0.000409
11,45,2,6,0,0,1,,4,S,0,S,15,0.02147,0.771456,0.016563
11,46,5,1,0,0,1,,4,S,0,S,15,0.797957,0,0
11,47,6,5,0,0,1,,1,S,0,S,20,0.775225,0.026823,0.020794
11,48,5,8,0,0,1,,3,S,0,S,15,0.029276,0.760302,0.022259
11,49,7,6,0,0,1,,1,S,0,S,27,0.762911,0.042836,0.03268
11,50,3,7,0,0,1,,4,S,0,S,15,0.007916,0.787886,0.006237
11,51,8,3,0,0,1,,5,S,0,S,15,0.766103,0.024539,0.018799
11,52,6,1,0,0,1,,5,S,0,S,14,0.759312,0.023442,0.0178
11,53,8,9,0,0,1,,1,S,0,S,29,0.027832,0.775589,0.021586
11,54,5,4,0,0,1,,1,S,0,S,17,0.79329,0.009856,0.007818
11,55,9,5,0,0,1,,4,S,0,S,16,0.770395,0.025675,0.01978
11,56,4,3,0,0,1,,1,S,0,S,21,0.769937,0.032075,0.024695
11,57,2,9,0,0,1,,7,L,0,S,14,0.009077,0.779682,0.007077
11,58,9,4,0,0,1,,5,S,0,S,14,0.751784,0.03209,0.024125
11,59,2,7,0,0,1,,5,S,0,S,14,0.014894,0.770773,0.01148
11,60,8,5,0,0,1,,3,S,0,S,17,0.794697,0.008907,0.007079
11,61,1,4,0,0,1,,3,S,0,S,17,0.037244,0.760317,0.028317
11,62,5,3,0,0,1,,2,S,0,S,18,0.793743,0.01039,0.008247
11,63,5,2,0,0,1,,3,S,0,S,16,0.76381,0.031672,0.024191
11,64,8,6,0,0,1,,2,S,0,S,17,0.766806,0.031214,0.023935
11,65,4,2,0,0,1,,2,S,0,S,18,0.771722,0.029308,0.022617
11,66,4,6,0,0,1,,2,S,0,S,19,0.015923,0.790925,0.012594
11,67,4,7,0,0,1,,3,S,0,S,16,0.017838,0.777586,0.01387
11,68,7,8,0,0,1,,1,S,0,S,15,0.034824,0.754193,0.026264
11,69,2,5,0,0,1,,3,S,0,S,15,0.034865,0.753839,0.026283
11,70,5,9,0,0,1,,4,S,0,S,17,0.023599,0.774465,0.018276
11,71,6,8,0,0,1,,2,S,0,S,16,0.016205,0.777977,0.012607
11,72,7,4,0,0,1,,3,S,0,S,16,0.758794,0.035663,0.027061
12,1,2,3,0,0,1,,1,S,0,S,21,0.031619,0.767008,0.024252
12,2,9,6,0,0,1,,3,S,0,S,26,0.789766,0.019118,0.015099
12,3,3,1,0,0,1,,2,S,0,S,19,0.778886,0.022132,0.017238
12,4,1,5,0,0,1,,4,S,0,S,14,0.014972,0.773219,0.011577
12,5,4,5,0,0,1,,1,S,0,S,24,0.041771,0.758768,0.031695
12,6,3,2,0,0,1,,1,S,0,S,26,0.792441,0.01852,0.014676
12,7,6,4,0,0,1,,2,S,0,S,18,0.779767,0.021628,0.016865
12,8,8,6,0,0,0,,2,S,0,S,18,0.028308,0.774008,0.02191
12,9,5,3,0,0,1,,2,S,0,S,19,0.79531,0.008083,0.006428
12,10,2,7,0,0,1,,5,S,0,S,15,0.019021,0.774306,0.014728
12,11,6,5,0,0,1,,1,S,0,S,23,0.764243,0.040095,0.030643
12,12,7,4,0,0,1,,3,S,0,S,15,0.765327,0.025214,0.019297
12,13,2,6,0,0,1,,4,S,0,S,14,0.028613,0.756826,0.021655
12,14,5,7,0,0,1,,2,S,0,S,17,0.034457,0.761718,0.026247
12,15,1,6,0,0,1,,5,S,0,S,13,0.007184,0.778111,0.00559
12,16,4,6,0,0,1,,2,S,0,S,16,0.02797,0.767253,0.02146
12,17,7,5,0,0,1,,2,S,0,S,16,0.755862,0.037592,0.028414
12,18,1,2,0,0,1,,1,S,0,S,17,0.019563,0.781008,0.015279
12,19,9,2,0,0,1,,7,L,0,S,14,0.793362,0.002729,0.002165
12,20,5,6,0,0,1,,1,S,0,S,16,0.020182,0.777047,0.015682
12,21,6,3,0,0,1,,3,S,0,S,17,0.777934,0.021995,0.017111
12,22,7,2,0,0,1,,5,S,0,S,14,0.79178,0.004717,0.003735
12,23,9,4,0,0,1,,5,S,0,S,15,0.76862,0.021831,0.016779
12,24,8,3,0,0,1,,5,S,0,S,16,0.76976,0.02527,0.019452
12,25,1,7,0,0,1,,6,S,0,S,13,0.022141,0.758334,0.01679
12,26,6,1,0,0,1,,5,S,0,S,14,0.753317,0.031832,0.02398
12,27,3,7,0,0,1,,4,S,0,S,14,0.031812,0.754682,0.024008
12,28,6,2,0,0,1,,4,S,0,S,15,0.775443,0.022264,0.017264
12,29,3,5,0,0,1,,2,S,0,S,16,0.006072,0.795322,0.00483
12,30,8,9,0,0,1,,1,S,0,S,18,0.024069,0.776879,0.018699
12,31,6,9,0,0,1,,3,S,0,S,17,0.014519,0.788108,0.011443
12,32,3,9,0,0,1,,6,S,0,S,14,0.009316,0.781719,0.007282
12,33,7,9,0,0,1,,2,S,0,S,29,0.04058,0.762005,0.030922
12,34,8,7,0,0,0,,1,S,0,S,22,0.017348,0.792024,0.01374
12,35,3,4,0,0,1,,1,S,0,S,17,0.034341,0.759403,0.026079
12,36,6,7,0,0,1,,1,S,0,S,19,0.01833,0.789396,0.01447
12,37,3,8,0,0,1,,5,S,0,S,14,0.007742,0.786394,0.006088
12,38,8,4,0,0,1,,4,S,0,S,17,0.784428,0.015359,0.012048
12,39,9,8,0,0,1,,1,S,0,S,28,0.776063,0.03084,0.023934
12,40,7,8,0,0,1,,1,S,0,S,29,0.048763,0.755037,0.036818
12,41,5,1,0,0,1,,4,S,0,S,15,0.771922,0.018733,0.01446
12,42,7,6,0,0,1,,1,S,0,S,32,0.782961,0.025992,0.020351
12,43,9,3,0,0,1,,6,S,0,S,15,0.789366,0.006257,0.004939
12,44,1,8,0,0,1,,7,L,0,S,13,0.005817,0.780366,0.004539
12,45,4,1,0,0,1,,3,S,0,S,15,0.779088,0.013306,0.010367
12,46,4,2,0,0,1,,2,S,0,S,16,0.793532,0.008427,0.006687
12,47,2,5,0,0,1,,3,S,0,S,17,0.006207,0.795722,0.004939
12,48,9,5,0,0,1,,4,S,0,S,16,0.761742,0.032123,0.024469
12,49,7,3,0,0,1,,4,S,0,S,15,0.786744,0.009108,0.007166
12,50,3,6,0,0,1,,3,S,0,S,14,0.009653,0.783451,0.007563
12,51,2,1,0,0,1,,1,S,0,S,17,0.758445,0.03369,0.025552
12,52,9,1,0,0,1,,8,L,0,S,13,0.756839,0.022334,0.016904
12,53,7,1,0,0,1,,6,S,0,S,13,0.755615,0.024015,0.018146
12,54,4,9,0,0,1,,5,S,0,S,16,0.026292,0.766999,0.020166
12,55,4,3,0,0,1,,1,S,0,S,18,0.768772,0.028095,0.021599
12,56,1,9,0,0,1,,8,L,0,S,13,0.007104,0.776139,0.005514
12,57,5,4,0,0,1,,1,S,0,S,20,0.764059,0.033226,0.025387
12,58,5,9,0,0,1,,4,S,0,S,16,0.018737,0.776526,0.014549
12,59,6,8,0,0,1,,2,S,0,S,17,0.012029,0.794114,0.009552
12,60,2,4,0,0,1,,2,S,0,S,19,0.029721,0.766697,0.022787
12,61,5,8,0,0,1,,3,S,0,S,16,0.016451,0.782309,0.01287
12,62,8,2,0,0,1,,6,S,0,S,15,0.798608,0.003216,0.002568
12,63,2,8,0,0,1,,6,S,0,S,14,0.026383,0.760228,0.020057
12,64,4,8,0,0,1,,4,S,0,S,16,0.02399,0.772852,0.018541
12,65,2,9,0,0,1,,7,L,0,S,14,0.028052,0.755277,0.021187
12,66,8,5,0,0,1,,3,S,0,S,19,0.755394,0.043395,0.03278
12,67,8,1,0,0,1,,7,L,0,S,14,0.77181,0.01679,0.012959
12,68,1,3,0,0,1,,2,S,0,S,15,0.027724,0.759583,0.021058
12,69,1,4,0,0,1,,3,S,0,S,15,0.012493,0.778677,0.009728
12,70,4,7,0,0,1,,3,S,0,S,18,0.010439,0.794294,0.008292
12,71,5,2,0,0,1,,3,S,0,S,16,0.784133,0.015715,0.012323
12,72,9,7,0,0,1,,2,S,0,S,19,0.776833,0.026351,0.02047
13,1,8,1,0,0,1,,7,L,0,S,14,0.796812,0,0
13,2,1,4,0,0,1,,3,S,0,S,17,0.028578,0.768284,0.021956
13,3,9,1,0,0,1,,8,L,0,S,13,0.755143,0.027307,0.020621
13,4,1,6,0,0,1,,5,S,0,S,17,0.007055,0.796813,0.005621
13,5,1,7,0,0,1,,6,S,0,S,15,0.009172,0.786065,0.00721
13,6,5,8,0,0,1,,3,S,0,S,16,0.01373,0.785834,0.01079
13,7,8,4,0,0,1,,4,S,0,S,15,0.758252,0.030507,0.023132
13,8,7,6,0,0,1,,1,S,0,S,18,0.769027,0.03237,0.024894
13,9,1,8,0,0,1,,7,L,0,S,14,0.022292,0.764573,0.017044
13,10,2,5,0,0,1,,3,S,0,S,18,0.013435,0.79075,0.010623
13,11,4,1,0,0,1,,3,S,0,S,16,0.77725,0.019213,0.014933
13,12,5,4,0,0,1,,1,S,0,S,26,0.758253,0.044253,0.033555
13,13,5,7,0,0,1,,2,S,0,S,17,0.020495,0.779606,0.015978
13,14,2,8,0,0,1,,6,S,0,S,15,0.012236,0.783046,0.009582
13,15,2,9,0,0,1,,7,L,0,S,15,0.03341,0.757388,0.025304
13,16,3,6,0,0,1,,3,S,0,S,19,0.026092,0.777396,0.020284
13,17,6,8,0,0,1,,2,S,0,S,18,0.017765,0.782536,0.013902
13,18,2,6,0,0,1,,4,S,0,S,18,0.039475,0.758552,0.029944
13,19,8,3,0,0,1,,5,S,0,S,15,0.775297,0.019609,0.015203
13,20,8,6,0,0,1,,2,S,0,S,16,0.794117,0.00637,0.005059
13,21,9,6,0,0,1,,3,S,0,S,15,0.762961,0.030865,0.023549
13,22,1,2,0,0,1,,1,S,0,S,19,0.014003,0.792606,0.011099
13,23,1,5,0,0,1,,4,S,0,S,16,0.027936,0.766954,0.021426
13,24,3,9,0,0,1,,6,S,0,S,16,0.005439,0.797193,0.004336
13,25,2,7,0,0,1,,5,S,0,S,16,0.005675,0.794605,0.004509
13,26,1,3,0,0,1,,2,S,0,S,17,0.042809,0.753343,0.03225
13,27,9,3,0,0,1,,6,S,0,S,15,0.791713,0.009707,0.007685
13,28,3,8,0,0,1,,5,S,0,S,15,0.018915,0.774773,0.014655
13,29,7,8,0,0,1,,1,S,0,S,18,0.038348,0.759792,0.029137
13,30,8,5,0,0,1,,3,S,0,S,16,0.776392,0.0198,0.015373
13,31,9,2,0,0,1,,7,L,0,S,14,0.756486,0.032582,0.024648
13,32,4,7,0,0,1,,3,S,0,S,17,0.024951,0.771055,0.019239
13,33,9,5,0,0,1,,4,S,0,S,16,0.796575,0.006965,0.005548
13,34,3,2,0,0,1,,1,S,0,S,35,0.788316,0.021866,0.017237
13,35,6,4,0,0,1,,2,S,0,S,18,0.764693,0.032121,0.024563
13,36,3,5,0,0,1,,2,S,0,S,18,0.031464,0.768388,0.024177
13,37,4,3,0,0,1,,1,S,0,S,22,0.760453,0.041583,0.031622
13,38,7,4,0,0,1,,3,S,0,S,17,0.753122,0.042123,0.031724
13,39,9,7,0,0,1,,2,S,0,S,18,0.781942,0.02131,0.016663
13,40,2,4,0,0,1,,2,S,0,S,19,0.043545,0.753661,0.032818
13,41,9,4,0,0,1,,5,S,0,S,15,0.77587,0.019845,0.015397
13,42,2,3,0,0,1,,1,S,0,S,20,0.0413,0.761043,0.031431
13,43,4,2,0,0,1,,2,S,0,S,20,0.791676,0.014734,0.011665
13,44,5,3,0,0,1,,2,S,0,S,22,0.760098,0.044351,0.033711
13,45,8,7,0,0,1,,1,S,0,S,19,0.79284,0.010557,0.00837
13,46,7,5,0,0,1,,2,S,0,S,19,0.773856,0.029294,0.022669
13,47,5,9,0,0,1,,4,S,0,S,17,0.008337,0.79698,0.006644
13,48,6,2,0,0,1,,4,S,0,S,17,0.788742,0.013359,0.010537
13,49,6,5,0,0,1,,1,S,0,S,20,0.761576,0.037317,0.02842
13,50,4,6,0,0,1,,2,S,0,S,25,0.028736,0.775707,0.02229
13,51,1,9,0,0,1,,8,L,0,S,15,0.002689,0.796303,0.002142
13,52,4,5,0,0,1,,1,S,0,S,22,0.016822,0.788785,0.013269
13,53,7,2,0,0,1,,5,S,0,S,16,0.765963,0.031584,0.024193
13,54,2,1,0,0,1,,1,S,0,S,17,0.750739,0.043563,0.032705
13,55,8,2,0,0,1,,6,S,0,S,15,0.793035,0.00522,0.00414
13,56,7,1,0,0,1,,6,S,0,S,14,0.750088,0.035745,0.026812
13,57,5,2,0,0,1,,3,S,0,S,20,0.795495,0.014031,0.011162
13,58,5,6,0,0,1,,1,S,0,S,24,0.043801,0.759744,0.033278
13,59,9,8,0,0,1,,1,S,0,S,21,0.792211,0.016245,0.012869
13,60,3,7,0,0,1,,4,S,0,S,16,0.01431,0.783941,0.011218
13,61,6,7,0,0,1,,1,S,0,S,20,0.041576,0.754715,0.031378
13,62,6,3,0,0,1,,3,S,0,S,18,0.797951,0.008227,0.006565
13,63,4,9,0,0,1,,5,S,0,S,17,0.012529,0.78889,0.009884
13,64,6,9,0,0,1,,3,S,0,S,20,0.011909,0.79418,0.009458
13,65,7,9,0,0,1,,2,S,0,S,21,0.016597,0.792484,0.013153
13,66,5,1,0,0,1,,4,S,0,S,16,0.781876,0.017775,0.013898
13,67,4,8,0,0,1,,4,S,0,S,16,0.01727,0.778532,0.013445
13,68,7,3,0,0,1,,4,S,0,S,17,0.781985,0.021822,0.017064
13,69,3,1,0,0,1,,2,S,0,S,17,0.771165,0.027787,0.021428
13,70,8,9,0,0,0,,1,S,0,S,19,0.775216,0.026301,0.020389
13,71,6,1,0,0,1,,5,S,0,S,15,0.785631,0.009843,0.007733
13,72,3,4,0,0,1,,1,S,0,S,20,0.040185,0.759495,0.03052
14,1,9,2,0,0,1,,7,L,0,S,14,0.789391,0.003756,0.002965
14,2,5,1,0,0,1,,4,S,0,S,14,0.792353,0.002426,0.001923
14,3,7,1,0,0,1,,6,S,0,S,13,0.750622,0.026815,0.020128
14,4,2,6,0,0,1,,4,S,0,S,16,0.007482,0.792705,0.005931
14,5,8,9,0,0,1,,1,S,0,S,17,0.019256,0.782615,0.01507
14,6,2,8,0,0,1,,6,S,0,S,14,0.026869,0.759555,0.020408
14,7,6,1,0,0,1,,5,S,0,S,14,0.789278,0.003219,0.002541
14,8,2,7,0,0,1,,5,S,0,S,17,0.007121,0.798773,0.005688
14,9,6,2,0,0,1,,4,S,0,S,15,0.765332,0.023746,0.018173
14,10,6,8,0,0,1,,2,S,0,S,17,0.021845,0.77546,0.01694
14,11,7,8,0,0,1,,1,S,0,S,18,0.036655,0.757354,0.027761
14,12,5,3,0,0,1,,2,S,0,S,14,0.772293,0.018847,0.014556
14,13,8,6,0,0,1,,2,S,0,S,18,0.76314,0.034638,0.026434
14,14,2,1,0,0,1,,1,S,0,S,16,0.799038,0.003432,0.002742
14,15,9,5,0,0,1,,4,S,0,S,16,0.752245,0.043116,0.032434
14,16,2,4,0,0,1,,2,S,0,S,16,0.026615,0.770513,0.020507
14,17,1,6,0,0,1,,5,S,0,S,13,0.025267,0.750273,0.018957
14,18,4,8,0,0,1,,4,S,0,S,14,0.008627,0.781068,0.006738
14,19,4,1,0,0,1,,3,S,0,S,17,0.792614,0.008657,0.006862
14,20,1,5,0,0,1,,4,S,0,S,14,0,0.797406,0
14,21,7,9,0,0,1,,2,S,0,S,16,0.006146,0.793188,0.004875
14,22,8,1,0,0,1,,7,L,0,S,13,0.77982,0.007082,0.005522
14,23,1,9,0,0,1,,8,L,0,S,12,0.012213,0.761047,0.009295
14,24,6,5,0,0,1,,1,S,0,S,26,0.758184,0.044733,0.033916
14,25,8,2,0,0,1,,6,S,0,S,14,0.779001,0.011093,0.008641
14,26,1,2,0,0,1,,1,S,0,S,16,0.033766,0.75336,0.025438
14,27,8,7,0,0,1,,1,S,0,S,17,0.796703,0.008848,0.007049
14,28,5,2,0,0,1,,3,S,0,S,15,0.768668,0.022893,0.017597
14,29,9,6,0,0,1,,3,S,0,S,17,0.750688,0.043476,0.032637
14,30,3,5,0,0,1,,2,S,0,S,19,0.038331,0.763803,0.029277
14,31,7,4,0,0,1,,3,S,0,S,20,0.76153,0.037084,0.02824
14,32,3,8,0,0,1,,5,S,0,S,16,0.004423,0.796619,0.003524
14,33,3,9,0,0,1,,6,S,0,S,14,0.022281,0.766774,0.017084
14,34,9,1,0,0,1,,8,L,0,S,13,0.787472,0.001877,0.001478
14,35,8,4,0,0,1,,4,S,0,S,17,0.768469,0.030554,0.023479
14,36,4,6,0,0,1,,2,S,0,S,15,0.01545,0.776568,0.011998
14,37,1,7,0,0,1,,6,S,0,S,14,0.003665,0.78794,0.002888
14,38,8,5,0,0,1,,3,S,0,S,17,0.775056,0.02675,0.020733
14,39,1,4,0,0,1,,3,S,0,S,14,0,0.795275,0
14,40,1,3,0,0,1,,2,S,0,S,19,0.014921,0.787247,0.011746
14,41,6,7,0,0,0,,1,S,0,S,22,0.771762,0.031989,0.024688
14,42,4,9,0,0,1,,5,S,0,S,13,0.011752,0.77211,0.009074
14,43,2,3,0,0,0,,1,S,0,S,16,0.757053,0.037468,0.028365
14,44,5,6,0,0,1,,1,S,0,S,22,0.038305,0.763013,0.029227
14,45,9,8,0,0,1,,1,S,0,S,32,0.780813,0.026551,0.020732
14,46,6,3,0,0,1,,3,S,0,S,14,0.769213,0.019585,0.015065
14,47,3,1,0,0,1,,2,S,0,S,14,0.760395,0.026588,0.020217
14,48,8,3,0,0,1,,5,S,0,S,13,0.765117,0.019137,0.014642
14,49,7,3,0,0,1,,4,S,0,S,14,0.786356,0.005534,0.004352
14,50,5,4,0,0,1,,1,S,0,S,28,0.752164,0.050252,0.037798
14,51,2,9,0,0,1,,7,L,0,S,13,0.025016,0.756777,0.018932
14,52,3,6,0,0,1,,3,S,0,S,18,0.025654,0.774034,0.019857
14,53,9,4,0,0,1,,5,S,0,S,17,0.795468,0.009898,0.007874
14,54,3,7,0,0,1,,4,S,0,S,21,0.016309,0.792458,0.012925
14,55,7,2,0,0,1,,5,S,0,S,15,0.789051,0.004481,0.003535
14,56,4,2,0,0,1,,2,S,0,S,26,0.761075,0.03766,0.028662
14,57,6,4,0,0,1,,2,S,0,S,27,0.75118,0.048875,0.036714
14,58,5,9,0,0,1,,4,S,0,S,15,0.014863,0.781876,0.011621
14,59,4,7,0,0,1,,3,S,0,S,16,0.005982,0.795158,0.004757
14,60,5,7,0,0,0,,2,S,0,S,22,0.769202,0.036024,0.02771
14,61,9,7,0,0,1,,2,S,0,S,16,0.771157,0.027566,0.021258
14,62,3,2,0,0,1,,1,S,0,S,16,0.763765,0.029141,0.022257
14,63,3,4,0,0,1,,1,S,0,S,19,0.036734,0.763961,0.028063
14,64,6,9,0,0,1,,3,S,0,S,15,0.017409,0.776425,0.013517
14,65,1,8,0,0,1,,7,L,0,S,13,0,0.78551,0
14,66,4,3,0,0,1,,1,S,0,S,18,0.777272,0.023489,0.018257
14,67,5,8,0,0,1,,3,S,0,S,17,0.01784,0.782854,0.013966
14,68,4,5,0,0,1,,1,S,0,S,15,0.029608,0.76213,0.022565
14,69,7,5,0,0,1,,2,S,0,S,20,0.772987,0.029474,0.022783
14,70,2,5,0,0,1,,3,S,0,S,16,0.026541,0.77234,0.020498
14,71,9,3,0,0,1,,6,S,0,S,13,0.773596,0.013316,0.010301
14,72,7,6,0,0,1,,1,S,0,S,24,0.774981,0.026294,0.020377
15,1,8,2,0,0,1,,6,S,0,S,14,0.760186,0.026664,0.020269
15,2,6,7,0,0,1,,1,S,0,S,20,0.012053,0.791464,0.009539
15,3,8,5,0,0,1,,3,S,0,S,18,0.75253,0.043015,0.03237
15,4,1,8,0,0,1,,7,L,0,S,14,0.019553,0.768963,0.015036
15,5,2,1,0,0,1,,1,S,0,S,20,0.765384,0.032281,0.024707
15,6,8,3,0,0,1,,5,S,0,S,14,0.76378,0.024084,0.018395
15,7,7,3,0,0,1,,4,S,0,S,14,0.757234,0.031817,0.024093
15,8,4,7,0,0,1,,3,S,0,S,15,0.017092,0.776293,0.013269
15,9,2,3,0,0,1,,1,S,0,S,19,0.025135,0.777622,0.019546
15,10,4,8,0,0,1,,4,S,0,S,15,0.024359,0.767043,0.018685
15,11,4,1,0,0,1,,3,S,0,S,16,0.773048,0.021395,0.016539
15,12,6,9,0,0,1,,3,S,0,S,17,0.036832,0.758866,0.027951
15,13,5,8,0,0,1,,3,S,0,S,15,0.037266,0.751088,0.02799
15,14,5,2,0,0,1,,3,S,0,S,19,0.788472,0.017888,0.014104
15,15,1,2,0,0,1,,1,S,0,S,20,0.047862,0.751971,0.035991
15,16,9,7,0,0,1,,2,S,0,S,21,0.779218,0.023177,0.01806
15,17,9,3,0,0,1,,6,S,0,S,14,0.779162,0.01227,0.00956
15,18,7,5,0,0,1,,2,S,0,S,19,0.75308,0.047047,0.03543
15,19,6,8,0,0,1,,2,S,0,S,21,0.010304,0.794567,0.008187
15,20,3,5,0,0,1,,2,S,0,S,16,0.011428,0.788253,0.009008
15,21,4,3,0,0,1,,1,S,0,S,20,0.789807,0.017322,0.013681
15,22,2,6,0,0,1,,4,S,0,S,14,0.011434,0.7781,0.008897
15,23,3,4,0,0,1,,1,S,0,S,18,0.010173,0.791735,0.008054
15,24,7,9,0,0,1,,2,S,0,S,19,0.020935,0.78733,0.016483
15,25,1,9,0,0,1,,8,L,0,S,14,0,0.803306,0
15,26,7,4,0,0,1,,3,S,0,S,17,0.788227,0.013997,0.011033
15,27,9,8,0,0,1,,1,S,0,S,20,0.78108,0.021139,0.016511
15,28,8,1,0,0,1,,7,L,0,S,13,0.754964,0.022853,0.017253
15,29,5,9,0,0,1,,4,S,0,S,15,0.000607,0.801178,0.000486
15,30,7,8,0,0,1,,1,S,0,S,33,0.028356,0.779392,0.0221
15,31,7,6,0,0,1,,1,S,0,S,27,0.77136,0.034787,0.026833
15,32,8,4,0,0,1,,4,S,0,S,16,0.757253,0.033184,0.025128
15,33,1,3,0,0,1,,2,S,0,S,21,0.030501,0.774957,0.023637
15,34,6,2,0,0,1,,4,S,0,S,15,0.769539,0.022725,0.017488
15,35,6,1,0,0,1,,5,S,0,S,14,0.779509,0.008553,0.006667
15,36,5,4,0,0,0,,1,S,0,S,19,0.03186,0.767412,0.02445
15,37,3,2,0,0,1,,1,S,0,S,22,0.791899,0.016022,0.012687
15,38,4,6,0,0,1,,2,S,0,S,15,0.028211,0.762365,0.021507
15,39,5,7,0,0,1,,2,S,0,S,15,0.029081,0.761545,0.022146
15,40,8,6,0,0,1,,2,S,0,S,22,0.781088,0.022548,0.017612
15,41,2,9,0,0,1,,7,L,0,S,13,0.022656,0.759388,0.017205
15,42,5,6,0,0,1,,1,S,0,S,16,0.005514,0.7958,0.004388
15,43,3,6,0,0,1,,3,S,0,S,15,0.019706,0.772661,0.015226
15,44,9,1,0,0,1,,8,L,0,S,13,0.766214,0.014411,0.011042
15,45,8,9,0,0,1,,1,S,0,S,20,0.045217,0.754153,0.034101
15,46,3,8,0,0,1,,5,S,0,S,15,0.016168,0.776932,0.012561
15,47,4,2,0,0,1,,2,S,0,S,20,0.770349,0.032684,0.025178
15,48,1,7,0,0,1,,6,S,0,S,14,0.014427,0.775523,0.011189
15,49,6,4,0,0,1,,2,S,0,S,18,0.761954,0.032666,0.02489
15,50,2,7,0,0,1,,5,S,0,S,14,0.004463,0.786799,0.003512
15,51,1,6,0,0,1,,5,S,0,S,14,0.02221,0.765784,0.017008
15,52,3,7,0,0,1,,4,S,0,S,15,0.009449,0.785467,0.007422
15,53,4,9,0,0,1,,5,S,0,S,14,0.027217,0.761292,0.02072
15,54,2,4,0,0,1,,2,S,0,S,15,0.033268,0.753331,0.025062
15,55,9,4,0,0,1,,5,S,0,S,16,0.7859,0.010854,0.00853
15,56,5,3,0,0,1,,2,S,0,S,18,0.754358,0.043916,0.033128
15,57,9,5,0,0,1,,4,S,0,S,17,0.757156,0.037677,0.028527
15,58,6,5,0,0,1,,1,S,0,S,25,0.767682,0.034687,0.026628
15,59,3,1,0,0,1,,2,S,0,S,16,0.755305,0.034647,0.026169
15,60,1,4,0,0,1,,3,S,0,S,16,0.01608,0.781021,0.012558
15,61,3,9,0,0,1,,6,S,0,S,14,0.020955,0.768775,0.01611
15,62,9,2,0,0,1,,7,L,0,S,14,0.775926,0.014587,0.011318
15,63,2,5,0,0,1,,3,S,0,S,14,0.029336,0.756043,0.022179
15,64,7,2,0,0,1,,5,S,0,S,14,0.753364,0.034619,0.02608
15,65,1,5,0,0,1,,4,S,0,S,15,0.006236,0.792617,0.004943
15,66,5,1,0,0,1,,4,S,0,S,16,0.794362,0.005273,0.004189
15,67,6,3,0,0,1,,3,S,0,S,15,0.774117,0.019356,0.014984
15,68,8,7,0,0,1,,1,S,0,S,26,0.76474,0.036262,0.027731
15,69,2,8,0,0,1,,6,S,0,S,14,0.009069,0.780908,0.007082
15,70,4,5,0,0,1,,1,S,0,S,16,0.022432,0.774934,0.017383
15,71,9,6,0,0,1,,3,S,0,S,19,0.755606,0.040676,0.030735
15,72,7,1,0,0,1,,6,S,0,S,13,0.751616,0.027926,0.02099
16,1,1,3,0,0,1,,2,S,0,S,18,0.025332,0.778799,0.019729
16,2,7,3,0,0,1,,4,S,0,S,17,0.786257,0.018432,0.014492
16,3,5,8,0,0,1,,3,S,0,S,16,0.02406,0.774661,0.018638
16,4,4,2,0,0,1,,2,S,0,S,19,0.753056,0.045576,0.034321
16,5,6,2,0,0,1,,4,S,0,S,16,0.769921,0.026208,0.020178
16,6,2,4,0,0,1,,2,S,0,S,20,0.032784,0.768881,0.025207
16,7,2,7,0,0,1,,5,S,0,S,14,0.014358,0.778972,0.011185
16,8,4,1,0,0,1,,3,S,0,S,15,0.766752,0.023835,0.018275
16,9,1,4,0,0,1,,3,S,0,S,17,0.027504,0.768248,0.02113
16,10,3,9,0,0,1,,6,S,0,S,16,0.010001,0.788807,0.007889
16,11,9,4,0,0,1,,5,S,0,S,16,0.773872,0.021919,0.016962
16,12,1,9,0,0,1,,8,L,0,S,15,0.003871,0.794593,0.003076
16,13,9,6,0,0,1,,3,S,0,S,18,0.755043,0.041489,0.031326
16,14,3,5,0,0,1,,2,S,0,S,19,0.034848,0.762988,0.026589
16,15,8,6,0,0,1,,2,S,0,S,16,0.792471,0.008141,0.006452
16,16,4,6,0,0,1,,2,S,0,S,17,0.033668,0.761762,0.025647
16,17,3,7,0,0,1,,4,S,0,S,14,0.01724,0.771636,0.013303
16,18,8,7,0,0,1,,1,S,0,S,28,0.791004,0.019195,0.015183
16,19,4,9,0,0,1,,5,S,0,S,16,0.023024,0.77394,0.017819
16,20,7,2,0,0,1,,5,S,0,S,16,0.78422,0.016288,0.012773
16,21,5,4,0,0,0,,1,S,0,S,29,0.021939,0.784459,0.01721
16,22,9,7,0,0,0,,2,S,0,S,17,0.044085,0.751626,0.033135
16,23,8,9,0,0,0,,1,S,0,S,17,0.794879,0.009423,0.00749
16,24,9,1,0,0,1,,8,L,0,S,13,0.760092,0.020832,0.015834
16,25,2,8,0,0,1,,6,S,0,S,15,0.030532,0.763538,0.023312
16,26,5,7,0,0,1,,2,S,0,S,14,0.03253,0.754428,0.024542
16,27,6,3,0,0,1,,3,S,0,S,17,0.767203,0.032174,0.024684
16,28,7,1,0,0,1,,6,S,0,S,14,0.781164,0.0095,0.007421
16,29,6,8,0,0,1,,2,S,0,S,18,0.042731,0.753806,0.032211
16,30,4,5,0,0,1,,1,S,0,S,20,0.04632,0.751596,0.034814
16,31,5,2,0,0,1,,3,S,0,S,18,0.758614,0.040808,0.030957
16,32,1,7,0,0,1,,6,S,0,S,13,0.027368,0.753086,0.02061
16,33,7,6,0,0,1,,1,S,0,S,33,0.786633,0.020909,0.016448
16,34,2,3,0,0,1,,1,S,0,S,24,0.029929,0.780864,0.023371
16,35,6,4,0,0,1,,2,S,0,S,19,0.791995,0.010829,0.008577
16,36,5,1,0,0,1,,4,S,0,S,15,0.782999,0.012073,0.009453
16,37,4,3,0,0,1,,1,S,0,S,26,0.77955,0.029528,0.023018
16,38,2,5,0,0,1,,3,S,0,S,19,0.026732,0.777348,0.02078
16,39,9,2,0,0,1,,7,L,0,S,15,0.792514,0.00716,0.005674
16,40,2,1,0,0,1,,1,S,0,S,15,0.75434,0.035062,0.026448
16,41,1,6,0,0,1,,5,S,0,S,15,0.031003,0.758312,0.02351
16,42,6,1,0,0,1,,5,S,0,S,14,0.772939,0.014609,0.011292
16,43,3,6,0,0,1,,3,S,0,S,17,0.014615,0.784186,0.011461
16,44,7,5,0,0,1,,2,S,0,S,19,0.788982,0.016234,0.012808
16,45,8,2,0,0,1,,6,S,0,S,14,0.795519,0.001083,0.000861
16,46,7,8,0,0,1,,1,S,0,S,19,0.023961,0.780876,0.01871
16,47,1,2,0,0,1,,1,S,0,S,21,0.019444,0.787712,0.015316
16,48,3,4,0,0,1,,1,S,0,S,20,0.042776,0.752006,0.032168
16,49,2,9,0,0,1,,7,L,0,S,16,0.005716,0.798001,0.004562
16,50,7,4,0,0,1,,3,S,0,S,18,0.77134,0.027439,0.021164
16,51,8,1,0,0,1,,7,L,0,S,13,0.794932,0,0
16,52,6,5,0,0,1,,1,S,0,S,19,0.756985,0.040236,0.030458
16,53,5,6,0,0,1,,1,S,0,S,18,0.021803,0.780052,0.017008
16,54,1,5,0,0,1,,4,S,0,S,17,0.008702,0.794043,0.00691
16,55,3,1,0,0,1,,2,S,0,S,16,0.797144,0.001581,0.00126
16,56,8,4,0,0,1,,4,S,0,S,15,0.800607,0,0
16,57,9,8,0,0,1,,1,S,0,S,25,0.777582,0.030001,0.023328
16,58,6,7,0,0,1,,1,S,0,S,16,0.004968,0.796508,0.003957
16,59,5,9,0,0,1,,4,S,0,S,16,0.038988,0.754657,0.029423
16,60,7,9,0,0,1,,2,S,0,S,20,0.026687,0.777652,0.020754
16,61,8,5,0,0,1,,3,S,0,S,15,0.794107,0.004709,0.003739
16,62,3,2,0,0,1,,1,S,0,S,21,0.768131,0.03379,0.025955
16,63,9,5,0,0,1,,4,S,0,S,16,0.760538,0.033866,0.025756
16,64,4,7,0,0,1,,3,S,0,S,14,0.024313,0.764068,0.018577
16,65,4,8,0,0,1,,4,S,0,S,16,0.010002,0.791426,0.007916
16,66,3,8,0,0,1,,5,S,0,S,15,0.034353,0.754768,0.025929
16,67,5,3,0,0,1,,2,S,0,S,21,0.752966,0.050091,0.037717
16,68,9,3,0,0,1,,6,S,0,S,15,0.763135,0.031588,0.024106
16,69,6,9,0,0,1,,3,S,0,S,19,0.039165,0.758954,0.029724
16,70,8,3,0,0,1,,5,S,0,S,14,0.776756,0.016981,0.01319
16,71,2,6,0,0,1,,4,S,0,S,17,0.009326,0.79476,0.007412
16,72,1,8,0,0,1,,7,L,0,S,14,0.031572,0.754735,0.023828
17,1,9,3,0,0,1,,6,S,0,S,15,0.773607,0.020895,0.016165
17,2,8,7,0,0,1,,1,S,0,S,16,0.75335,0.040265,0.030333
17,3,9,8,0,0,0,,1,S,0,S,21,0.012655,0.795152,0.010063
17,4,7,6,0,0,1,,1,S,0,S,19,0.764776,0.038459,0.029413
17,5,7,3,0,0,1,,4,S,0,S,16,0.759648,0.036206,0.027504
17,6,3,4,0,0,1,,1,S,0,S,16,0.02148,0.776925,0.016688
17,7,8,2,0,0,1,,6,S,0,S,14,0.773752,0.018266,0.014133
17,8,4,2,0,0,1,,2,S,0,S,19,0.759742,0.041895,0.031829
17,9,3,2,0,0,1,,1,S,0,S,24,0.75184,0.05093,0.038291
17,10,9,2,0,0,1,,7,L,0,S,14,0.779683,0.013386,0.010437
17,11,9,6,0,0,1,,3,S,0,S,17,0.798611,0.007077,0.005652
17,12,1,8,0,0,1,,7,L,0,S,12,0.02072,0.751232,0.015566
17,13,5,4,0,0,0,,1,S,0,S,32,0.028185,0.778545,0.021943
17,14,3,5,0,0,1,,2,S,0,S,20,0.02358,0.779356,0.018377
17,15,2,9,0,0,1,,7,L,0,S,14,0.026311,0.764014,0.020102
17,16,5,9,0,0,1,,4,S,0,S,16,0.034704,0.761815,0.026438
17,17,8,4,0,0,1,,4,S,0,S,17,0.78769,0.015147,0.011931
17,18,7,9,0,0,1,,2,S,0,S,18,0.032089,0.772603,0.024792
17,19,6,1,0,0,1,,5,S,0,S,13,0.757583,0.023939,0.018136
17,20,2,8,0,0,1,,6,S,0,S,14,0.012776,0.778514,0.009946
17,21,1,3,0,0,1,,2,S,0,S,14,0.022076,0.765619,0.016902
17,22,4,3,0,0,0,,1,S,0,S,21,0.016828,0.791678,0.013322
17,23,2,4,0,0,1,,2,S,0,S,16,0.041222,0.751328,0.030972
17,24,7,2,0,0,1,,5,S,0,S,15,0.791119,0.009632,0.00762
17,25,9,4,0,0,1,,5,S,0,S,16,0.753348,0.039574,0.029813
17,26,2,1,0,0,1,,1,S,0,S,16,0.759507,0.034967,0.026558
17,27,3,6,0,0,1,,3,S,0,S,16,0.016347,0.784628,0.012826
17,28,9,7,0,0,1,,2,S,0,S,16,0.766978,0.02927,0.02245
17,29,2,6,0,0,1,,4,S,0,S,16,0.035274,0.760171,0.026814
17,30,4,8,0,0,1,,4,S,0,S,14,0.019988,0.769807,0.015387
17,31,9,1,0,0,1,,8,L,0,S,13,0.769373,0.015289,0.011763
17,32,6,5,0,0,1,,1,S,0,S,15,0.769272,0.022062,0.016972
17,33,7,4,0,0,1,,3,S,0,S,19,0.776109,0.028421,0.022058
17,34,6,3,0,0,1,,3,S,0,S,15,0.750022,0.038876,0.029158
17,35,5,8,0,0,1,,3,S,0,S,16,0.008154,0.79234,0.006461
17,36,7,1,0,0,1,,6,S,0,S,14,0.794962,0.001884,0.001498
17,37,3,7,0,0,1,,4,S,0,S,16,0.030291,0.76613,0.023207
17,38,5,3,0,0,1,,2,S,0,S,18,0.757473,0.040114,0.030385
17,39,7,8,0,0,1,,1,S,0,S,17,0.022642,0.778954,0.017637
17,40,5,2,0,0,1,,3,S,0,S,16,0.788198,0.013123,0.010344
17,41,6,9,0,0,1,,3,S,0,S,21,0.041101,0.762774,0.031351
17,42,2,5,0,0,1,,3,S,0,S,22,0.031057,0.771096,0.023948
17,43,1,6,0,0,1,,5,S,0,S,13,0.027733,0.752467,0.020868
17,44,5,7,0,0,0,,2,S,0,S,25,0.759914,0.042946,0.032635
17,45,7,5,0,0,1,,2,S,0,S,16,0.785637,0.013847,0.010879
17,46,1,7,0,0,1,,6,S,0,S,14,0,0.797667,0
17,47,2,7,0,0,1,,5,S,0,S,17,0.015312,0.787586,0.01206
17,48,4,9,0,0,1,,5,S,0,S,14,0.034729,0.753783,0.026178
17,49,3,9,0,0,1,,6,S,0,S,14,0.016501,0.777051,0.012822
17,50,4,1,0,0,1,,3,S,0,S,16,0.781233,0.018501,0.014454
17,51,6,8,0,0,1,,2,S,0,S,19,0.017111,0.787226,0.01347
17,52,9,5,0,0,1,,4,S,0,S,15,0.789531,0.006644,0.005245
17,53,8,1,0,0,1,,7,L,0,S,13,0.765112,0.018804,0.014387
17,54,3,8,0,0,1,,5,S,0,S,14,0.004193,0.789988,0.003312
17,55,2,3,0,0,1,,1,S,0,S,19,0.038433,0.761794,0.029278
17,56,4,5,0,0,1,,1,S,0,S,27,0.018394,0.789082,0.014514
17,57,1,2,0,0,1,,1,S,0,S,15,0.031194,0.760228,0.023715
17,58,3,1,0,0,1,,2,S,0,S,17,0.781651,0.020081,0.015696
17,59,6,2,0,0,1,,4,S,0,S,14,0.763723,0.025395,0.019395
17,60,6,7,0,0,0,,1,S,0,S,17,0.781043,0.0201,0.015699
17,61,5,1,0,0,1,,4,S,0,S,14,0.759777,0.0274,0.020818
17,62,6,4,0,0,1,,2,S,0,S,17,0.764214,0.033019,0.025233
17,63,5,6,0,0,1,,1,S,0,S,26,0.050245,0.751835,0.037776
17,64,8,3,0,0,1,,5,S,0,S,15,0.764652,0.028178,0.021546
17,65,8,9,0,0,1,,1,S,0,S,24,0.02207,0.788934,0.017412
17,66,4,7,0,0,1,,3,S,0,S,17,0.035806,0.762392,0.027298
17,67,1,4,0,0,1,,3,S,0,S,14,0,0.801702,0
17,68,8,6,0,0,1,,2,S,0,S,17,0.783534,0.019396,0.015197
17,69,8,5,0,0,1,,3,S,0,S,15,0.781933,0.012864,0.010059
17,70,4,6,0,0,1,,2,S,0,S,17,0.016512,0.787559,0.013005
17,71,1,5,0,0,1,,4,S,0,S,15,0.001462,0.794741,0.001162
17,72,1,9,0,0,1,,8,L,0,S,13,0,0.800937,0
18,1,2,7,0,0,1,,5,S,0,S,13,0.021867,0.760609,0.016632
18,2,8,6,0,0,1,,2,S,0,S,18,0.785791,0.014609,0.01148
18,3,2,1,0,0,1,,1,S,0,S,18,0.761474,0.034096,0.025963
18,4,3,2,0,0,1,,1,S,0,S,23,0.794497,0.013284,0.010554
18,5,5,2,0,0,1,,3,S,0,S,17,0.795048,0.009029,0.007178
18,6,3,1,0,0,1,,2,S,0,S,16,0.795968,0.001193,0.000949
18,7,7,4,0,0,1,,3,S,0,S,18,0.781741,0.020117,0.015726
18,8,5,4,0,0,1,,1,S,0,S,19,0.793161,0.012915,0.010244
18,9,4,9,0,0,1,,5,S,0,S,16,0.006059,0.793456,0.004807
18,10,5,3,0,0,1,,2,S,0,S,16,0.785082,0.014015,0.011003
18,11,9,4,0,0,1,,5,S,0,S,16,0.77175,0.026432,0.020399
18,12,7,3,0,0,1,,4,S,0,S,16,0.799797,0.001785,0.001427
18,13,3,8,0,0,1,,5,S,0,S,16,0.012315,0.786646,0.009688
18,14,7,6,0,0,1,,1,S,0,S,27,0.791594,0.014432,0.011425
18,15,2,3,0,0,1,,1,S,0,S,20,0.013795,0.793862,0.010952
18,16,3,6,0,0,1,,3,S,0,S,17,0.02466,0.770573,0.019003
18,17,6,4,0,0,1,,2,S,0,S,21,0.781225,0.024909,0.019459
18,18,2,4,0,0,1,,2,S,0,S,16,0.026721,0.770513,0.020589
18,19,9,8,0,0,1,,1,S,0,S,24,0.784798,0.024615,0.019318
18,20,3,9,0,0,1,,6,S,0,S,14,0.03042,0.751411,0.022858
18,21,6,8,0,0,1,,2,S,0,S,17,0.040684,0.756025,0.030758
18,22,7,1,0,0,1,,6,S,0,S,14,0.775419,0.011512,0.008927
18,23,9,5,0,0,1,,4,S,0,S,17,0.783559,0.020268,0.015881
18,24,1,7,0,0,1,,6,S,0,S,13,0.02912,0.751844,0.021894
18,25,6,5,0,0,1,,1,S,0,S,31,0.75659,0.047702,0.036091
18,26,2,6,0,0,1,,4,S,0,S,15,0.012002,0.783242,0.009401
18,27,8,1,0,0,1,,7,L,0,S,13,0.759457,0.018563,0.014098
18,28,8,2,0,0,1,,6,S,0,S,15,0.788017,0.00877,0.006911
18,29,6,7,0,0,1,,1,S,0,S,15,0.026958,0.765602,0.020639
18,30,3,4,0,0,1,,1,S,0,S,21,0.024543,0.778869,0.019115
18,31,4,6,0,0,1,,2,S,0,S,22,0.023953,0.779885,0.018681
18,32,8,9,0,0,1,,1,S,0,S,19,0.041917,0.752382,0.031538
18,33,3,5,0,0,1,,2,S,0,S,19,0.013226,0.792271,0.010479
18,34,8,3,0,0,1,,5,S,0,S,14,0.758208,0.027273,0.020678
18,35,5,7,0,0,1,,2,S,0,S,16,0.014579,0.784207,0.011433
18,36,5,1,0,0,1,,4,S,0,S,14,0.767363,0.018264,0.014015
18,37,5,8,0,0,1,,3,S,0,S,19,0.022867,0.781275,0.017865
18,38,6,9,0,0,1,,3,S,0,S,15,0.029728,0.759906,0.02259
18,39,9,7,0,0,0,,2,S,0,S,18,0.018476,0.78608,0.014524
18,40,7,8,0,0,1,,1,S,0,S,20,0.031951,0.770147,0.024607
18,41,1,3,0,0,1,,2,S,0,S,22,0.020874,0.787504,0.016438
18,42,6,2,0,0,1,,4,S,0,S,18,0.796329,0.010384,0.008269
18,43,9,2,0,0,1,,7,L,0,S,15,0.774287,0.021844,0.016913
18,44,4,2,0,0,1,,2,S,0,S,17,0.77548,0.024941,0.019341
18,45,4,1,0,0,1,,3,S,0,S,14,0.759611,0.024545,0.018645
18,46,1,6,0,0,1,,5,S,0,S,15,0.024902,0.767496,0.019112
18,47,5,6,0,0,1,,1,S,0,S,25,0.02837,0.774887,0.021983
18,48,9,6,0,0,1,,3,S,0,S,19,0.785524,0.018635,0.014638
18,49,6,1,0,0,1,,5,S,0,S,15,0.800917,0,0
18,50,4,8,0,0,1,,4,S,0,S,18,0.030517,0.770609,0.023517
18,51,1,8,0,0,1,,7,L,0,S,14,0.031785,0.75638,0.024041
18,52,8,7,0,0,0,,1,S,0,S,19,0.034901,0.763617,0.026651
18,53,7,2,0,0,1,,5,S,0,S,16,0.765988,0.029085,0.022279
18,54,3,7,0,0,1,,4,S,0,S,14,0.028209,0.756387,0.021337
18,55,7,5,0,0,1,,2,S,0,S,19,0.757322,0.041694,0.031575
18,56,4,3,0,0,1,,1,S,0,S,16,0.770373,0.025953,0.019993
18,57,1,2,0,0,1,,1,S,0,S,19,0.017439,0.790131,0.013779
18,58,1,5,0,0,1,,4,S,0,S,16,0.017777,0.78391,0.013936
18,59,9,1,0,0,1,,8,L,0,S,13,0.753252,0.025405,0.019136
18,60,2,9,0,0,1,,7,L,0,S,13,0.02349,0.75651,0.017771
18,61,9,3,0,0,1,,6,S,0,S,15,0.798498,0.002189,0.001748
18,62,7,9,0,0,1,,2,S,0,S,16,0.033718,0.756681,0.025514
18,63,1,9,0,0,1,,8,L,0,S,14,0,0.801111,0
18,64,6,3,0,0,1,,3,S,0,S,16,0.750716,0.041679,0.031289
18,65,8,4,0,0,1,,4,S,0,S,16,0.792153,0.007928,0.00628
18,66,2,8,0,0,1,,6,S,0,S,14,0.021504,0.768889,0.016535
18,67,1,4,0,0,1,,3,S,0,S,17,0.01161,0.793326,0.009211
18,68,2,5,0,0,1,,3,S,0,S,15,0.037472,0.753999,0.028254
18,69,4,5,0,0,0,,1,S,0,S,23,0.787833,0.021102,0.016625
18,70,5,9,0,0,1,,4,S,0,S,16,0.017857,0.777898,0.013891
18,71,4,7,0,0,1,,3,S,0,S,16,0.002978,0.79944,0.002381
18,72,8,5,0,0,1,,3,S,0,S,16,0.761878,0.032561,0.024808
19,1,9,3,0,0,1,,6,S,0,S,14,0.792347,0.000922,0.000731
19,2,9,2,0,0,1,,7,L,0,S,13,0.760724,0.019521,0.01485
19,3,9,5,0,0,1,,4,S,0,S,14,0.755301,0.030589,0.023104
19,4,8,4,0,0,1,,4,S,0,S,15,0.760649,0.03118,0.023717
19,5,6,1,0,0,1,,5,S,0,S,14,0.778949,0.012573,0.009794
19,6,8,9,0,0,0,,1,S,0,S,20,0.794895,0.014423,0.011465
19,7,1,9,0,0,1,,8,L,0,S,13,0.015137,0.769506,0.011648
19,8,2,4,0,0,1,,2,S,0,S,16,0.025408,0.773439,0.019651
19,9,7,5,0,0,1,,2,S,0,S,15,0.756723,0.032147,0.024326
19,10,6,8,0,0,1,,2,S,0,S,18,0.023316,0.77976,0.018181
19,11,5,3,0,0,1,,2,S,0,S,16,0.765839,0.029838,0.022851
19,12,3,9,0,0,1,,6,S,0,S,15,0.023481,0.769312,0.018064
19,13,1,4,0,0,1,,3,S,0,S,14,0.031117,0.753759,0.023455
19,14,9,8,0,0,0,,1,S,0,S,23,0.030751,0.773821,0.023796
19,15,9,7,0,0,1,,2,S,0,S,19,0.790051,0.017039,0.013461
19,16,5,1,0,0,1,,4,S,0,S,16,0.796259,0.006399,0.005095
19,17,4,9,0,0,1,,5,S,0,S,14,0.032199,0.754049,0.02428
19,18,3,2,0,0,1,,1,S,0,S,17,0.785927,0.012899,0.010138
19,19,7,2,0,0,1,,5,S,0,S,14,0.781903,0.007118,0.005566
19,20,9,1,0,0,1,,8,L,0,S,13,0.752861,0.026488,0.019942
19,21,1,2,0,0,1,,1,S,0,S,19,0.014576,0.78821,0.011489
19,22,9,6,0,0,1,,3,S,0,S,17,0.760847,0.032046,0.024382
19,23,6,5,0,0,1,,1,S,0,S,15,0.765279,0.027823,0.021293
19,24,5,9,0,0,1,,4,S,0,S,16,0.036644,0.759548,0.027833
19,25,6,9,0,0,1,,3,S,0,S,28,0.033464,0.773729,0.025892
19,26,5,2,0,0,1,,3,S,0,S,15,0.764318,0.027355,0.020908
19,27,5,6,0,0,1,,1,S,0,S,18,0.025834,0.773293,0.019977
19,28,8,5,0,0,1,,3,S,0,S,14,0.75198,0.034566,0.025993
19,29,1,3,0,0,1,,2,S,0,S,17,0.013345,0.787246,0.010506
19,30,8,1,0,0,1,,7,L,0,S,13,0.751191,0.029094,0.021855
19,31,2,3,0,0,1,,1,S,0,S,25,0.022987,0.786054,0.018069
19,32,7,3,0,0,1,,4,S,0,S,14,0.754642,0.028571,0.021561
19,33,8,3,0,0,1,,5,S,0,S,14,0.790548,0.003647,0.002883
19,34,3,7,0,0,1,,4,S,0,S,15,0.02513,0.768664,0.019316
19,35,8,7,0,0,1,,1,S,0,S,19,0.766294,0.037641,0.028844
19,36,3,1,0,0,1,,2,S,0,S,17,0.75483,0.038549,0.029098
19,37,4,8,0,0,1,,4,S,0,S,14,0.000635,0.794488,0.000504
19,38,6,7,0,0,0,,1,S,0,S,36,0.770946,0.037317,0.028769
19,39,3,8,0,0,1,,5,S,0,S,14,0.020713,0.767311,0.015893
19,40,2,7,0,0,1,,5,S,0,S,14,0.017067,0.778144,0.01328
19,41,5,4,0,0,1,,1,S,0,S,26,0.776031,0.030928,0.024001
19,42,4,7,0,0,1,,3,S,0,S,14,0.033465,0.753854,0.025228
19,43,1,6,0,0,1,,5,S,0,S,14,0,0.794919,0
19,44,3,4,0,0,1,,1,S,0,S,19,0.025394,0.775395,0.019691
19,45,3,6,0,0,1,,3,S,0,S,16,0.02514,0.766022,0.019258
19,46,6,4,0,0,1,,2,S,0,S,16,0.75799,0.035777,0.027118
19,47,2,6,0,0,1,,4,S,0,S,15,0.005307,0.792263,0.004204
19,48,5,8,0,0,1,,3,S,0,S,15,0.016914,0.780286,0.013198
19,49,7,4,0,0,1,,3,S,0,S,17,0.796074,0.005615,0.00447
19,50,2,1,0,0,1,,1,S,0,S,23,0.781092,0.027009,0.021096
19,51,8,6,0,0,1,,2,S,0,S,18,0.79629,0.007237,0.005763
19,52,7,6,0,0,1,,1,S,0,S,21,0.788015,0.01339,0.010552
19,53,1,8,0,0,1,,7,L,0,S,13,0,0.795764,0
19,54,4,6,0,0,1,,2,S,0,S,15,0.025308,0.763324,0.019319
19,55,1,7,0,0,1,,6,S,0,S,13,0.015771,0.770011,0.012144
19,56,5,7,0,0,1,,2,S,0,S,16,0.039687,0.757207,0.030051
19,57,6,2,0,0,1,,4,S,0,S,14,0.788542,0.004131,0.003257
19,58,4,1,0,0,1,,3,S,0,S,20,0.79047,0.015088,0.011927
19,59,9,4,0,0,1,,5,S,0,S,15,0.76564,0.025831,0.019778
19,60,7,8,0,0,1,,1,S,0,S,18,0.022209,0.778036,0.017279
19,61,4,3,0,0,1,,1,S,0,S,23,0.788242,0.017877,0.014091
19,62,4,2,0,0,1,,2,S,0,S,18,0.755688,0.039263,0.029671
19,63,7,1,0,0,1,,6,S,0,S,14,0.772109,0.015682,0.012108
19,64,1,5,0,0,1,,4,S,0,S,15,0.025039,0.767627,0.01922
19,65,8,2,0,0,1,,6,S,0,S,13,0.759352,0.021879,0.016614
19,66,4,5,0,0,1,,1,S,0,S,19,0.038926,0.760573,0.029606
19,67,7,9,0,0,1,,2,S,0,S,26,0.042588,0.758692,0.032311
19,68,2,9,0,0,1,,7,L,0,S,14,0.01602,0.778107,0.012465
19,69,6,3,0,0,1,,3,S,0,S,14,0.761888,0.025234,0.019226
19,70,2,8,0,0,1,,6,S,0,S,13,0.024185,0.760104,0.018383
19,71,3,5,0,0,1,,2,S,0,S,28,0.023957,0.782363,0.018743
19,72,2,5,0,0,1,,3,S,0,S,18,0.014161,0.793482,0.011237
20,1,4,7,0,0,1,,3,S,0,S,18,0.026943,0.772058,0.020801
20,2,1,5,0,0,1,,4,S,0,S,15,0.0062,0.790704,0.004902
20,3,9,5,0,0,1,,4,S,0,S,18,0.797332,0.007682,0.006125
20,4,2,6,0,0,1,,4,S,0,S,17,0.012409,0.792611,0.009836
20,5,1,4,0,0,1,,3,S,0,S,15,0.021112,0.770019,0.016257
20,6,5,6,0,0,1,,1,S,0,S,24,0.017813,0.792609,0.014119
20,7,6,3,0,0,1,,3,S,0,S,18,0.782313,0.019381,0.015162
20,8,6,9,0,0,1,,3,S,0,S,18,0.013657,0.790252,0.010793
20,9,2,3,0,0,1,,1,S,0,S,22,0.023452,0.783761,0.018381
20,10,9,4,0,0,1,,5,S,0,S,17,0.783183,0.016111,0.012618
20,11,9,8,0,0,1,,1,S,0,S,28,0.761041,0.039707,0.030218
20,12,4,3,0,0,1,,1,S,0,S,20,0.777465,0.025838,0.020088
20,13,6,2,0,0,1,,4,S,0,S,15,0.78476,0.010628,0.00834
20,14,8,2,0,0,1,,6,S,0,S,14,0.76598,0.023937,0.018335
20,15,5,8,0,0,1,,3,S,0,S,18,0.03306,0.763673,0.025247
20,16,7,4,0,0,1,,3,S,0,S,18,0.79647,0.007106,0.005659
20,17,5,9,0,0,1,,4,S,0,S,17,0.037174,0.760398,0.028267
20,18,3,4,0,0,1,,1,S,0,S,16,0.025138,0.769161,0.019335
20,19,7,1,0,0,1,,6,S,0,S,14,0.768187,0.021936,0.016851
20,20,3,5,0,0,1,,2,S,0,S,16,0.004774,0.796641,0.003803
20,21,1,9,0,0,1,,8,L,0,S,14,0,0.80238,0
20,22,2,7,0,0,1,,5,S,0,S,16,0.019891,0.77789,0.015473
20,23,3,9,0,0,1,,6,S,0,S,14,0.016671,0.775013,0.01292
20,24,9,1,0,0,1,,8,L,0,S,14,0.780883,0.012171,0.009504
20,25,9,7,0,0,1,,2,S,0,S,21,0.774369,0.029003,0.022459
20,26,1,8,0,0,1,,7,L,0,S,14,0.00421,0.78705,0.003314
20,27,4,6,0,0,1,,2,S,0,S,20,0.0195,0.786749,0.015342
20,28,7,9,0,0,1,,2,S,0,S,20,0.044755,0.755774,0.033825
20,29,6,8,0,0,1,,2,S,0,S,19,0.013317,0.788104,0.010495
20,30,4,9,0,0,1,,5,S,0,S,16,0.039434,0.753178,0.029701
20,31,2,5,0,0,1,,3,S,0,S,18,0.01069,0.794016,0.008488
20,32,8,4,0,0,1,,4,S,0,S,18,0.784848,0.017802,0.013972
20,33,2,1,0,0,1,,1,S,0,S,17,0.777663,0.024015,0.018676
20,34,6,1,0,0,1,,5,S,0,S,15,0.784283,0.012007,0.009417
20,35,3,8,0,0,1,,5,S,0,S,14,0.027581,0.757114,0.020882
20,36,2,9,0,0,1,,7,L,0,S,15,0.021072,0.774564,0.016322
20,37,3,6,0,0,1,,3,S,0,S,15,0.021355,0.774506,0.016539
20,38,5,3,0,0,1,,2,S,0,S,18,0.771764,0.029315,0.022625
20,39,8,9,0,0,1,,1,S,0,S,20,0.014291,0.795761,0.011372
20,40,5,1,0,0,1,,4,S,0,S,15,0.782146,0.015085,0.011799
20,41,6,7,0,0,1,,1,S,0,S,20,0.0419,0.755293,0.031647
20,42,8,1,0,0,1,,7,L,0,S,14,0.765736,0.025112,0.019229
20,43,1,2,0,0,1,,1,S,0,S,22,0.014229,0.793822,0.011296
20,44,8,3,0,0,1,,5,S,0,S,16,0.755345,0.039559,0.029881
20,45,4,5,0,0,1,,1,S,0,S,23,0.021058,0.783794,0.016505
20,46,7,2,0,0,1,,5,S,0,S,14,0.768333,0.020841,0.016013
20,47,4,8,0,0,1,,4,S,0,S,17,0.027247,0.76758,0.020914
20,48,1,7,0,0,1,,6,S,0,S,14,0.014131,0.775901,0.010964
20,49,9,3,0,0,1,,6,S,0,S,16,0.78726,0.013137,0.010342
20,50,8,5,0,0,1,,3,S,0,S,19,0.782409,0.02224,0.0174
20,51,7,8,0,0,1,,1,S,0,S,23,0.032633,0.768787,0.025088
20,52,3,7,0,0,1,,4,S,0,S,15,0.004287,0.793992,0.003404
20,53,4,2,0,0,1,,2,S,0,S,15,0.754734,0.034324,0.025906
20,54,2,4,0,0,1,,2,S,0,S,19,0.016415,0.786736,0.012914
20,55,1,3,0,0,1,,2,S,0,S,16,0.00946,0.791492,0.007487
20,56,8,6,0,0,1,,2,S,0,S,21,0.79461,0.016393,0.013026
20,57,8,7,0,0,1,,1,S,0,S,35,0.782317,0.026191,0.02049
20,58,3,2,0,0,1,,1,S,0,S,21,0.763293,0.038736,0.029567
20,59,6,4,0,0,1,,2,S,0,S,20,0.764844,0.032803,0.025089
20,60,2,8,0,0,1,,6,S,0,S,15,0.036439,0.750891,0.027362
20,61,9,2,0,0,1,,7,L,0,S,14,0.780864,0.011225,0.008765
20,62,6,5,0,0,1,,1,S,0,S,23,0.777207,0.025851,0.020092
20,63,7,5,0,0,1,,2,S,0,S,18,0.752782,0.042947,0.03233
20,64,3,1,0,0,1,,2,S,0,S,22,0.789146,0.019732,0.015571
20,65,4,1,0,0,1,,3,S,0,S,15,0.753603,0.036252,0.02732
20,66,5,4,0,0,1,,1,S,0,S,21,0.785466,0.018689,0.014679
20,67,7,6,0,0,1,,1,S,0,S,20,0.780617,0.025437,0.019856
20,68,7,3,0,0,1,,4,S,0,S,16,0.762815,0.032297,0.024636
20,69,5,2,0,0,1,,3,S,0,S,15,0.78275,0.013602,0.010647
20,70,1,6,0,0,1,,5,S,0,S,14,0.027379,0.76102,0.020836
20,71,9,6,0,0,1,,3,S,0,S,18,0.752143,0.045806,0.034452
20,72,5,7,0,0,1,,2,S,0,S,20,0.016415,0.789361,0.012957
21,1,2,1,0,0,1,,1,S,0,S,20,0.781257,0.019749,0.015429
21,2,1,9,0,0,1,,8,L,0,S,13,0.005413,0.783133,0.004239
21,3,1,7,0,0,1,,6,S,0,S,13,0.025811,0.755371,0.019497
21,4,7,6,0,0,0,,1,S,0,S,19,0.025673,0.776675,0.019939
21,5,7,5,0,0,1,,2,S,0,S,21,0.769409,0.031899,0.024544
21,6,2,9,0,0,1,,7,L,0,S,14,0.026725,0.757633,0.020247
21,7,3,6,0,0,1,,3,S,0,S,15,0,0.800579,0
21,8,3,2,0,0,1,,1,S,0,S,17,0.790299,0.009039,0.007143
21,9,6,8,0,0,0,,2,S,0,S,24,0.758042,0.046438,0.035202
21,10,9,7,0,0,1,,2,S,0,S,16,0.790162,0.008753,0.006916
21,11,8,9,0,0,0,,1,S,0,S,21,0.753372,0.046727,0.035203
21,12,6,1,0,0,1,,5,S,0,S,14,0.752255,0.033495,0.025197
21,13,1,6,0,0,1,,5,S,0,S,13,0.004282,0.785012,0.003361
21,14,7,4,0,0,1,,3,S,0,S,17,0.798717,0.005945,0.004748
21,15,2,8,0,0,1,,6,S,0,S,15,0.033784,0.754571,0.025493
21,16,5,3,0,0,0,,2,S,0,S,30,0.024031,0.78645,0.018899
21,17,4,6,0,0,1,,2,S,0,S,17,0.021703,0.779983,0.016928
21,18,8,1,0,0,1,,7,L,0,S,14,0.80131,0,0
21,19,8,6,0,0,1,,2,S,0,S,22,0.780944,0.025655,0.020035
21,20,9,6,0,0,1,,3,S,0,S,17,0.757647,0.03757,0.028465
21,21,8,7,0,0,1,,1,S,0,S,17,0.752993,0.04144,0.031204
21,22,1,3,0,0,1,,2,S,0,S,14,0.013729,0.777925,0.01068
21,23,8,4,0,0,1,,4,S,0,S,15,0.783274,0.014259,0.011169
21,24,9,8,0,0,1,,1,S,0,S,15,0.756651,0.033596,0.02542
21,25,3,8,0,0,1,,5,S,0,S,16,0.011764,0.787466,0.009264
21,26,2,4,0,0,1,,2,S,0,S,18,0.026058,0.773267,0.02015
21,27,4,9,0,0,1,,5,S,0,S,17,0.026078,0.773988,0.020184
21,28,5,8,0,0,1,,3,S,0,S,19,0.031821,0.774303,0.024639
21,29,7,1,0,0,1,,6,S,0,S,14,0.754761,0.029544,0.022298
21,30,9,1,0,0,1,,8,L,0,S,13,0.775205,0.008895,0.006896
21,31,4,7,0,0,1,,3,S,0,S,20,0.04183,0.758039,0.031709
21,32,5,1,0,0,1,,4,S,0,S,15,0.758635,0.033839,0.025672
21,33,5,2,0,0,1,,3,S,0,S,15,0.799338,0.001381,0.001104
21,34,6,3,0,0,1,,3,S,0,S,19,0.788511,0.017401,0.013721
21,35,5,6,0,0,1,,1,S,0,S,16,0.027475,0.772334,0.02122
21,36,2,6,0,0,1,,4,S,0,S,14,0.024893,0.760466,0.018931
21,37,6,5,0,0,1,,1,S,0,S,22,0.753101,0.047832,0.036023
21,38,6,9,0,0,1,,3,S,0,S,18,0.042736,0.755967,0.032307
21,39,8,2,0,0,1,,6,S,0,S,13,0.770188,0.013182,0.010153
21,40,2,7,0,0,1,,5,S,0,S,15,0.02667,0.761722,0.020315
21,41,9,2,0,0,1,,7,L,0,S,13,0.793284,0,0
21,42,2,3,0,0,1,,1,S,0,S,17,0.004581,0.79628,0.003648
21,43,7,2,0,0,1,,5,S,0,S,14,0.784203,0.006347,0.004977
21,44,3,4,0,0,1,,1,S,0,S,19,0.026142,0.775681,0.020278
21,45,3,5,0,0,1,,2,S,0,S,16,0.020855,0.773848,0.016138
21,46,5,7,0,0,1,,2,S,0,S,18,0.043271,0.756021,0.032714
21,47,9,4,0,0,1,,5,S,0,S,14,0.774535,0.01599,0.012385
21,48,1,5,0,0,1,,4,S,0,S,14,0,0.798682,0
21,49,7,8,0,0,0,,1,S,0,S,22,0.768474,0.034946,0.026855
21,50,9,5,0,0,1,,4,S,0,S,15,0.760573,0.029,0.022057
21,51,4,3,0,0,1,,1,S,0,S,22,0.784765,0.021794,0.017103
21,52,3,1,0,0,1,,2,S,0,S,19,0.793551,0.009863,0.007827
21,53,1,2,0,0,1,,1,S,0,S,20,0.011294,0.795536,0.008985
21,54,5,4,0,0,1,,1,S,0,S,19,0.755049,0.04725,0.035676
21,55,7,3,0,0,1,,4,S,0,S,18,0.761036,0.03567,0.027146
21,56,7,9,0,0,1,,2,S,0,S,19,0.033625,0.766176,0.025763
21,57,9,3,0,0,1,,6,S,0,S,15,0.791776,0.004821,0.003817
21,58,6,7,0,0,1,,1,S,0,S,30,0.048611,0.753944,0.03665
21,59,6,4,0,0,1,,2,S,0,S,17,0.789727,0.015268,0.012058
21,60,4,5,0,0,1,,1,S,0,S,23,0.043756,0.757785,0.033157
21,61,1,4,0,0,1,,3,S,0,S,14,0.035316,0.751868,0.026553
21,62,4,2,0,0,1,,2,S,0,S,14,0.76103,0.025452,0.01937
21,63,5,9,0,0,1,,4,S,0,S,16,0.030945,0.767469,0.023749
21,64,4,1,0,0,1,,3,S,0,S,15,0.77679,0.017819,0.013842
21,65,4,8,0,0,1,,4,S,0,S,22,0.018912,0.790492,0.01495
21,66,3,7,0,0,1,,4,S,0,S,16,0.003877,0.795481,0.003084
21,67,1,8,0,0,1,,7,L,0,S,13,0.02939,0.752549,0.022118
21,68,6,2,0,0,1,,4,S,0,S,14,0.782974,0.009224,0.007222
21,69,3,9,0,0,1,,6,S,0,S,15,0.000257,0.79762,0.000205
21,70,8,5,0,0,1,,3,S,0,S,17,0.787342,0.01443,0.011361
21,71,2,5,0,0,1,,3,S,0,S,16,0.006062,0.791844,0.0048
21,72,8,3,0,0,1,,5,S,0,S,16,0.78664,0.012875,0.010128
22,1,2,4,0,0,1,,2,S,0,S,17,0.015834,0.787766,0.012474
22,2,1,6,0,0,1,,5,S,0,S,14,0.011484,0.777895,0.008933
22,3,9,6,0,0,1,,3,S,0,S,20,0.790905,0.01317,0.010416
22,4,2,8,0,0,1,,6,S,0,S,15,0.001747,0.798889,0.001396
22,5,9,2,0,0,1,,7,L,0,S,14,0.785608,0.004611,0.003622
22,6,8,4,0,0,1,,4,S,0,S,17,0.773479,0.026883,0.020794
22,7,5,1,0,0,1,,4,S,0,S,16,0.78202,0.014759,0.011542
22,8,1,5,0,0,1,,4,S,0,S,15,0.000916,0.794217,0.000727
22,9,9,8,0,0,1,,1,S,0,S,25,0.763809,0.036217,0.027663
22,10,3,5,0,0,1,,2,S,0,S,21,0.045408,0.752324,0.034161
22,11,1,7,0,0,1,,6,S,0,S,14,0.004573,0.785773,0.003594
22,12,8,3,0,0,1,,5,S,0,S,15,0.786527,0.012191,0.009588
22,13,5,8,0,0,1,,3,S,0,S,17,0.019532,0.776825,0.015173
22,14,6,9,0,0,1,,3,S,0,S,16,0.013976,0.782888,0.010942
22,15,5,9,0,0,1,,4,S,0,S,15,0.024152,0.763181,0.018432
22,16,6,2,0,0,1,,4,S,0,S,15,0.792534,0.004436,0.003516
22,17,7,9,0,0,1,,2,S,0,S,17,0.031584,0.764704,0.024153
22,18,8,1,0,0,1,,7,L,0,S,14,0.766858,0.023847,0.018287
22,19,7,4,0,0,1,,3,S,0,S,17,0.769474,0.029356,0.022589
22,20,4,1,0,0,1,,3,S,0,S,19,0.76743,0.034805,0.02671
22,21,9,4,0,0,1,,5,S,0,S,17,0.797067,0.004562,0.003636
22,22,6,4,0,0,1,,2,S,0,S,20,0.777105,0.025909,0.020134
22,23,9,7,0,0,1,,2,S,0,S,21,0.753549,0.042466,0.032
22,24,3,9,0,0,1,,6,S,0,S,15,0.017003,0.776283,0.013199
22,25,2,7,0,0,1,,5,S,0,S,15,0.013082,0.783864,0.010255
22,26,8,7,0,0,1,,1,S,0,S,27,0.760551,0.042746,0.03251
22,27,1,9,0,0,1,,8,L,0,S,13,0.006787,0.775913,0.005266
22,28,8,9,0,0,1,,1,S,0,S,17,0.032304,0.764671,0.024702
22,29,4,7,0,0,1,,3,S,0,S,15,0.021083,0.772175,0.01628
22,30,5,7,0,0,1,,2,S,0,S,18,0.008644,0.791979,0.006846
22,31,7,1,0,0,1,,6,S,0,S,14,0.7646,0.024971,0.019093
22,32,3,8,0,0,1,,5,S,0,S,17,0.008313,0.795005,0.006609
22,33,7,6,0,0,1,,1,S,0,S,22,0.775304,0.030071,0.023314
22,34,3,1,0,0,1,,2,S,0,S,16,0.783413,0.016709,0.01309
22,35,5,4,0,0,1,,1,S,0,S,29,0.754984,0.043367,0.032741
22,36,5,3,0,0,1,,2,S,0,S,17,0.773229,0.023472,0.018149
22,37,2,1,0,0,1,,1,S,0,S,20,0.779881,0.027076,0.021116
22,38,6,7,0,0,1,,1,S,0,S,19,0.040369,0.756606,0.030543
22,39,4,6,0,0,1,,2,S,0,S,15,0.032897,0.758174,0.024941
22,40,9,3,0,0,1,,6,S,0,S,15,0.795393,0.001899,0.00151
22,41,7,8,0,0,1,,1,S,0,S,23,0.041297,0.760999,0.031427
22,42,2,3,0,0,1,,1,S,0,S,27,0.025482,0.784544,0.019992
22,43,5,6,0,0,1,,1,S,0,S,18,0.036376,0.758151,0.027579
22,44,1,3,0,0,1,,2,S,0,S,17,0.02355,0.774189,0.018232
22,45,9,5,0,0,1,,4,S,0,S,17,0.757984,0.033731,0.025568
22,46,6,1,0,0,1,,5,S,0,S,15,0.774532,0.020078,0.015551
22,47,5,2,0,0,1,,3,S,0,S,15,0.755719,0.030637,0.023153
22,48,9,1,0,0,1,,8,L,0,S,14,0.773468,0.01546,0.011958
22,49,7,2,0,0,1,,5,S,0,S,14,0.778343,0.01282,0.009979
22,50,7,3,0,0,1,,4,S,0,S,15,0.783978,0.013554,0.010626
22,51,7,5,0,0,1,,2,S,0,S,18,0.767621,0.030915,0.023731
22,52,6,8,0,0,1,,2,S,0,S,18,0.035415,0.761881,0.026982
22,53,8,2,0,0,1,,6,S,0,S,14,0.780486,0.011772,0.009188
22,54,8,5,0,0,1,,3,S,0,S,18,0.772513,0.027753,0.02144
22,55,4,8,0,0,1,,4,S,0,S,15,0.009003,0.788234,0.007097
22,56,2,9,0,0,1,,7,L,0,S,14,0.001533,0.79319,0.001216
22,57,4,9,0,0,1,,5,S,0,S,14,0.006835,0.784978,0.005365
22,58,1,2,0,0,1,,1,S,0,S,21,0.042297,0.754157,0.031899
22,59,2,5,0,0,1,,3,S,0,S,16,0.028986,0.766341,0.022213
22,60,1,4,0,0,1,,3,S,0,S,15,0.012743,0.780787,0.009949
22,61,4,2,0,0,1,,2,S,0,S,18,0.785557,0.017311,0.013599
22,62,3,7,0,0,1,,4,S,0,S,17,0.03128,0.765355,0.02394
22,63,3,2,0,0,1,,1,S,0,S,15,0.757761,0.032091,0.024317
22,64,3,4,0,0,1,,1,S,0,S,29,0.014896,0.794846,0.01184
22,65,8,6,0,0,1,,2,S,0,S,22,0.786617,0.021716,0.017082
22,66,3,6,0,0,1,,3,S,0,S,18,0.020591,0.782268,0.016108
22,67,4,5,0,0,1,,1,S,0,S,17,0.005343,0.797617,0.004262
22,68,6,3,0,0,1,,3,S,0,S,16,0.781249,0.01743,0.013617
22,69,2,6,0,0,1,,4,S,0,S,15,0.024063,0.770979,0.018552
22,70,1,8,0,0,1,,7,L,0,S,14,0,0.796254,0
22,71,4,3,0,0,1,,1,S,0,S,27,0.791319,0.018707,0.014803
22,72,6,5,0,0,1,,1,S,0,S,23,0.774205,0.028129,0.021777
23,1,2,8,0,0,1,,6,S,0,S,14,0,0.802103,0
23,2,1,8,0,0,1,,7,L,0,S,13,0.010997,0.773217,0.008503
23,3,5,4,0,0,1,,1,S,0,S,28,0.765392,0.038659,0.029589
23,4,8,2,0,0,1,,6,S,0,S,14,0.791111,0.003531,0.002793
23,5,4,1,0,0,1,,3,S,0,S,14,0.797452,0,0
23,6,7,4,0,0,1,,3,S,0,S,17,0.766463,0.028629,0.021943
23,7,2,1,0,0,1,,1,S,0,S,15,0.774262,0.020107,0.015568
23,8,9,6,0,0,1,,3,S,0,S,19,0.787117,0.01711,0.013468
23,9,3,4,0,0,1,,1,S,0,S,17,0.038726,0.757834,0.029348
23,10,9,7,0,0,1,,2,S,0,S,19,0.766287,0.035656,0.027323
23,11,2,4,0,0,1,,2,S,0,S,16,0.04019,0.753054,0.030265
23,12,8,5,0,0,1,,3,S,0,S,15,0.762693,0.027329,0.020844
23,13,1,5,0,0,1,,4,S,0,S,15,0.014796,0.776051,0.011483
23,14,3,7,0,0,1,,4,S,0,S,16,0.035847,0.759868,0.027239
23,15,3,1,0,0,1,,2,S,0,S,15,0.796191,0.002984,0.002375
23,16,5,1,0,0,1,,4,S,0,S,14,0.798069,0,0
23,17,6,9,0,0,1,,3,S,0,S,17,0.040686,0.756925,0.030796
23,18,2,5,0,0,1,,3,S,0,S,16,0.026119,0.769199,0.020091
23,19,9,8,0,0,0,,1,S,0,S,17,0.015059,0.788981,0.011882
23,20,9,2,0,0,1,,7,L,0,S,15,0.768378,0.025367,0.019491
23,21,7,5,0,0,1,,2,S,0,S,18,0.781639,0.01676,0.0131
23,22,6,7,0,0,1,,1,S,0,S,25,0.031305,0.775637,0.024281
23,23,1,2,0,0,1,,1,S,0,S,17,0.039919,0.752834,0.030052
23,24,1,9,0,0,1,,8,L,0,S,14,0.002811,0.790632,0.002223
23,25,6,4,0,0,1,,2,S,0,S,22,0.77716,0.028054,0.021803
23,26,2,6,0,0,1,,4,S,0,S,16,0.019575,0.778331,0.015236
23,27,2,3,0,0,1,,1,S,0,S,18,0.032432,0.771041,0.025006
23,28,4,7,0,0,1,,3,S,0,S,21,0.031351,0.773518,0.024251
23,29,7,6,0,0,1,,1,S,0,S,18,0.770805,0.025954,0.020005
23,30,2,9,0,0,1,,7,L,0,S,14,0.031748,0.756876,0.024029
23,31,9,3,0,0,1,,6,S,0,S,16,0.776362,0.023707,0.018405
23,32,5,9,0,0,1,,4,S,0,S,17,0.016143,0.787831,0.012718
23,33,2,7,0,0,1,,5,S,0,S,16,0.009595,0.793282,0.007611
23,34,4,6,0,0,1,,2,S,0,S,23,0.012899,0.795087,0.010256
23,35,1,3,0,0,1,,2,S,0,S,16,0.022863,0.773939,0.017695
23,36,5,2,0,0,1,,3,S,0,S,17,0.776797,0.023804,0.018491
23,37,3,2,0,0,1,,1,S,0,S,26,0.789203,0.020654,0.0163
23,38,1,4,0,0,1,,3,S,0,S,15,0.023329,0.766796,0.017888
23,39,1,7,0,0,1,,6,S,0,S,15,0.003335,0.793791,0.002648
23,40,5,8,0,0,1,,3,S,0,S,15,0.020562,0.775293,0.015941
23,41,7,2,0,0,1,,5,S,0,S,15,0.775922,0.016882,0.013099
23,42,7,3,0,0,1,,4,S,0,S,16,0.787945,0.01189,0.009368
23,43,4,3,0,0,1,,1,S,0,S,19,0.777321,0.027994,0.02176
23,44,8,1,0,0,1,,7,L,0,S,12,0.761377,0.0137,0.010431
23,45,6,1,0,0,1,,5,S,0,S,13,0.754001,0.026181,0.01974
23,46,4,8,0,0,1,,4,S,0,S,15,0.019978,0.775963,0.015502
23,47,8,3,0,0,1,,5,S,0,S,14,0.768235,0.022651,0.017401
23,48,7,8,0,0,1,,1,S,0,S,17,0.040555,0.753058,0.03054
23,49,3,8,0,0,1,,5,S,0,S,14,0.008069,0.787145,0.006351
23,50,4,9,0,0,1,,5,S,0,S,17,0.015079,0.789088,0.011899
23,51,4,5,0,0,1,,1,S,0,S,24,0.029458,0.773999,0.0228
23,52,7,1,0,0,1,,6,S,0,S,13,0.781046,0.003482,0.00272
23,53,9,4,0,0,1,,5,S,0,S,18,0.792837,0.012214,0.009684
23,54,5,3,0,0,1,,2,S,0,S,19,0.780449,0.025562,0.01995
23,55,7,9,0,0,1,,2,S,0,S,25,0.033989,0.76945,0.026153
23,56,8,6,0,0,1,,2,S,0,S,15,0.758386,0.031255,0.023703
23,57,6,8,0,0,1,,2,S,0,S,15,0.033628,0.758635,0.025512
23,58,9,1,0,0,1,,8,L,0,S,13,0.779675,0.006802,0.005303
23,59,5,7,0,0,1,,2,S,0,S,21,0.035582,0.768312,0.027338
23,60,1,6,0,0,1,,5,S,0,S,15,0.01038,0.782513,0.008122
23,61,8,7,0,0,1,,1,S,0,S,15,0.754076,0.036384,0.027437
23,62,8,9,0,0,0,,1,S,0,S,17,0.755714,0.041193,0.03113
23,63,4,2,0,0,1,,2,S,0,S,17,0.775052,0.025117,0.019467
23,64,3,5,0,0,1,,2,S,0,S,17,0.020074,0.779627,0.01565
23,65,8,4,0,0,1,,4,S,0,S,15,0.779602,0.015601,0.012163
23,66,6,5,0,0,1,,1,S,0,S,26,0.760802,0.04058,0.030873
23,67,6,3,0,0,1,,3,S,0,S,18,0.780641,0.024242,0.018925
23,68,9,5,0,0,1,,4,S,0,S,18,0.754145,0.041335,0.031172
23,69,3,9,0,0,1,,6,S,0,S,15,0.011708,0.787729,0.009223
23,70,6,2,0,0,1,,4,S,0,S,16,0.755193,0.038618,0.029164
23,71,5,6,0,0,1,,1,S,0,S,23,0.019198,0.787365,0.015116
23,72,3,6,0,0,1,,3,S,0,S,17,0.011848,0.790809,0.009369
24,1,7,8,0,0,1,,1,S,0,S,20,0.045109,0.750763,0.033866
24,2,9,2,0,0,1,,7,L,0,S,14,0.793368,0.001116,0.000885
24,3,7,9,0,0,1,,2,S,0,S,18,0.009644,0.793439,0.007652
24,4,8,4,0,0,1,,4,S,0,S,13,0.764402,0.018905,0.014451
24,5,3,8,0,0,1,,5,S,0,S,14,0.032214,0.753397,0.02427
24,6,3,4,0,0,0,,1,S,0,S,18,0.783401,0.020679,0.0162
24,7,6,8,0,0,1,,2,S,0,S,16,0.0231,0.774779,0.017898
24,8,4,5,0,0,1,,1,S,0,S,18,0.015277,0.786399,0.012014
24,9,4,2,0,0,1,,2,S,0,S,18,0.770527,0.024283,0.01871
24,10,2,9,0,0,1,,7,L,0,S,13,0,0.792481,0
24,11,9,3,0,0,1,,6,S,0,S,14,0.779931,0.0123,0.009593
24,12,2,6,0,0,1,,4,S,0,S,15,0,0.798847,0
24,13,9,5,0,0,1,,4,S,0,S,16,0.782892,0.019045,0.01491
24,14,3,9,0,0,1,,6,S,0,S,14,0.008713,0.784505,0.006836
24,15,8,2,0,0,1,,6,S,0,S,13,0.775066,0.008404,0.006514
24,16,3,2,0,0,1,,1,S,0,S,17,0.791302,0.00986,0.007802
24,17,6,1,0,0,1,,5,S,0,S,14,0.794303,0.001702,0.001352
24,18,9,7,0,0,1,,2,S,0,S,20,0.763224,0.041588,0.031741
24,19,5,1,0,0,1,,4,S,0,S,14,0.777789,0.011554,0.008987
24,20,7,4,0,0,1,,3,S,0,S,14,0.775306,0.014326,0.011107
24,21,5,3,0,0,1,,2,S,0,S,16,0.791918,0.005675,0.004494
24,22,2,4,0,0,1,,2,S,0,S,18,0.037182,0.76144,0.028312
24,23,7,3,0,0,1,,4,S,0,S,14,0.7767,0.01151,0.00894
24,24,8,3,0,0,1,,5,S,0,S,13,0.764979,0.016802,0.012853
24,25,5,2,0,0,1,,3,S,0,S,15,0.765812,0.022318,0.017091
24,26,9,8,0,0,0,,1,S,0,S,20,0.01225,0.796944,0.009763
24,27,1,4,0,0,1,,3,S,0,S,16,0.003079,0.79681,0.002454
24,28,1,7,0,0,1,,6,S,0,S,13,0.0068,0.778837,0.005296
24,29,7,1,0,0,1,,6,S,0,S,13,0.779156,0.006018,0.004689
24,30,2,7,0,0,1,,5,S,0,S,14,0.00232,0.793738,0.001841
24,31,1,8,0,0,1,,7,L,0,S,13,0,0.803014,0
24,32,8,5,0,0,1,,3,S,0,S,14,0.7518,0.034132,0.02566
24,33,8,1,0,0,1,,7,L,0,S,12,0.753427,0.01998,0.015053
24,34,8,9,0,0,1,,1,S,0,S,26,0.036914,0.76666,0.0283
24,35,9,4,0,0,1,,5,S,0,S,14,0.778299,0.015304,0.011911
24,36,6,2,0,0,1,,4,S,0,S,15,0.787865,0.008306,0.006544
24,37,4,1,0,0,1,,3,S,0,S,16,0.796637,0.00252,0.002007
24,38,7,6,0,0,1,,1,S,0,S,17,0.783022,0.01547,0.012113
24,39,7,2,0,0,1,,5,S,0,S,14,0.789812,0.000653,0.000516
24,40,3,6,0,0,1,,3,S,0,S,18,0.014366,0.78936,0.01134
24,41,7,5,0,0,1,,2,S,0,S,16,0.782429,0.015832,0.012388
24,42,1,6,0,0,1,,5,S,0,S,14,0,0.797298,0
24,43,4,7,0,0,1,,3,S,0,S,15,0.023398,0.768352,0.017978
24,44,8,7,0,0,1,,1,S,0,S,16,0.761064,0.034554,0.026297
24,45,5,4,0,0,1,,1,S,0,S,16,0.787261,0.011216,0.00883
24,46,1,5,0,0,1,,4,S,0,S,14,0.006906,0.784376,0.005417
24,47,5,9,0,0,1,,4,S,0,S,15,0.01296,0.780671,0.010117
24,48,4,6,0,0,1,,2,S,0,S,17,0.010778,0.787546,0.008489
24,49,8,6,0,0,1,,2,S,0,S,15,0.773135,0.019684,0.015218
24,50,1,2,0,0,1,,1,S,0,S,17,0.004252,0.794218,0.003377
24,51,4,3,0,0,1,,1,S,0,S,20,0.794786,0.008012,0.006368
24,52,5,6,0,0,1,,1,S,0,S,27,0.037515,0.762272,0.028597
24,53,9,6,0,0,1,,3,S,0,S,17,0.781518,0.020355,0.015907
24,54,4,9,0,0,1,,5,S,0,S,14,0,0.795312,0
24,55,6,3,0,0,1,,3,S,0,S,15,0.767148,0.025295,0.019405
24,56,3,1,0,0,1,,2,S,0,S,15,0.785614,0.011635,0.00914
24,57,6,5,0,0,1,,1,S,0,S,19,0.758458,0.042937,0.032566
24,58,6,9,0,0,1,,3,S,0,S,15,0.021148,0.774069,0.01637
24,59,5,7,0,0,1,,2,S,0,S,18,0.027567,0.772626,0.021299
24,60,5,8,0,0,1,,3,S,0,S,16,0.011467,0.785571,0.009008
24,61,2,1,0,0,1,,1,S,0,S,19,0.781106,0.022189,0.017332
24,62,1,9,0,0,1,,8,L,0,S,12,0.010675,0.763348,0.008148
24,63,2,5,0,0,1,,3,S,0,S,15,0.017563,0.778303,0.013669
24,64,9,1,0,0,1,,8,L,0,S,13,0.78274,0.006335,0.004959
24,65,6,7,0,0,1,,1,S,0,S,19,0.021273,0.786358,0.016728
24,66,1,3,0,0,1,,2,S,0,S,16,0.012938,0.781808,0.010115
24,67,2,8,0,0,1,,6,S,0,S,13,0.01158,0.772833,0.008949
24,68,4,8,0,0,1,,4,S,0,S,14,0.017903,0.768007,0.01375
24,69,3,5,0,0,1,,2,S,0,S,19,0.043061,0.757503,0.032619
24,70,2,3,0,0,1,,1,S,0,S,19,0.024323,0.776647,0.01889
24,71,6,4,0,0,1,,2,S,0,S,15,0.762993,0.0304,0.023195
24,72,3,7,0,0,1,,4,S,0,S,16,0.009343,0.794172,0.00742
25,1,7,1,0,0,1,,6,S,0,S,14,0.800126,0,0
25,2,7,6,0,0,0,,1,S,0,S,27,0.046674,0.753172,0.035154
25,3,5,6,0,0,1,,1,S,0,S,17,0.004962,0.797618,0.003958
25,4,8,2,0,0,1,,6,S,0,S,14,0.793098,0.003811,0.003023
25,5,4,6,0,0,1,,2,S,0,S,15,0.020792,0.771636,0.016044
25,6,2,5,0,0,1,,3,S,0,S,18,0.01089,0.796943,0.008679
25,7,2,4,0,0,1,,2,S,0,S,19,0.033432,0.767982,0.025675
25,8,2,3,0,0,1,,1,S,0,S,27,0.044115,0.759277,0.033495
25,9,5,1,0,0,1,,4,S,0,S,15,0.783326,0.009638,0.00755
25,10,6,9,0,0,1,,3,S,0,S,16,0.025205,0.768807,0.019378
25,11,4,9,0,0,1,,5,S,0,S,15,0.014499,0.777659,0.011275
25,12,4,5,0,0,1,,1,S,0,S,18,0.026528,0.775707,0.020578
25,13,3,9,0,0,1,,6,S,0,S,15,0.007235,0.790184,0.005717
25,14,6,4,0,0,1,,2,S,0,S,22,0.771809,0.032346,0.024965
25,15,3,4,0,0,1,,1,S,0,S,19,0.032074,0.771535,0.024746
25,16,5,4,0,0,1,,1,S,0,S,22,0.790668,0.015677,0.012395
25,17,1,2,0,0,1,,1,S,0,S,27,0.022373,0.785769,0.01758
25,18,3,5,0,0,1,,2,S,0,S,17,0.046311,0.751944,0.034824
25,19,2,1,0,0,1,,1,S,0,S,16,0.765229,0.028065,0.021476
25,20,8,5,0,0,1,,3,S,0,S,16,0.776374,0.025434,0.019746
25,21,1,9,0,0,1,,8,L,0,S,14,0.004599,0.78719,0.00362
25,22,4,3,0,0,1,,1,S,0,S,28,0.76339,0.039484,0.030141
25,23,9,8,0,0,1,,1,S,0,S,19,0.758582,0.037555,0.028488
25,24,3,1,0,0,1,,2,S,0,S,16,0.76949,0.026108,0.02009
25,25,6,7,0,0,1,,1,S,0,S,16,0.031604,0.764453,0.02416
25,26,3,7,0,0,1,,4,S,0,S,15,0.01061,0.789429,0.008376
25,27,6,2,0,0,1,,4,S,0,S,16,0.790553,0.010208,0.00807
25,28,9,1,0,0,1,,8,L,0,S,13,0.770987,0.011444,0.008823
25,29,9,4,0,0,1,,5,S,0,S,15,0.776775,0.017708,0.013755
25,30,3,8,0,0,1,,5,S,0,S,15,0.018483,0.775526,0.014334
25,31,9,5,0,0,1,,4,S,0,S,15,0.754881,0.036377,0.02746
25,32,9,7,0,0,1,,2,S,0,S,20,0.790219,0.01671,0.013205
25,33,3,6,0,0,1,,3,S,0,S,15,0.013201,0.784589,0.010357
25,34,8,1,0,0,1,,7,L,0,S,13,0.762019,0.020655,0.015739
25,35,9,2,0,0,1,,7,L,0,S,13,0.750628,0.028716,0.021555
25,36,1,4,0,0,1,,3,S,0,S,16,0.023927,0.773341,0.018504
25,37,9,6,0,0,1,,3,S,0,S,20,0.793623,0.012612,0.010009
25,38,7,3,0,0,1,,4,S,0,S,15,0.772264,0.020895,0.016137
25,39,5,3,0,0,1,,2,S,0,S,18,0.769924,0.029181,0.022467
25,40,8,9,0,0,1,,1,S,0,S,38,0.029136,0.777979,0.022667
25,41,3,2,0,0,1,,1,S,0,S,18,0.7883,0.017363,0.013688
25,42,5,7,0,0,1,,2,S,0,S,16,0.036977,0.755772,0.027946
25,43,2,6,0,0,1,,4,S,0,S,15,0.014224,0.781625,0.011118
25,44,1,8,0,0,1,,7,L,0,S,14,0.01242,0.776792,0.009648
25,45,5,2,0,0,1,,3,S,0,S,16,0.790656,0.008772,0.006936
25,46,2,7,0,0,1,,5,S,0,S,15,0.01161,0.786517,0.009131
25,47,7,2,0,0,1,,5,S,0,S,14,0.776219,0.013775,0.010692
25,48,7,8,0,0,0,,1,S,0,S,34,0.757429,0.041415,0.031369
25,49,2,9,0,0,1,,7,L,0,S,15,0.008281,0.787199,0.006519
25,50,1,6,0,0,1,,5,S,0,S,14,0.008553,0.784018,0.006706
25,51,4,2,0,0,1,,2,S,0,S,18,0.795553,0.008876,0.007062
25,52,2,8,0,0,1,,6,S,0,S,15,0.019543,0.772478,0.015096
25,53,8,3,0,0,1,,5,S,0,S,15,0.794172,0.007028,0.005581
25,54,8,6,0,0,1,,2,S,0,S,24,0.783624,0.025642,0.020094
25,55,8,4,0,0,1,,4,S,0,S,15,0.753377,0.038654,0.029121
25,56,4,1,0,0,1,,3,S,0,S,16,0.771634,0.021817,0.016834
25,57,1,5,0,0,1,,4,S,0,S,15,0.034332,0.758341,0.026035
25,58,6,3,0,0,1,,3,S,0,S,18,0.766071,0.033699,0.025816
25,59,6,1,0,0,1,,5,S,0,S,15,0.783942,0.01047,0.008208
25,60,6,8,0,0,1,,2,S,0,S,17,0.007563,0.793721,0.006003
25,61,1,7,0,0,1,,6,S,0,S,14,0.006608,0.78801,0.005207
25,62,9,3,0,0,1,,6,S,0,S,14,0.75962,0.027325,0.020756
25,63,5,9,0,0,1,,4,S,0,S,16,0.030312,0.760447,0.02305
25,64,7,9,0,0,1,,2,S,0,S,23,0.031853,0.768349,0.024474
25,65,6,5,0,0,0,,1,S,0,S,26,0.018171,0.793116,0.014412
25,66,4,8,0,0,1,,4,S,0,S,15,0.026359,0.762092,0.020088
25,67,8,7,0,0,1,,1,S,0,S,24,0.756587,0.048787,0.036911
25,68,7,5,0,0,1,,2,S,0,S,17,0.793111,0.01099,0.008716
25,69,4,7,0,0,1,,3,S,0,S,15,0.018063,0.776719,0.01403
25,70,1,3,0,0,1,,2,S,0,S,17,0.040312,0.755661,0.030462
25,71,5,8,0,0,1,,3,S,0,S,17,0.013392,0.784556,0.010506
25,72,7,4,0,0,1,,3,S,0,S,16,0.776546,0.020193,0.01568
26,1,2,9,0,0,1,,7,L,0,S,14,0,0.798563,0
26,2,2,8,0,0,1,,6,S,0,S,14,0.010062,0.784679,0.007896
26,3,9,5,0,0,1,,4,S,0,S,15,0.795877,0.003533,0.002812
26,4,7,1,0,0,1,,6,S,0,S,13,0.751482,0.028186,0.021182
26,5,1,3,0,0,1,,2,S,0,S,17,0.02844,0.771669,0.021946
26,6,9,3,0,0,1,,6,S,0,S,15,0.789249,0.009563,0.007548
26,7,9,2,0,0,1,,7,L,0,S,14,0.770937,0.018852,0.014534
26,8,8,3,0,0,1,,5,S,0,S,15,0.777493,0.018592,0.014455
26,9,5,8,0,0,1,,3,S,0,S,15,0.02905,0.761579,0.022124
26,10,8,9,0,0,1,,1,S,0,S,18,0.041829,0.754616,0.031565
26,11,4,8,0,0,1,,4,S,0,S,15,0.000301,0.799093,0.00024
26,12,1,7,0,0,1,,6,S,0,S,15,0.012362,0.784851,0.009702
26,13,6,5,0,0,1,,1,S,0,S,15,0.777266,0.01748,0.013586
26,14,3,1,0,0,1,,2,S,0,S,23,0.792839,0.015869,0.012582
26,15,7,5,0,0,1,,2,S,0,S,14,0.754904,0.030456,0.022991
26,16,8,6,0,0,1,,2,S,0,S,16,0.767531,0.029178,0.022395
26,17,8,4,0,0,1,,4,S,0,S,15,0.767759,0.026608,0.020429
26,18,3,5,0,0,1,,2,S,0,S,18,0.033476,0.76563,0.02563
26,19,7,3,0,0,1,,4,S,0,S,15,0.800219,2.4E-05,1.9E-05
26,20,2,5,0,0,1,,3,S,0,S,20,0.034887,0.769158,0.026834
26,21,5,1,0,0,1,,4,S,0,S,16,0.784752,0.013783,0.010816
26,22,1,8,0,0,1,,7,L,0,S,13,0.028838,0.751849,0.021682
26,23,3,9,0,0,1,,6,S,0,S,13,0.02376,0.756752,0.01798
26,24,4,7,0,0,1,,3,S,0,S,17,0.021924,0.777671,0.01705
26,25,8,7,0,0,1,,1,S,0,S,17,0.750507,0.044366,0.033297
26,26,7,6,0,0,1,,1,S,0,S,15,0.750817,0.038296,0.028753
26,27,6,9,0,0,1,,3,S,0,S,18,0.027539,0.77213,0.021264
26,28,7,8,0,0,1,,1,S,0,S,32,0.03156,0.774094,0.02443
26,29,8,2,0,0,1,,6,S,0,S,14,0.761543,0.025919,0.019738
26,30,1,5,0,0,1,,4,S,0,S,18,0.01012,0.795629,0.008052
26,31,6,7,0,0,0,,1,S,0,S,18,0.781262,0.021335,0.016668
26,32,1,2,0,0,1,,1,S,0,S,20,0.023034,0.781753,0.018007
26,33,6,3,0,0,1,,3,S,0,S,15,0.769438,0.02444,0.018805
26,34,4,3,0,0,1,,1,S,0,S,34,0.769626,0.035562,0.02737
26,35,4,2,0,0,1,,2,S,0,S,19,0.769688,0.030501,0.023476
26,36,7,9,0,0,1,,2,S,0,S,21,0.024101,0.779423,0.018785
26,37,9,7,0,0,1,,2,S,0,S,17,0.775968,0.024496,0.019008
26,38,4,6,0,0,1,,2,S,0,S,19,0.016965,0.788069,0.013369
26,39,6,4,0,0,1,,2,S,0,S,15,0.759103,0.032907,0.02498
26,40,3,6,0,0,1,,3,S,0,S,16,0.017228,0.782281,0.013477
26,41,9,4,0,0,1,,5,S,0,S,15,0.780419,0.016889,0.01318
26,42,1,6,0,0,1,,5,S,0,S,16,0.005383,0.79787,0.004295
26,43,4,1,0,0,1,,3,S,0,S,17,0.775491,0.023672,0.018357
26,44,6,2,0,0,1,,4,S,0,S,14,0.755089,0.030452,0.022994
26,45,8,1,0,0,1,,7,L,0,S,14,0.790286,0.004363,0.003448
26,46,5,6,0,0,1,,1,S,0,S,24,0.031494,0.772802,0.024339
26,47,1,4,0,0,1,,3,S,0,S,17,0.012533,0.792318,0.00993
26,48,3,7,0,0,1,,4,S,0,S,15,0.021535,0.772514,0.016636
26,49,5,3,0,0,1,,2,S,0,S,19,0.751328,0.045835,0.034437
26,50,3,4,0,0,1,,1,S,0,S,17,0.030089,0.769571,0.023156
26,51,1,9,0,0,1,,8,L,0,S,13,0.018712,0.763961,0.014295
26,52,2,6,0,0,1,,4,S,0,S,17,0.010102,0.796312,0.008045
26,53,9,1,0,0,1,,8,L,0,S,14,0.797998,0,0
26,54,6,8,0,0,1,,2,S,0,S,20,0.021179,0.784307,0.016611
26,55,9,6,0,0,1,,3,S,0,S,16,0.78462,0.015909,0.012482
26,56,2,1,0,0,1,,1,S,0,S,19,0.771236,0.032614,0.025153
26,57,4,9,0,0,1,,5,S,0,S,14,0.021579,0.765477,0.016518
26,58,4,5,0,0,0,,1,S,0,S,24,0.772046,0.031765,0.024524
26,59,6,1,0,0,1,,5,S,0,S,14,0.784929,0.0081,0.006358
26,60,2,4,0,0,1,,2,S,0,S,18,0.04256,0.758431,0.032279
