ANN,trial,N1,N2,P1,P2,Succ.,Cong,Ndist,Ndist,Pdist,Pdist,rt,a1,a2,x_acc
1,1,1,2,9,8,1,I,1,S,1,S,11,0.381612,0.789076,0.30112
1,2,8,1,1,9,1,I,7,L,8,L,10,0.762451,0.511076,0.38967
1,3,2,8,9,8,1,I,6,S,1,S,8,0.289118,0.775966,0.224346
1,4,2,9,9,2,1,I,7,L,7,L,10,0.496125,0.758459,0.376291
1,5,9,2,9,2,1,C,7,L,7,L,7,0.839646,0.176208,0.147953
1,6,9,1,8,2,1,C,8,L,6,S,7,0.87869,0.150625,0.132353
1,7,2,9,8,2,1,I,7,L,6,S,10,0.477398,0.77102,0.368083
1,8,8,9,9,8,1,I,1,S,1,S,17,0.533448,0.767721,0.409539
1,9,8,9,1,2,1,C,1,S,1,S,10,0.325394,0.804704,0.261846
1,10,1,8,2,8,1,C,7,L,6,S,7,0.153538,0.871975,0.133881
1,11,2,9,8,9,1,C,7,L,1,S,8,0.232021,0.837625,0.194346
1,12,8,1,1,8,1,I,7,L,7,L,10,0.764165,0.507243,0.387617
1,13,2,1,1,2,1,I,1,S,1,S,15,0.775753,0.573241,0.444693
1,14,9,8,1,2,1,I,1,S,1,S,21,0.761285,0.640521,0.487619
1,15,1,9,9,2,1,I,8,L,7,L,10,0.484336,0.774967,0.375344
1,16,9,1,8,9,1,I,8,L,1,S,8,0.806272,0.276297,0.22277
1,17,9,1,2,9,1,I,8,L,7,L,10,0.790603,0.476648,0.37684
1,18,2,9,1,9,1,C,7,L,8,L,7,0.142264,0.891217,0.126788
1,19,2,8,9,2,1,I,6,S,7,L,10,0.501213,0.752492,0.377158
1,20,1,2,2,9,1,C,1,S,7,L,8,0.227318,0.829978,0.188669
1,21,9,8,9,8,1,C,1,S,1,S,12,0.797682,0.370914,0.295872
1,22,8,2,9,2,1,C,6,S,7,L,7,0.825112,0.186269,0.153693
1,23,1,8,2,1,1,I,7,L,1,S,9,0.335335,0.813518,0.272801
1,24,8,9,8,2,0,I,1,S,6,S,11,0.77056,0.423045,0.325982
1,25,2,8,2,1,1,I,6,S,1,S,9,0.34765,0.795954,0.276714
1,26,8,9,9,2,0,I,1,S,7,L,10,0.756969,0.399703,0.302563
1,27,1,2,2,1,1,I,1,S,1,S,13,0.501671,0.775052,0.388821
1,28,8,1,2,8,1,I,7,L,6,S,10,0.783269,0.478824,0.375048
1,29,1,9,8,2,1,I,8,L,6,S,10,0.465609,0.787528,0.36668
1,30,1,8,1,9,1,C,7,L,8,L,6,0.171959,0.752862,0.129462
1,31,2,1,1,8,1,I,1,S,7,L,17,0.753205,0.648734,0.488629
1,32,2,9,1,8,1,C,7,L,7,L,7,0.143442,0.887789,0.127347
1,33,1,8,8,9,1,C,7,L,1,S,8,0.22518,0.848854,0.191145
1,34,2,8,9,1,1,I,6,S,8,L,11,0.54049,0.769798,0.416068
1,35,1,2,1,8,1,C,1,S,7,L,8,0.211404,0.853398,0.180412
1,36,9,8,2,9,0,I,1,S,7,L,11,0.430569,0.775776,0.334025
1,37,8,2,1,2,1,I,6,S,1,S,10,0.776057,0.441286,0.342463
1,38,9,2,2,8,1,I,7,L,6,S,11,0.774199,0.521785,0.403965
1,39,8,2,1,8,1,I,6,S,7,L,12,0.774155,0.565102,0.437476
1,40,9,2,9,8,1,C,7,L,1,S,8,0.799847,0.25936,0.207449
1,41,9,1,9,8,1,C,8,L,1,S,7,0.754274,0.241895,0.182455
1,42,1,2,8,2,1,I,1,S,6,S,16,0.616989,0.764961,0.471972
1,43,9,2,2,9,1,I,7,L,7,L,11,0.771777,0.52666,0.406464
1,44,9,1,1,8,1,I,8,L,7,L,10,0.773793,0.500219,0.387066
1,45,2,9,2,9,1,C,7,L,7,L,7,0.158227,0.865562,0.136956
1,46,8,2,2,8,1,I,6,S,6,S,11,0.758472,0.533556,0.404687
1,47,9,2,8,1,1,C,7,L,7,L,7,0.856865,0.163133,0.139783
1,48,2,8,1,2,1,C,6,S,1,S,7,0.209951,0.787902,0.165421
1,49,8,9,8,1,0,I,1,S,7,L,10,0.775189,0.385214,0.298613
1,50,2,1,2,9,1,I,1,S,7,L,17,0.767035,0.630689,0.483761
1,51,8,1,2,1,1,C,7,L,1,S,7,0.780965,0.214169,0.167258
1,52,8,1,8,9,1,I,7,L,1,S,8,0.796564,0.283067,0.225481
1,53,8,2,2,1,1,C,6,S,1,S,8,0.836205,0.22416,0.187444
1,54,8,1,9,8,1,C,7,L,1,S,8,0.848674,0.22746,0.19304
1,55,8,9,9,1,0,I,1,S,8,L,10,0.787968,0.376922,0.297002
1,56,1,9,1,8,1,C,8,L,7,L,6,0.169077,0.754304,0.127535
1,57,2,1,2,8,1,I,1,S,6,S,17,0.769566,0.626141,0.481857
1,58,1,8,1,2,1,C,7,L,1,S,7,0.19898,0.804262,0.160032
1,59,1,9,2,1,1,I,8,L,1,S,8,0.324996,0.752249,0.244478
1,60,9,8,8,9,1,I,1,S,1,S,17,0.758497,0.571583,0.433544
1,61,1,2,1,2,1,C,1,S,1,S,9,0.24439,0.85783,0.209645
1,62,8,1,8,1,1,C,7,L,7,L,6,0.754037,0.169696,0.127957
1,63,1,2,1,9,1,C,1,S,8,L,8,0.210003,0.857042,0.179981
1,64,8,2,8,9,1,I,6,S,1,S,9,0.805216,0.322036,0.259309
1,65,9,2,9,1,1,C,7,L,8,L,7,0.86882,0.156069,0.135596
1,66,1,9,8,1,1,I,8,L,7,L,10,0.502555,0.760478,0.382182
1,67,1,9,1,9,1,C,8,L,8,L,6,0.168165,0.75739,0.127366
1,68,9,2,1,8,1,I,7,L,7,L,11,0.755018,0.549674,0.415014
1,69,2,8,2,8,1,C,6,S,6,S,7,0.164508,0.855615,0.140756
1,70,2,8,8,1,1,I,6,S,7,L,11,0.527922,0.778145,0.4108
1,71,1,9,9,1,1,I,8,L,8,L,10,0.515335,0.752186,0.387627
1,72,2,9,2,8,1,C,7,L,6,S,7,0.159786,0.86137,0.137635
1,73,2,8,8,2,1,I,6,S,6,S,10,0.482485,0.765053,0.369127
1,74,8,1,1,2,1,I,7,L,1,S,9,0.791854,0.383475,0.303656
1,75,9,8,9,2,1,C,1,S,7,L,9,0.82081,0.28689,0.235482
1,76,2,1,8,2,1,C,1,S,6,S,8,0.801578,0.24611,0.197277
1,77,1,8,8,2,1,I,7,L,6,S,10,0.469981,0.782468,0.367745
1,78,9,8,2,8,0,I,1,S,6,S,11,0.432991,0.7709,0.333793
1,79,8,1,2,9,1,I,7,L,7,L,10,0.780975,0.483672,0.377736
1,80,2,1,2,1,1,C,1,S,1,S,9,0.793782,0.285265,0.226438
1,81,1,2,2,8,1,C,1,S,6,S,8,0.229186,0.825433,0.189178
1,82,2,9,9,8,1,I,7,L,1,S,8,0.284131,0.782018,0.222195
1,83,1,2,8,1,1,I,1,S,7,L,17,0.635969,0.764923,0.486467
1,84,9,2,2,1,1,C,7,L,1,S,8,0.851887,0.213171,0.181597
1,85,1,9,9,8,1,I,8,L,1,S,8,0.272956,0.798439,0.217939
1,86,9,8,1,8,0,I,1,S,7,L,10,0.396863,0.771869,0.306326
1,87,1,2,8,9,1,C,1,S,1,S,9,0.323627,0.751458,0.243192
1,88,1,2,9,1,1,I,1,S,8,L,17,0.646431,0.757632,0.489757
1,89,8,9,2,9,1,C,1,S,7,L,9,0.292612,0.813361,0.237999
1,90,2,1,8,9,1,I,1,S,1,S,11,0.752062,0.426804,0.320983
1,91,2,9,2,1,1,I,7,L,1,S,9,0.342552,0.802048,0.274744
1,92,8,1,8,2,1,C,7,L,6,S,7,0.869334,0.157009,0.136493
1,93,1,8,9,2,1,I,7,L,7,L,10,0.488709,0.769907,0.37626
1,94,8,2,1,9,1,I,6,S,8,L,12,0.772275,0.568956,0.439391
1,95,8,9,8,9,1,C,1,S,1,S,12,0.356343,0.817692,0.291379
1,96,2,8,1,8,1,C,6,S,7,L,7,0.148165,0.882034,0.130686
1,97,8,9,2,1,1,I,1,S,1,S,21,0.62356,0.761175,0.474638
1,98,1,8,9,8,1,I,7,L,1,S,8,0.27729,0.793247,0.21996
1,99,8,9,1,8,1,C,1,S,7,L,8,0.295591,0.754222,0.222941
1,100,9,1,9,1,1,C,8,L,8,L,6,0.773379,0.157747,0.121998
1,101,1,8,9,1,1,I,7,L,8,L,11,0.528028,0.786794,0.415449
1,102,2,1,8,1,1,C,1,S,7,L,8,0.837749,0.220766,0.184947
1,103,9,1,2,8,1,I,8,L,6,S,10,0.792897,0.4718,0.374089
1,104,9,8,2,1,1,C,1,S,1,S,10,0.75793,0.353417,0.267865
1,105,9,2,1,9,1,I,7,L,8,L,11,0.753206,0.55353,0.416922
1,106,2,1,9,2,1,C,1,S,7,L,8,0.819523,0.234726,0.192363
1,107,8,2,8,2,1,C,6,S,6,S,7,0.808627,0.19649,0.158887
1,108,2,8,2,9,1,C,6,S,7,L,7,0.16295,0.859806,0.140105
1,109,2,1,1,9,1,I,1,S,8,L,17,0.751237,0.65246,0.490152
1,110,9,1,2,1,1,C,8,L,1,S,7,0.790321,0.207785,0.164217
1,111,2,1,9,1,1,C,1,S,8,L,8,0.850341,0.213075,0.181186
1,112,9,8,8,1,1,C,1,S,7,L,8,0.75222,0.295063,0.221952
1,113,8,1,9,2,1,C,7,L,7,L,7,0.885819,0.146788,0.130028
1,114,1,8,2,9,1,C,7,L,7,L,7,0.151979,0.876166,0.133159
1,115,9,1,9,2,1,C,8,L,7,L,7,0.895175,0.140404,0.125687
1,116,2,9,9,1,1,I,7,L,8,L,11,0.535502,0.775533,0.415299
1,117,2,9,8,1,1,I,7,L,7,L,11,0.522934,0.783879,0.409917
1,118,9,1,1,9,1,I,8,L,8,L,10,0.77208,0.504052,0.389168
1,119,8,2,9,8,1,C,6,S,1,S,8,0.784166,0.27035,0.211999
1,120,2,8,8,9,1,C,6,S,1,S,8,0.237008,0.831573,0.19709
1,121,9,2,8,9,1,I,7,L,1,S,9,0.821352,0.310493,0.255024
1,122,8,2,8,1,1,C,6,S,7,L,7,0.842331,0.173194,0.145886
1,123,1,8,8,1,1,I,7,L,7,L,10,0.506928,0.755418,0.382943
1,124,2,9,1,2,1,C,7,L,1,S,7,0.205228,0.793657,0.162881
1,125,8,1,9,1,1,C,7,L,8,L,6,0.764798,0.16352,0.12506
1,126,8,2,2,9,1,I,6,S,7,L,11,0.75605,0.538431,0.407081
1,127,9,1,1,2,1,I,8,L,1,S,9,0.801617,0.376505,0.301813
1,128,9,8,1,9,0,I,1,S,8,L,10,0.39515,0.775702,0.306518
1,129,8,2,9,1,1,C,6,S,8,L,7,0.854286,0.16613,0.141922
1,130,1,8,1,8,1,C,7,L,7,L,7,0.137194,0.898394,0.123254
1,131,9,2,8,2,1,C,7,L,6,S,7,0.823161,0.186429,0.153461
1,132,1,9,8,9,1,C,8,L,1,S,8,0.220847,0.854046,0.188613
1,133,2,8,1,9,1,C,6,S,8,L,7,0.146986,0.885462,0.130151
1,134,9,1,8,1,1,C,8,L,7,L,6,0.762618,0.163923,0.125011
1,135,1,9,1,2,1,C,8,L,1,S,7,0.194839,0.809259,0.157675
1,136,1,9,2,8,1,C,8,L,6,S,7,0.149396,0.876972,0.131016
1,137,9,2,1,2,1,I,7,L,1,S,10,0.792152,0.429504,0.340232
1,138,2,1,9,8,1,C,1,S,1,S,10,0.805103,0.317062,0.255267
1,139,8,9,1,9,1,C,1,S,8,L,8,0.29419,0.757866,0.222957
1,140,9,8,9,1,1,C,1,S,8,L,8,0.764811,0.287372,0.219785
1,141,1,9,2,9,1,C,8,L,7,L,7,0.147838,0.881163,0.130269
1,142,9,8,8,2,1,C,1,S,6,S,9,0.802187,0.299037,0.239884
1,143,8,9,2,8,1,C,1,S,6,S,9,0.294724,0.808611,0.238317
1,144,1,2,9,2,1,I,1,S,7,L,16,0.632164,0.753815,0.476535
2,1,9,8,1,2,1,I,1,S,1,S,22,0.762521,0.63015,0.480503
2,2,9,2,2,9,1,I,7,L,7,L,11,0.771565,0.525237,0.405254
2,3,9,8,2,9,0,I,1,S,7,L,10,0.394032,0.758036,0.29869
2,4,2,9,1,9,1,C,7,L,8,L,7,0.155741,0.864025,0.134564
2,5,2,1,9,1,1,C,1,S,8,L,8,0.864825,0.200581,0.173467
2,6,8,2,8,9,1,I,6,S,1,S,9,0.805527,0.317933,0.256104
2,7,9,8,1,8,0,I,1,S,7,L,10,0.380232,0.77791,0.295786
2,8,8,2,9,8,1,C,6,S,1,S,8,0.786693,0.269058,0.211666
2,9,8,2,9,2,1,C,6,S,7,L,7,0.8281,0.182638,0.151242
2,10,1,2,2,1,1,I,1,S,1,S,14,0.546022,0.777295,0.42442
2,11,1,8,8,1,1,I,7,L,7,L,11,0.522002,0.788463,0.411579
2,12,8,1,1,2,1,I,7,L,1,S,9,0.799911,0.353534,0.282796
2,13,9,2,9,8,1,C,7,L,1,S,8,0.798678,0.262351,0.209534
2,14,9,2,2,1,1,C,7,L,1,S,7,0.753208,0.231407,0.174297
2,15,9,2,9,2,1,C,7,L,7,L,7,0.83912,0.176719,0.148289
2,16,1,9,9,2,1,I,8,L,7,L,10,0.484197,0.776993,0.376218
2,17,9,2,1,8,1,I,7,L,7,L,11,0.757752,0.544693,0.412742
2,18,9,1,9,8,1,C,8,L,1,S,8,0.842352,0.231525,0.195025
2,19,1,9,8,9,1,C,8,L,1,S,8,0.217839,0.856167,0.186507
2,20,8,9,1,8,1,C,1,S,7,L,8,0.287274,0.754698,0.216805
2,21,1,8,9,8,1,I,7,L,1,S,8,0.280711,0.790677,0.221952
2,22,2,8,2,1,1,I,6,S,1,S,10,0.412901,0.78938,0.325936
2,23,2,1,1,2,1,I,1,S,1,S,13,0.767796,0.51747,0.397312
2,24,9,8,2,8,0,I,1,S,6,S,10,0.399805,0.750218,0.299941
2,25,8,2,1,2,1,I,6,S,1,S,9,0.752157,0.387796,0.291683
2,26,8,9,9,2,0,I,1,S,7,L,11,0.765653,0.432344,0.331025
2,27,8,1,2,9,1,I,7,L,7,L,10,0.765981,0.489082,0.374627
2,28,2,9,1,8,1,C,7,L,7,L,7,0.159494,0.858602,0.136941
2,29,1,2,8,1,1,I,1,S,7,L,17,0.639585,0.766023,0.489937
2,30,9,1,9,2,1,C,8,L,7,L,7,0.880415,0.148052,0.130348
2,31,2,8,1,2,1,C,6,S,1,S,8,0.212496,0.84934,0.180481
2,32,2,1,2,1,1,C,1,S,1,S,9,0.842637,0.249452,0.210198
2,33,2,1,9,2,1,C,1,S,7,L,8,0.834689,0.220921,0.184401
2,34,9,2,8,9,1,I,7,L,1,S,9,0.817996,0.310671,0.254128
2,35,1,9,8,1,1,I,8,L,7,L,10,0.504788,0.761004,0.384145
2,36,2,1,8,2,1,C,1,S,6,S,8,0.821809,0.228002,0.187374
2,37,9,2,8,2,1,C,7,L,6,S,7,0.827261,0.182957,0.151353
2,38,9,1,2,9,1,I,8,L,7,L,10,0.775127,0.483841,0.375038
2,39,2,1,2,8,1,I,1,S,6,S,16,0.764668,0.618013,0.472575
2,40,1,2,9,2,1,I,1,S,7,L,16,0.634252,0.755848,0.479398
2,41,8,2,8,1,1,C,6,S,7,L,7,0.847617,0.168245,0.142607
2,42,1,8,8,2,1,I,7,L,6,S,10,0.479417,0.772747,0.370468
2,43,8,2,2,9,1,I,6,S,7,L,11,0.759064,0.533016,0.404593
2,44,9,2,9,1,1,C,7,L,8,L,7,0.867661,0.157873,0.13698
2,45,2,8,8,2,1,I,6,S,6,S,11,0.521036,0.76306,0.397582
2,46,1,9,1,9,1,C,8,L,8,L,6,0.168369,0.755923,0.127274
2,47,8,1,8,9,1,I,7,L,1,S,8,0.778926,0.289433,0.225447
2,48,2,8,2,8,1,C,6,S,6,S,7,0.186745,0.817403,0.152646
2,49,1,2,1,9,1,C,1,S,8,L,8,0.216053,0.852103,0.184099
2,50,8,1,9,1,1,C,7,L,8,L,6,0.751817,0.169191,0.127201
2,51,8,9,9,1,0,I,1,S,8,L,10,0.768254,0.394176,0.302827
2,52,2,9,8,2,1,I,7,L,6,S,11,0.508666,0.780137,0.396829
2,53,8,1,9,8,1,C,7,L,1,S,8,0.833474,0.236211,0.196876
2,54,8,9,8,1,0,I,1,S,7,L,10,0.758438,0.399741,0.303179
2,55,2,9,8,1,1,I,7,L,7,L,11,0.542071,0.756072,0.409845
2,56,1,8,1,9,1,C,7,L,8,L,7,0.13996,0.893504,0.125055
2,57,9,1,2,1,1,C,8,L,1,S,7,0.794502,0.20274,0.161077
2,58,2,8,1,9,1,C,6,S,8,L,7,0.166109,0.848435,0.140933
2,59,1,9,2,9,1,C,8,L,7,L,7,0.147849,0.881313,0.130302
2,60,2,9,9,8,1,I,7,L,1,S,8,0.298346,0.759114,0.226479
2,61,9,1,2,8,1,I,8,L,6,S,10,0.780899,0.476024,0.371726
2,62,1,8,2,8,1,C,7,L,6,S,7,0.160596,0.862472,0.138509
2,63,8,2,2,1,1,C,6,S,1,S,8,0.864749,0.203673,0.176126
2,64,1,8,2,9,1,C,7,L,7,L,7,0.155607,0.869617,0.135319
2,65,1,2,9,8,1,I,1,S,1,S,11,0.387845,0.789875,0.306349
2,66,8,9,8,2,0,I,1,S,6,S,11,0.752211,0.440591,0.331418
2,67,8,1,8,2,1,C,7,L,6,S,7,0.860166,0.158495,0.136332
2,68,2,8,8,9,1,C,6,S,1,S,8,0.255186,0.795468,0.202992
2,69,1,8,1,2,1,C,7,L,1,S,7,0.218094,0.77473,0.168964
2,70,2,8,9,8,1,I,6,S,1,S,9,0.299658,0.82012,0.245755
2,71,9,1,1,9,1,I,8,L,8,L,10,0.757158,0.509367,0.385671
2,72,8,9,2,9,1,C,1,S,7,L,9,0.277709,0.822021,0.228283
2,73,8,9,9,8,1,I,1,S,1,S,16,0.507702,0.776666,0.394315
2,74,9,1,8,1,1,C,8,L,7,L,6,0.751227,0.169395,0.127254
2,75,1,9,1,2,1,C,8,L,1,S,7,0.210336,0.786425,0.165414
2,76,9,2,1,2,1,I,7,L,1,S,9,0.764626,0.380534,0.290966
2,77,9,8,8,2,1,C,1,S,6,S,9,0.793213,0.302254,0.239752
2,78,1,9,2,1,1,I,8,L,1,S,9,0.362207,0.8003,0.289874
2,79,2,8,2,9,1,C,6,S,7,L,7,0.181756,0.824548,0.149867
2,80,2,9,2,8,1,C,7,L,6,S,7,0.176377,0.832993,0.146921
2,81,9,8,1,9,0,I,1,S,8,L,10,0.376063,0.783561,0.294668
2,82,1,9,9,1,1,I,8,L,8,L,10,0.514604,0.755438,0.388751
2,83,2,9,9,1,1,I,7,L,8,L,11,0.551815,0.750379,0.414071
2,84,9,8,9,1,1,C,1,S,8,L,8,0.754391,0.29306,0.221082
2,85,9,2,1,9,1,I,7,L,8,L,11,0.753615,0.550193,0.414633
2,86,1,8,1,8,1,C,7,L,7,L,7,0.143713,0.888082,0.127628
2,87,9,8,8,9,1,I,1,S,1,S,19,0.758637,0.589996,0.447592
2,88,2,1,2,9,1,I,1,S,7,L,16,0.759835,0.624021,0.474153
2,89,2,1,8,9,1,I,1,S,1,S,11,0.769812,0.408241,0.314269
2,90,9,2,2,8,1,I,7,L,6,S,11,0.777321,0.51761,0.402349
2,91,9,1,1,8,1,I,8,L,7,L,10,0.761327,0.503716,0.383492
2,92,8,9,1,9,1,C,1,S,8,L,8,0.283273,0.760369,0.215392
2,93,1,9,2,8,1,C,8,L,6,S,7,0.152838,0.874168,0.133606
2,94,8,2,1,9,1,I,6,S,8,L,12,0.775782,0.561852,0.435875
2,95,1,2,8,9,1,C,1,S,1,S,9,0.326404,0.750036,0.244815
2,96,9,8,9,8,1,C,1,S,1,S,12,0.76686,0.392244,0.300796
2,97,1,2,9,1,1,I,1,S,8,L,17,0.648241,0.760645,0.493081
2,98,9,2,8,1,1,C,7,L,7,L,7,0.858637,0.162327,0.13938
2,99,2,8,9,2,1,I,6,S,7,L,11,0.534478,0.754812,0.40343
2,100,2,8,9,1,1,I,6,S,8,L,12,0.56823,0.767839,0.436309
2,101,8,1,8,1,1,C,7,L,7,L,7,0.891541,0.137865,0.122912
2,102,8,1,9,2,1,C,7,L,7,L,7,0.872025,0.152258,0.132772
2,103,2,1,8,1,1,C,1,S,7,L,8,0.855289,0.20555,0.175805
2,104,2,1,1,9,1,I,1,S,8,L,17,0.766132,0.63545,0.486839
2,105,1,2,8,2,1,I,1,S,6,S,16,0.622549,0.763555,0.47535
2,106,1,9,8,2,1,I,8,L,6,S,10,0.470657,0.785048,0.369488
2,107,8,9,2,8,1,C,1,S,6,S,9,0.283381,0.814163,0.230718
2,108,8,9,8,9,1,C,1,S,1,S,11,0.366724,0.766019,0.280918
2,109,8,2,2,8,1,I,6,S,6,S,11,0.76482,0.525388,0.401828
2,110,1,8,8,9,1,C,7,L,1,S,8,0.226163,0.843899,0.190859
2,111,1,8,9,1,1,I,7,L,8,L,11,0.531746,0.78277,0.416235
2,112,8,1,2,8,1,I,7,L,6,S,10,0.771754,0.481264,0.371417
2,113,2,8,1,8,1,C,6,S,7,L,7,0.169862,0.843012,0.143195
2,114,8,1,2,1,1,C,7,L,1,S,7,0.786113,0.206945,0.162682
2,115,1,2,1,2,1,C,1,S,1,S,9,0.273034,0.819899,0.22386
2,116,8,9,2,1,1,I,1,S,1,S,21,0.623375,0.766019,0.477517
2,117,2,9,8,9,1,C,7,L,1,S,8,0.243798,0.812336,0.198046
2,118,9,1,8,2,1,C,8,L,6,S,7,0.868555,0.15429,0.134009
2,119,1,2,2,9,1,C,1,S,7,L,8,0.232967,0.826848,0.192628
2,120,8,1,1,8,1,I,7,L,7,L,10,0.752181,0.508956,0.382827
2,121,2,9,1,2,1,C,7,L,1,S,8,0.201108,0.866207,0.174201
2,122,2,8,8,1,1,I,6,S,7,L,12,0.558627,0.773578,0.432141
2,123,2,1,9,8,1,C,1,S,1,S,10,0.824604,0.302477,0.249424
2,124,2,9,2,9,1,C,7,L,7,L,7,0.171388,0.840138,0.14399
2,125,2,1,1,8,1,I,1,S,7,L,17,0.769499,0.631189,0.485699
2,126,9,8,2,1,1,C,1,S,1,S,10,0.773964,0.341616,0.264399
2,127,9,1,8,9,1,I,8,L,1,S,8,0.787804,0.284747,0.224325
2,128,8,2,9,1,1,C,6,S,8,L,7,0.856641,0.163792,0.140311
2,129,1,9,9,8,1,I,8,L,1,S,8,0.272387,0.802945,0.218712
2,130,9,1,1,2,1,I,8,L,1,S,9,0.809013,0.348509,0.281949
2,131,1,8,2,1,1,I,7,L,1,S,9,0.370849,0.787877,0.292183
2,132,2,9,2,1,1,I,7,L,1,S,9,0.389764,0.755348,0.294407
2,133,9,8,9,2,1,C,1,S,7,L,9,0.806607,0.294576,0.237607
2,134,8,9,1,2,1,C,1,S,1,S,10,0.332066,0.780307,0.259114
2,135,2,9,9,2,1,I,7,L,7,L,11,0.522107,0.771889,0.403009
2,136,8,2,8,2,1,C,6,S,6,S,7,0.816241,0.188875,0.154168
2,137,1,2,2,8,1,C,1,S,6,S,8,0.238387,0.819182,0.195283
2,138,9,8,8,1,1,C,1,S,7,L,9,0.827479,0.278704,0.230622
2,139,9,1,9,1,1,C,8,L,8,L,6,0.759355,0.16562,0.125764
2,140,8,2,1,8,1,I,6,S,7,L,12,0.779838,0.556547,0.434017
2,141,8,1,1,9,1,I,7,L,8,L,11,0.787359,0.523289,0.412016
2,142,1,8,9,2,1,I,7,L,7,L,10,0.492958,0.764693,0.376961
2,143,1,9,1,8,1,C,8,L,7,L,6,0.171735,0.751017,0.128976
2,144,1,2,1,8,1,C,1,S,7,L,8,0.220053,0.846432,0.18626
3,1,2,1,8,1,1,C,1,S,7,L,8,0.844627,0.219274,0.185204
3,2,2,9,2,9,1,C,7,L,7,L,7,0.169559,0.846346,0.143505
3,3,1,2,2,8,1,C,1,S,6,S,8,0.211806,0.851025,0.180252
3,4,8,1,2,8,1,I,7,L,6,S,10,0.76917,0.48416,0.372401
3,5,1,2,2,1,1,I,1,S,1,S,12,0.502178,0.761275,0.382296
3,6,2,9,8,1,1,I,7,L,7,L,11,0.553327,0.751665,0.415916
3,7,8,2,9,2,1,C,6,S,7,L,7,0.827978,0.182337,0.150971
3,8,2,1,2,9,1,I,1,S,7,L,17,0.757025,0.640282,0.48471
3,9,9,2,1,8,1,I,7,L,7,L,11,0.750876,0.549005,0.412235
3,10,2,8,1,9,1,C,6,S,8,L,7,0.159842,0.862652,0.137888
3,11,8,9,9,2,0,I,1,S,7,L,10,0.753715,0.403244,0.303931
3,12,9,8,2,1,1,C,1,S,1,S,11,0.816424,0.338511,0.276368
3,13,9,8,9,8,1,C,1,S,1,S,12,0.788784,0.378938,0.2989
3,14,8,2,9,8,1,C,6,S,1,S,8,0.801891,0.255012,0.204491
3,15,2,1,8,9,1,I,1,S,1,S,11,0.788679,0.376803,0.297177
3,16,2,8,8,1,1,I,6,S,7,L,12,0.563898,0.777357,0.43835
3,17,1,9,1,9,1,C,8,L,8,L,6,0.162066,0.765802,0.12411
3,18,2,1,1,8,1,I,1,S,7,L,18,0.769656,0.640795,0.493192
3,19,8,9,8,2,0,I,1,S,6,S,10,0.750594,0.405253,0.304181
3,20,8,1,8,9,1,I,7,L,1,S,8,0.796716,0.27347,0.217878
3,21,2,1,8,2,1,C,1,S,6,S,8,0.815553,0.237706,0.193862
3,22,8,9,1,8,1,C,1,S,7,L,8,0.294098,0.751576,0.221037
3,23,8,1,1,2,1,I,7,L,1,S,9,0.796139,0.356458,0.28379
3,24,9,8,1,2,0,I,1,S,1,S,15,0.513604,0.755696,0.388129
3,25,8,1,2,9,1,I,7,L,7,L,10,0.758848,0.499578,0.379104
3,26,1,2,8,1,1,I,1,S,7,L,16,0.628825,0.771821,0.485341
3,27,8,2,2,9,1,I,6,S,7,L,12,0.784652,0.547212,0.429371
3,28,1,8,8,1,1,I,7,L,7,L,10,0.515938,0.753988,0.389011
3,29,2,1,2,8,1,I,1,S,6,S,17,0.765839,0.6282,0.481101
3,30,2,8,2,1,1,I,6,S,1,S,9,0.393424,0.750085,0.295101
3,31,9,2,1,9,1,I,7,L,8,L,12,0.777963,0.563861,0.438663
3,32,1,2,8,2,1,I,1,S,6,S,15,0.611248,0.766649,0.468612
3,33,2,8,2,8,1,C,6,S,6,S,7,0.184008,0.824191,0.151658
3,34,9,1,1,9,1,I,8,L,8,L,11,0.788454,0.528355,0.416583
3,35,1,9,8,2,1,I,8,L,6,S,10,0.481929,0.779746,0.375782
3,36,1,9,1,2,1,C,8,L,1,S,7,0.205851,0.790095,0.162642
3,37,2,9,1,2,1,C,7,L,1,S,8,0.201941,0.865698,0.17482
3,38,9,2,9,1,1,C,7,L,8,L,7,0.86516,0.15892,0.137491
3,39,9,2,2,1,1,C,7,L,1,S,8,0.867173,0.202179,0.175324
3,40,9,2,2,9,1,I,7,L,7,L,11,0.761363,0.534532,0.406973
3,41,2,1,1,9,1,I,1,S,8,L,18,0.763373,0.649751,0.496002
3,42,9,1,1,8,1,I,8,L,7,L,10,0.756376,0.508732,0.384793
3,43,8,2,2,1,1,C,6,S,1,S,8,0.855946,0.209774,0.179555
3,44,2,9,1,8,1,C,7,L,7,L,7,0.16038,0.860234,0.137964
3,45,1,8,2,9,1,C,7,L,7,L,7,0.144843,0.885716,0.12829
3,46,2,1,9,2,1,C,1,S,7,L,8,0.818581,0.235874,0.193082
3,47,1,2,8,9,1,C,1,S,1,S,9,0.32505,0.758511,0.246554
3,48,8,2,9,1,1,C,6,S,8,L,7,0.854828,0.165809,0.141738
3,49,8,2,1,9,1,I,6,S,8,L,12,0.76692,0.572042,0.43871
3,50,9,1,9,2,1,C,8,L,7,L,7,0.880643,0.148408,0.130695
3,51,8,2,8,2,1,C,6,S,6,S,7,0.825151,0.183993,0.151822
3,52,2,8,9,1,1,I,6,S,8,L,12,0.566105,0.775909,0.439246
3,53,2,9,8,9,1,C,7,L,1,S,8,0.266651,0.792387,0.211291
3,54,2,9,8,2,1,I,7,L,6,S,11,0.524375,0.771523,0.404567
3,55,9,8,1,9,0,I,1,S,8,L,9,0.348759,0.762531,0.265939
3,56,2,9,9,1,1,I,7,L,8,L,11,0.555582,0.75021,0.416804
3,57,9,2,9,8,1,C,7,L,1,S,8,0.813118,0.247416,0.201178
3,58,8,2,1,8,1,I,6,S,7,L,12,0.774326,0.561214,0.434563
3,59,2,8,1,8,1,C,6,S,7,L,7,0.166251,0.851984,0.141643
3,60,2,8,8,9,1,C,6,S,1,S,8,0.27303,0.783513,0.213923
3,61,9,8,9,2,1,C,1,S,7,L,9,0.79617,0.306007,0.243633
3,62,9,1,8,1,1,C,8,L,7,L,6,0.756035,0.1693,0.127997
3,63,2,9,2,8,1,C,7,L,6,S,7,0.178137,0.832441,0.148288
3,64,8,1,1,8,1,I,7,L,7,L,11,0.788071,0.522893,0.412077
3,65,8,9,9,8,1,I,1,S,1,S,18,0.594693,0.750451,0.446287
3,66,9,1,9,1,1,C,8,L,8,L,6,0.758002,0.168222,0.127513
3,67,1,9,9,2,1,I,8,L,7,L,10,0.48505,0.777736,0.377241
3,68,8,9,9,1,0,I,1,S,8,L,10,0.782387,0.384029,0.300459
3,69,9,1,1,2,1,I,8,L,1,S,9,0.804245,0.350884,0.282197
3,70,1,9,2,9,1,C,8,L,7,L,7,0.140732,0.89151,0.125464
3,71,8,1,9,1,1,C,7,L,8,L,6,0.751169,0.172632,0.129676
3,72,2,1,1,2,1,I,1,S,1,S,14,0.769833,0.54016,0.415834
3,73,1,9,1,8,1,C,8,L,7,L,6,0.167708,0.756145,0.126811
3,74,8,1,1,9,1,I,7,L,8,L,11,0.780602,0.534003,0.416844
3,75,9,2,9,2,1,C,7,L,7,L,7,0.83831,0.175447,0.147079
3,76,1,8,8,2,1,I,7,L,6,S,10,0.486434,0.773771,0.376389
3,77,9,8,8,9,1,I,1,S,1,S,18,0.754068,0.541033,0.407976
3,78,2,8,8,2,1,I,6,S,6,S,11,0.531136,0.76269,0.405092
3,79,9,1,8,2,1,C,8,L,6,S,7,0.877815,0.150064,0.131729
3,80,2,8,2,9,1,C,6,S,7,L,7,0.17543,0.838096,0.147027
3,81,1,8,1,2,1,C,7,L,1,S,7,0.209961,0.784302,0.164673
3,82,8,9,1,9,1,C,1,S,8,L,8,0.287154,0.762768,0.219032
3,83,1,2,9,2,1,I,1,S,7,L,15,0.613954,0.76476,0.469527
3,84,1,8,9,8,1,I,7,L,1,S,8,0.293239,0.783978,0.229893
3,85,1,8,9,2,1,I,7,L,7,L,10,0.489554,0.771761,0.377819
3,86,2,9,9,8,1,I,7,L,1,S,9,0.317748,0.814308,0.258745
3,87,8,9,2,1,1,I,1,S,1,S,21,0.630716,0.759689,0.479148
3,88,9,2,8,2,1,C,7,L,6,S,7,0.835483,0.177104,0.147967
3,89,8,9,1,2,1,C,1,S,1,S,10,0.343075,0.769635,0.264042
3,90,8,2,2,8,1,I,6,S,6,S,11,0.760349,0.527656,0.401203
3,91,1,2,9,1,1,I,1,S,8,L,16,0.630803,0.770488,0.486026
3,92,8,1,9,2,1,C,7,L,7,L,7,0.873042,0.153384,0.133911
3,93,9,2,8,9,1,I,7,L,1,S,8,0.759621,0.297596,0.22606
3,94,1,8,1,9,1,C,7,L,8,L,6,0.165781,0.760527,0.126081
3,95,2,8,9,2,1,I,6,S,7,L,11,0.534211,0.760658,0.406352
3,96,1,9,9,8,1,I,8,L,1,S,8,0.288882,0.790009,0.228219
3,97,8,2,8,1,1,C,6,S,7,L,7,0.852667,0.167038,0.142428
3,98,2,9,1,9,1,C,7,L,8,L,7,0.153971,0.870902,0.134094
3,99,1,8,2,1,1,I,7,L,1,S,9,0.358496,0.801843,0.287457
3,100,9,2,2,8,1,I,7,L,6,S,11,0.771765,0.519371,0.400832
3,101,2,9,2,1,1,I,7,L,1,S,9,0.386751,0.759191,0.293618
3,102,2,8,9,8,1,I,6,S,1,S,9,0.324421,0.805202,0.261224
3,103,8,9,2,9,1,C,1,S,7,L,9,0.28305,0.821923,0.232645
3,104,2,1,9,1,1,C,1,S,8,L,8,0.846889,0.217937,0.184569
3,105,9,1,2,9,1,I,8,L,7,L,10,0.766884,0.493917,0.378777
3,106,2,1,9,8,1,C,1,S,1,S,10,0.83566,0.29427,0.24591
3,107,1,8,9,1,1,I,7,L,8,L,10,0.518227,0.752547,0.38999
3,108,9,8,1,8,0,I,1,S,7,L,9,0.356032,0.751163,0.267438
3,109,1,8,2,8,1,C,7,L,6,S,7,0.153421,0.871811,0.133754
3,110,8,1,8,2,1,C,7,L,6,S,7,0.870214,0.15504,0.134918
3,111,9,2,8,1,1,C,7,L,7,L,7,0.862999,0.160149,0.138208
3,112,9,8,2,8,0,I,1,S,6,S,10,0.378509,0.76926,0.291172
3,113,9,1,2,8,1,I,8,L,6,S,10,0.777205,0.4785,0.371892
3,114,1,8,1,8,1,C,7,L,7,L,6,0.171423,0.75087,0.128717
3,115,1,9,8,9,1,C,8,L,1,S,8,0.235385,0.840189,0.197768
3,116,8,1,2,1,1,C,7,L,1,S,7,0.779565,0.213725,0.166612
3,117,8,2,1,2,1,I,6,S,1,S,10,0.79948,0.398987,0.318982
3,118,9,1,9,8,1,C,8,L,1,S,8,0.858204,0.217934,0.187032
3,119,1,2,1,8,1,C,1,S,7,L,7,0.226999,0.757096,0.17186
3,120,1,2,1,9,1,C,1,S,8,L,7,0.22059,0.767764,0.169361
3,121,9,8,8,2,1,C,1,S,6,S,9,0.793056,0.307953,0.244224
3,122,9,8,2,9,0,I,1,S,7,L,10,0.368188,0.784678,0.288909
3,123,1,2,1,2,1,C,1,S,1,S,9,0.242203,0.856891,0.207541
3,124,2,8,1,2,1,C,6,S,1,S,8,0.20832,0.856824,0.178493
3,125,9,8,8,1,1,C,1,S,7,L,9,0.822685,0.288611,0.237436
3,126,9,8,9,1,1,C,1,S,8,L,9,0.824981,0.287206,0.23694
3,127,2,1,2,1,1,C,1,S,1,S,9,0.813218,0.273759,0.222626
3,128,8,9,2,8,1,C,1,S,6,S,9,0.293075,0.806526,0.236373
3,129,8,2,8,9,1,I,6,S,1,S,9,0.829354,0.291517,0.241771
3,130,1,9,8,1,1,I,8,L,7,L,10,0.511433,0.759963,0.38867
3,131,1,8,8,9,1,C,7,L,1,S,8,0.239742,0.834159,0.199983
3,132,1,9,2,8,1,C,8,L,6,S,7,0.14931,0.877604,0.131035
3,133,1,2,9,8,1,I,1,S,1,S,11,0.403479,0.79438,0.320516
3,134,8,9,8,9,1,C,1,S,1,S,12,0.400503,0.759131,0.304034
3,135,1,9,2,1,1,I,8,L,1,S,9,0.354017,0.80791,0.286014
3,136,9,1,2,1,1,C,8,L,1,S,7,0.787166,0.208749,0.16432
3,137,8,9,8,1,0,I,1,S,7,L,10,0.780098,0.385471,0.300705
3,138,9,1,8,9,1,I,8,L,1,S,8,0.804707,0.268114,0.215753
3,139,9,2,1,2,1,I,7,L,1,S,9,0.758124,0.38186,0.289497
3,140,8,1,9,8,1,C,7,L,1,S,8,0.850213,0.22329,0.189844
3,141,8,1,8,1,1,C,7,L,7,L,7,0.897731,0.138086,0.123964
3,142,1,9,9,1,1,I,8,L,8,L,10,0.513722,0.758521,0.389669
3,143,2,9,9,2,1,I,7,L,7,L,11,0.527449,0.769491,0.405868
3,144,1,2,2,9,1,C,1,S,7,L,8,0.202347,0.865976,0.175227
4,1,1,8,2,8,1,C,7,L,6,S,7,0.154902,0.868869,0.13459
4,2,2,1,8,2,1,C,1,S,6,S,8,0.798425,0.251098,0.200483
4,3,9,8,2,1,1,C,1,S,1,S,10,0.763959,0.352532,0.26932
4,4,8,1,2,1,1,C,7,L,1,S,7,0.782651,0.21081,0.164991
4,5,1,2,2,9,1,C,1,S,7,L,8,0.215247,0.847145,0.182345
4,6,2,8,2,1,1,I,6,S,1,S,10,0.413652,0.80031,0.33105
4,7,8,1,8,9,1,I,7,L,1,S,8,0.757767,0.312999,0.23718
4,8,8,1,2,8,1,I,7,L,6,S,10,0.764541,0.485157,0.370923
4,9,8,2,8,9,1,I,6,S,1,S,9,0.790412,0.339406,0.268271
4,10,8,9,1,2,1,C,1,S,1,S,9,0.314419,0.769538,0.241957
4,11,2,8,8,2,1,I,6,S,6,S,11,0.520277,0.775724,0.403591
4,12,2,1,9,1,1,C,1,S,8,L,8,0.84135,0.222331,0.187058
4,13,8,9,2,1,1,I,1,S,1,S,17,0.600862,0.771024,0.463279
4,14,9,2,1,9,1,I,7,L,8,L,11,0.751915,0.556451,0.418403
4,15,8,2,1,8,1,I,6,S,7,L,12,0.780454,0.556928,0.434657
4,16,9,8,8,2,1,C,1,S,6,S,9,0.787574,0.310923,0.244875
4,17,8,9,1,8,1,C,1,S,7,L,8,0.259815,0.796854,0.207035
4,18,2,1,1,9,1,I,1,S,8,L,19,0.768275,0.652227,0.501089
4,19,2,8,2,9,1,C,6,S,7,L,7,0.168851,0.849393,0.143421
4,20,2,1,9,2,1,C,1,S,7,L,8,0.810461,0.24323,0.197129
4,21,8,2,9,8,1,C,6,S,1,S,8,0.822004,0.238651,0.196172
4,22,8,2,1,2,1,I,6,S,1,S,10,0.797904,0.410666,0.327672
4,23,8,1,1,2,1,I,7,L,1,S,9,0.784106,0.373322,0.292724
4,24,8,9,2,8,1,C,1,S,6,S,8,0.279626,0.765758,0.214126
4,25,1,9,8,2,1,I,8,L,6,S,10,0.471003,0.793695,0.373833
4,26,2,8,8,9,1,C,6,S,1,S,8,0.236362,0.827076,0.195489
4,27,9,2,1,8,1,I,7,L,7,L,11,0.763326,0.539953,0.41216
4,28,9,1,2,9,1,I,8,L,7,L,10,0.762103,0.498673,0.38004
4,29,9,1,8,9,1,I,8,L,1,S,8,0.771074,0.303903,0.234332
4,30,8,9,9,8,1,I,1,S,1,S,15,0.541721,0.777547,0.421214
4,31,8,2,9,2,1,C,6,S,7,L,7,0.834791,0.179216,0.149608
4,32,9,2,8,2,1,C,7,L,6,S,7,0.839696,0.175421,0.1473
4,33,1,8,9,1,1,I,7,L,8,L,11,0.531544,0.787532,0.418608
4,34,8,2,8,2,1,C,6,S,6,S,7,0.823554,0.186396,0.153507
4,35,8,9,9,1,0,I,1,S,8,L,12,0.751465,0.5277,0.396548
4,36,2,1,1,8,1,I,1,S,7,L,18,0.757635,0.650915,0.493156
4,37,1,9,1,9,1,C,8,L,8,L,6,0.157286,0.77654,0.122139
4,38,9,1,9,2,1,C,8,L,7,L,7,0.881995,0.14744,0.130042
4,39,2,1,2,8,1,I,1,S,6,S,17,0.753748,0.63725,0.480326
4,40,2,9,1,9,1,C,7,L,8,L,7,0.144073,0.89157,0.128451
4,41,9,1,1,9,1,I,8,L,8,L,11,0.78437,0.532698,0.417832
4,42,8,2,2,1,1,C,6,S,1,S,8,0.872288,0.199447,0.173975
4,43,2,9,9,8,1,I,7,L,1,S,9,0.328416,0.815892,0.267952
4,44,9,1,1,8,1,I,8,L,7,L,10,0.756438,0.507449,0.383854
4,45,1,2,1,2,1,C,1,S,1,S,9,0.255337,0.842783,0.215194
4,46,9,8,9,1,1,C,1,S,8,L,8,0.752664,0.297159,0.223661
4,47,9,2,8,1,1,C,7,L,7,L,7,0.872349,0.153743,0.134118
4,48,1,9,2,1,1,I,8,L,1,S,9,0.363019,0.807739,0.293225
4,49,9,2,2,1,1,C,7,L,1,S,7,0.764235,0.223145,0.170536
4,50,1,8,2,9,1,C,7,L,7,L,7,0.141605,0.889837,0.126005
4,51,9,1,9,1,1,C,8,L,8,L,6,0.761681,0.164532,0.125321
4,52,9,2,2,9,1,I,7,L,7,L,11,0.769037,0.531317,0.408603
4,53,2,1,8,1,1,C,1,S,7,L,8,0.832976,0.227675,0.189647
4,54,2,1,9,8,1,C,1,S,1,S,9,0.751604,0.321427,0.241586
4,55,9,8,8,1,1,C,1,S,7,L,9,0.822743,0.286488,0.235706
4,56,9,2,8,9,1,I,7,L,1,S,9,0.808325,0.326781,0.264145
4,57,2,1,8,9,1,I,1,S,1,S,13,0.775916,0.485134,0.376423
4,58,8,2,2,9,1,I,6,S,7,L,11,0.751549,0.544227,0.409013
4,59,8,1,8,1,1,C,7,L,7,L,7,0.890765,0.141408,0.125961
4,60,9,8,8,9,1,I,1,S,1,S,23,0.770451,0.619033,0.476935
4,61,9,2,1,2,1,I,7,L,1,S,9,0.764114,0.387296,0.295938
4,62,1,9,9,2,1,I,8,L,7,L,10,0.483335,0.785197,0.379513
4,63,9,8,1,2,0,I,1,S,1,S,14,0.491362,0.760455,0.373658
4,64,2,8,9,1,1,I,6,S,8,L,12,0.566233,0.779697,0.44149
4,65,1,2,9,2,1,I,1,S,7,L,16,0.630251,0.760117,0.479065
4,66,1,9,1,8,1,C,8,L,7,L,6,0.166128,0.76202,0.126593
4,67,2,9,8,1,1,I,7,L,7,L,11,0.541712,0.770808,0.417556
4,68,1,9,9,1,1,I,8,L,8,L,10,0.514316,0.763192,0.392522
4,69,9,1,2,8,1,I,8,L,6,S,10,0.777909,0.475572,0.369952
4,70,2,9,2,8,1,C,7,L,6,S,7,0.172108,0.846483,0.145687
4,71,2,8,1,9,1,C,6,S,8,L,7,0.154113,0.873513,0.13462
4,72,1,2,8,9,1,C,1,S,1,S,9,0.299549,0.782268,0.234327
4,73,1,2,1,8,1,C,1,S,7,L,8,0.210028,0.855748,0.179731
4,74,8,1,1,8,1,I,7,L,7,L,11,0.782736,0.52575,0.411524
4,75,1,2,2,1,1,I,1,S,1,S,13,0.543381,0.752556,0.408924
4,76,9,8,9,8,1,C,1,S,1,S,11,0.757822,0.381337,0.288986
4,77,8,1,2,9,1,I,7,L,7,L,11,0.788448,0.517114,0.407718
4,78,2,9,9,2,1,I,7,L,7,L,11,0.519695,0.787075,0.409039
4,79,1,8,1,9,1,C,7,L,8,L,6,0.163639,0.763905,0.125005
4,80,2,9,2,9,1,C,7,L,7,L,7,0.158811,0.86745,0.137761
4,81,1,8,2,1,1,I,7,L,1,S,9,0.371622,0.7928,0.294622
4,82,2,1,1,2,1,I,1,S,1,S,15,0.770861,0.56793,0.437795
4,83,2,9,9,1,1,I,7,L,8,L,11,0.549947,0.765149,0.420791
4,84,2,9,1,2,1,C,7,L,1,S,7,0.224336,0.770118,0.172765
4,85,1,2,1,9,1,C,1,S,8,L,7,0.231605,0.753017,0.174402
4,86,1,9,9,8,1,I,8,L,1,S,8,0.300068,0.78485,0.235509
4,87,8,1,9,2,1,C,7,L,7,L,7,0.869348,0.155906,0.135536
4,88,1,9,1,2,1,C,8,L,1,S,7,0.19977,0.806441,0.161102
4,89,8,9,1,9,1,C,1,S,8,L,8,0.249072,0.813596,0.202644
4,90,9,2,9,2,1,C,7,L,7,L,7,0.850933,0.168241,0.143161
4,91,1,8,1,2,1,C,7,L,1,S,7,0.20713,0.792504,0.164151
4,92,9,8,1,8,0,I,1,S,7,L,10,0.360978,0.795044,0.286993
4,93,2,8,1,2,1,C,6,S,1,S,7,0.234376,0.75206,0.176265
4,94,2,8,2,8,1,C,6,S,6,S,7,0.182148,0.828425,0.150896
4,95,8,1,8,2,1,C,7,L,6,S,7,0.858112,0.163086,0.139946
4,96,8,1,1,9,1,I,7,L,8,L,11,0.771325,0.542247,0.418249
4,97,9,8,1,9,0,I,1,S,8,L,9,0.347383,0.764316,0.26551
4,98,9,2,9,1,1,C,7,L,8,L,7,0.880385,0.148767,0.130972
4,99,9,8,2,9,0,I,1,S,7,L,10,0.366643,0.786268,0.288279
4,100,9,2,9,8,1,C,7,L,1,S,8,0.83941,0.226647,0.19025
4,101,8,9,8,9,1,C,1,S,1,S,10,0.327272,0.795373,0.260303
4,102,2,9,2,1,1,I,7,L,1,S,9,0.390287,0.769193,0.300206
4,103,2,8,9,2,1,I,6,S,7,L,11,0.53237,0.767194,0.408431
4,104,9,2,2,8,1,I,7,L,6,S,11,0.784922,0.508644,0.399246
4,105,2,1,2,9,1,I,1,S,7,L,18,0.76245,0.643988,0.491009
4,106,8,2,1,9,1,I,6,S,8,L,12,0.769175,0.572969,0.440713
4,107,1,8,8,1,1,I,7,L,7,L,10,0.514819,0.753897,0.388121
4,108,9,1,2,1,1,C,8,L,1,S,7,0.795298,0.202345,0.160924
4,109,8,9,2,9,1,C,1,S,7,L,8,0.265033,0.788252,0.208913
4,110,8,2,8,1,1,C,6,S,7,L,7,0.856207,0.164718,0.141033
4,111,8,2,2,8,1,I,6,S,6,S,11,0.767434,0.521554,0.400258
4,112,2,9,1,8,1,C,7,L,7,L,7,0.154047,0.875572,0.13488
4,113,1,9,2,8,1,C,8,L,6,S,7,0.147542,0.882806,0.130251
4,114,1,8,8,9,1,C,7,L,1,S,7,0.234822,0.757023,0.177766
4,115,9,1,8,1,1,C,8,L,7,L,6,0.754336,0.168963,0.127455
4,116,9,8,2,8,0,I,1,S,6,S,10,0.382449,0.763166,0.291873
4,117,9,1,8,2,1,C,8,L,6,S,7,0.870759,0.15462,0.134637
4,118,1,8,9,8,1,I,7,L,1,S,8,0.30817,0.770202,0.237353
4,119,2,9,8,2,1,I,7,L,6,S,10,0.498598,0.755566,0.376724
4,120,9,8,9,2,1,C,1,S,7,L,9,0.799928,0.30263,0.242082
4,121,1,8,1,8,1,C,7,L,7,L,7,0.136841,0.897958,0.122878
4,122,8,9,8,1,1,I,1,S,7,L,20,0.662155,0.76342,0.505503
4,123,9,1,9,8,1,C,8,L,1,S,7,0.757593,0.233284,0.176735
4,124,2,8,9,8,1,I,6,S,1,S,9,0.340423,0.795873,0.270934
4,125,1,2,8,2,1,I,1,S,6,S,16,0.620343,0.767521,0.476126
4,126,9,1,1,2,1,I,8,L,1,S,9,0.797602,0.363871,0.290224
4,127,8,2,9,1,1,C,6,S,8,L,7,0.864243,0.159743,0.138057
4,128,8,9,8,2,1,I,1,S,6,S,19,0.651404,0.761193,0.495844
4,129,2,8,1,8,1,C,6,S,7,L,7,0.164087,0.857514,0.140707
4,130,1,8,8,2,1,I,7,L,6,S,10,0.479905,0.778744,0.373723
4,131,1,2,9,1,1,I,1,S,8,L,17,0.645524,0.76349,0.492851
4,132,1,2,8,1,1,I,1,S,7,L,17,0.638706,0.768366,0.490759
4,133,2,8,8,1,1,I,6,S,7,L,11,0.554387,0.750927,0.416304
4,134,1,9,8,1,1,I,8,L,7,L,10,0.505917,0.768848,0.388973
4,135,8,1,9,8,1,C,7,L,1,S,8,0.858997,0.213279,0.183206
4,136,2,9,8,9,1,C,7,L,1,S,8,0.225149,0.84648,0.190584
4,137,8,1,9,1,1,C,7,L,8,L,6,0.750335,0.17205,0.129095
4,138,1,2,2,8,1,C,1,S,6,S,8,0.229839,0.824652,0.189537
4,139,1,9,8,9,1,C,8,L,1,S,7,0.227462,0.77096,0.175364
4,140,8,9,9,2,1,I,1,S,7,L,19,0.660145,0.754675,0.498195
4,141,1,2,9,8,1,I,1,S,1,S,12,0.460332,0.77947,0.358815
4,142,2,1,2,1,1,C,1,S,1,S,9,0.813475,0.274728,0.223484
4,143,1,8,9,2,1,I,7,L,7,L,10,0.492238,0.770246,0.379144
4,144,1,9,2,9,1,C,8,L,7,L,6,0.170257,0.754775,0.128506
5,1,1,9,2,8,1,C,8,L,6,S,7,0.144571,0.884013,0.127802
5,2,8,1,9,1,1,C,7,L,8,L,6,0.751688,0.172864,0.129939
5,3,8,1,1,8,1,I,7,L,7,L,10,0.755505,0.510719,0.385851
5,4,2,1,9,8,1,C,1,S,1,S,10,0.805635,0.313778,0.25279
5,5,1,2,1,2,1,C,1,S,1,S,8,0.270569,0.761607,0.206067
5,6,8,2,1,9,1,I,6,S,8,L,12,0.778583,0.561327,0.437039
5,7,2,8,8,2,1,I,6,S,6,S,11,0.507688,0.787696,0.399904
5,8,8,2,8,9,1,I,6,S,1,S,8,0.752118,0.30415,0.228757
5,9,8,2,9,1,1,C,6,S,8,L,7,0.856594,0.163431,0.139994
5,10,2,9,1,2,1,C,7,L,1,S,7,0.219067,0.77327,0.169398
5,11,8,1,1,2,1,I,7,L,1,S,9,0.79254,0.373581,0.296078
5,12,8,9,2,8,1,C,1,S,6,S,9,0.292738,0.806391,0.236061
5,13,8,2,8,1,1,C,6,S,7,L,7,0.848167,0.169465,0.143735
5,14,9,1,8,9,1,I,8,L,1,S,8,0.807702,0.268232,0.216652
5,15,8,1,9,8,1,C,7,L,1,S,8,0.853522,0.21964,0.187468
5,16,1,8,2,9,1,C,7,L,7,L,7,0.144072,0.885257,0.12754
5,17,9,2,8,2,1,C,7,L,6,S,7,0.833896,0.177507,0.148022
5,18,1,8,2,8,1,C,7,L,6,S,7,0.147658,0.877987,0.129642
5,19,9,1,2,1,1,C,8,L,1,S,7,0.776073,0.219199,0.170114
5,20,9,8,8,9,1,I,1,S,1,S,18,0.752271,0.557313,0.419251
5,21,8,1,8,1,1,C,7,L,7,L,7,0.89215,0.143019,0.127595
5,22,8,1,1,9,1,I,7,L,8,L,10,0.752085,0.516984,0.388816
5,23,2,9,8,2,1,I,7,L,6,S,10,0.492981,0.756405,0.372893
5,24,1,8,9,2,1,I,7,L,7,L,10,0.481529,0.780214,0.375696
5,25,2,1,1,8,1,I,1,S,7,L,18,0.75017,0.657596,0.493309
5,26,9,2,8,9,1,I,7,L,1,S,8,0.764395,0.294699,0.225267
5,27,9,1,8,2,1,C,8,L,6,S,7,0.874719,0.153342,0.134131
5,28,8,1,9,2,1,C,7,L,7,L,7,0.877486,0.151902,0.133292
5,29,9,2,9,8,1,C,7,L,1,S,8,0.818832,0.239277,0.195927
5,30,1,9,2,9,1,C,8,L,7,L,7,0.140984,0.891284,0.125657
5,31,9,1,1,2,1,I,8,L,1,S,9,0.801169,0.36662,0.293725
5,32,8,2,8,2,1,C,6,S,6,S,7,0.822437,0.186293,0.153214
5,33,9,1,9,2,1,C,8,L,7,L,7,0.885785,0.145397,0.12879
5,34,2,8,9,8,1,I,6,S,1,S,9,0.306725,0.822792,0.252371
5,35,2,1,9,2,1,C,1,S,7,L,8,0.799706,0.25092,0.200663
5,36,1,8,1,9,1,C,7,L,8,L,6,0.164163,0.762279,0.125138
5,37,1,9,2,1,1,I,8,L,1,S,8,0.313355,0.77114,0.24164
5,38,8,2,1,8,1,I,6,S,7,L,12,0.782142,0.555171,0.434222
5,39,8,9,8,2,0,I,1,S,6,S,11,0.769393,0.428027,0.329321
5,40,1,9,9,8,1,I,8,L,1,S,8,0.280334,0.797047,0.223439
5,41,1,9,1,8,1,C,8,L,7,L,6,0.163747,0.762601,0.124873
5,42,8,2,2,1,1,C,6,S,1,S,8,0.839575,0.222821,0.187075
5,43,8,1,2,1,1,C,7,L,1,S,7,0.767774,0.225704,0.173289
5,44,2,1,2,9,1,I,1,S,7,L,18,0.762887,0.640823,0.488875
5,45,9,8,8,1,1,C,1,S,7,L,9,0.815217,0.288187,0.234935
5,46,9,2,2,8,1,I,7,L,6,S,11,0.780586,0.510748,0.398683
5,47,2,8,9,2,1,I,6,S,7,L,11,0.519474,0.778602,0.404464
5,48,2,8,2,9,1,C,6,S,7,L,7,0.16902,0.846342,0.143048
5,49,1,8,8,9,1,C,7,L,1,S,8,0.229306,0.846136,0.194024
5,50,2,9,9,1,1,I,7,L,8,L,11,0.538343,0.769929,0.414486
5,51,2,8,8,9,1,C,6,S,1,S,8,0.256297,0.805044,0.206331
5,52,1,8,1,2,1,C,7,L,1,S,7,0.19827,0.804455,0.159499
5,53,1,8,8,1,1,I,7,L,7,L,10,0.497471,0.769664,0.382885
5,54,1,2,2,9,1,C,1,S,7,L,8,0.208153,0.854506,0.177868
5,55,1,9,8,9,1,C,8,L,1,S,8,0.225897,0.852469,0.19257
5,56,1,8,9,1,1,I,7,L,8,L,10,0.506229,0.763012,0.386259
5,57,8,9,2,1,1,I,1,S,1,S,20,0.62273,0.75568,0.470585
5,58,1,8,9,8,1,I,7,L,1,S,8,0.283743,0.790713,0.224359
5,59,2,1,8,9,1,I,1,S,1,S,11,0.750137,0.411751,0.308869
5,60,1,8,1,8,1,C,7,L,7,L,6,0.166402,0.757129,0.125988
5,61,2,8,1,2,1,C,6,S,1,S,7,0.223218,0.765539,0.170882
5,62,8,1,2,9,1,I,7,L,7,L,10,0.771517,0.487954,0.376465
5,63,2,8,2,8,1,C,6,S,6,S,7,0.172606,0.839071,0.144828
5,64,2,9,9,8,1,I,7,L,1,S,8,0.306087,0.757917,0.231989
5,65,9,1,1,8,1,I,8,L,7,L,10,0.763947,0.503777,0.384859
5,66,1,2,1,9,1,C,1,S,8,L,7,0.224507,0.760013,0.170629
5,67,2,8,1,9,1,C,6,S,8,L,7,0.152462,0.873274,0.133141
5,68,1,9,1,9,1,C,8,L,8,L,6,0.161507,0.767752,0.123997
5,69,1,2,9,8,1,I,1,S,1,S,11,0.39701,0.791809,0.314356
5,70,9,8,2,1,1,C,1,S,1,S,11,0.791694,0.350976,0.277866
5,71,2,8,8,1,1,I,6,S,7,L,11,0.535139,0.767984,0.410978
5,72,9,1,1,9,1,I,8,L,8,L,10,0.760527,0.510042,0.387901
5,73,2,1,1,2,1,I,1,S,1,S,15,0.756307,0.58301,0.440934
5,74,8,1,2,8,1,I,7,L,6,S,10,0.776244,0.479637,0.372316
5,75,9,8,9,8,1,C,1,S,1,S,12,0.795852,0.36461,0.290175
5,76,8,2,1,2,1,I,6,S,1,S,10,0.795369,0.415928,0.330816
5,77,9,8,1,9,0,I,1,S,8,L,10,0.362857,0.793946,0.288089
5,78,1,9,9,2,1,I,8,L,7,L,10,0.477761,0.786692,0.375851
5,79,9,8,2,9,0,I,1,S,7,L,10,0.382289,0.764916,0.292419
5,80,8,9,1,9,1,C,1,S,8,L,8,0.290764,0.758507,0.220546
5,81,1,2,1,8,1,C,1,S,7,L,7,0.227183,0.754287,0.171361
5,82,1,2,8,2,1,I,1,S,6,S,15,0.605694,0.768078,0.46522
5,83,9,2,1,9,1,I,7,L,8,L,11,0.7562,0.547523,0.414037
5,84,1,9,8,2,1,I,8,L,6,S,10,0.465661,0.795831,0.370587
5,85,8,2,2,8,1,I,6,S,6,S,11,0.768562,0.520542,0.400069
5,86,8,9,2,9,1,C,1,S,7,L,9,0.288259,0.814601,0.234816
5,87,2,9,1,8,1,C,7,L,7,L,7,0.150986,0.875279,0.132155
5,88,8,9,9,1,0,I,1,S,8,L,10,0.776206,0.387919,0.301105
5,89,1,8,2,1,1,I,7,L,1,S,8,0.316764,0.764807,0.242263
5,90,2,9,9,2,1,I,7,L,7,L,11,0.514176,0.787129,0.404723
5,91,8,2,2,9,1,I,6,S,7,L,11,0.763695,0.528821,0.403858
5,92,2,1,8,2,1,C,1,S,6,S,8,0.787824,0.259538,0.20447
5,93,8,1,8,9,1,I,7,L,1,S,8,0.799085,0.275063,0.219798
5,94,9,8,2,8,0,I,1,S,6,S,10,0.387016,0.756599,0.292816
5,95,1,2,9,1,1,I,1,S,8,L,16,0.628625,0.768,0.482784
5,96,9,1,2,9,1,I,8,L,7,L,10,0.779959,0.481011,0.375169
5,97,9,8,9,2,1,C,1,S,7,L,9,0.799249,0.298461,0.238545
5,98,2,9,8,1,1,I,7,L,7,L,11,0.529841,0.776511,0.411428
5,99,1,2,2,8,1,C,1,S,6,S,8,0.212256,0.846617,0.179699
5,100,2,1,2,1,1,C,1,S,1,S,9,0.762473,0.312265,0.238093
5,101,8,9,9,2,0,I,1,S,7,L,10,0.751507,0.40512,0.304451
5,102,2,9,2,8,1,C,7,L,6,S,7,0.168455,0.846802,0.142648
5,103,1,9,9,1,1,I,8,L,8,L,10,0.502461,0.76949,0.386639
5,104,9,1,8,1,1,C,8,L,7,L,6,0.751627,0.17235,0.129543
5,105,8,9,1,8,1,C,1,S,7,L,8,0.293777,0.752445,0.221051
5,106,1,2,2,1,1,I,1,S,1,S,12,0.466275,0.784143,0.365626
5,107,2,9,1,9,1,C,7,L,8,L,7,0.148311,0.881005,0.130662
5,108,2,1,8,1,1,C,1,S,7,L,8,0.815307,0.241186,0.19664
5,109,1,2,8,9,1,C,1,S,1,S,9,0.319225,0.761672,0.243145
5,110,9,2,9,1,1,C,7,L,8,L,7,0.868053,0.154645,0.13424
5,111,1,9,1,2,1,C,8,L,1,S,7,0.195183,0.810481,0.158192
5,112,9,2,2,1,1,C,7,L,1,S,8,0.851853,0.21337,0.18176
5,113,9,2,9,2,1,C,7,L,7,L,7,0.844962,0.169562,0.143273
5,114,9,2,1,8,1,I,7,L,7,L,11,0.759715,0.54129,0.411226
5,115,2,1,1,9,1,I,1,S,8,L,19,0.767312,0.65113,0.49962
5,116,8,9,8,1,0,I,1,S,7,L,10,0.767448,0.394571,0.302813
5,117,8,2,9,8,1,C,6,S,1,S,8,0.806554,0.248728,0.200612
5,118,2,1,9,1,1,C,1,S,8,L,8,0.82412,0.234769,0.193478
5,119,1,2,9,2,1,I,1,S,7,L,15,0.615382,0.76015,0.467783
5,120,1,9,8,1,1,I,8,L,7,L,10,0.493703,0.776142,0.383184
5,121,8,2,9,2,1,C,6,S,7,L,7,0.833503,0.178348,0.148653
5,122,9,2,2,9,1,I,7,L,7,L,11,0.77572,0.519027,0.402619
5,123,2,8,1,8,1,C,6,S,7,L,7,0.155137,0.867548,0.134589
5,124,2,9,8,9,1,C,7,L,1,S,8,0.25165,0.813339,0.204677
5,125,8,1,8,2,1,C,7,L,6,S,7,0.86642,0.159847,0.138495
5,126,2,1,2,8,1,I,1,S,6,S,18,0.767311,0.63385,0.48636
5,127,1,2,8,1,1,I,1,S,7,L,15,0.629066,0.750393,0.472047
5,128,9,1,9,1,1,C,8,L,8,L,6,0.759238,0.166922,0.126734
5,129,2,9,2,1,1,I,7,L,1,S,9,0.345437,0.798255,0.275747
5,130,9,8,1,2,0,I,1,S,1,S,14,0.504871,0.750778,0.379046
5,131,2,8,2,1,1,I,6,S,1,S,9,0.350427,0.789696,0.27673
5,132,1,8,8,2,1,I,7,L,6,S,10,0.469429,0.789353,0.370545
5,133,9,8,1,8,0,I,1,S,7,L,10,0.366277,0.787681,0.288509
5,134,9,1,2,8,1,I,8,L,6,S,10,0.784685,0.472695,0.370917
5,135,9,2,1,2,1,I,7,L,1,S,9,0.756884,0.394563,0.298638
5,136,8,9,1,2,1,C,1,S,1,S,10,0.330451,0.793199,0.262113
5,137,9,8,9,1,1,C,1,S,8,L,9,0.824106,0.281578,0.23205
5,138,2,8,9,1,1,I,6,S,8,L,11,0.543641,0.761402,0.413929
5,139,8,9,8,9,1,C,1,S,1,S,12,0.38357,0.779967,0.299172
5,140,2,9,2,9,1,C,7,L,7,L,7,0.164869,0.854072,0.14081
5,141,9,1,9,8,1,C,8,L,1,S,7,0.752689,0.23828,0.179351
5,142,9,8,8,2,1,C,1,S,6,S,9,0.787073,0.30746,0.241994
5,143,8,9,9,8,1,I,1,S,1,S,18,0.583578,0.756141,0.441268
5,144,9,2,8,1,1,C,7,L,7,L,7,0.859626,0.160679,0.138124
6,1,1,2,9,1,1,I,1,S,8,L,15,0.62495,0.762139,0.476299
6,2,1,9,8,9,1,C,8,L,1,S,7,0.24042,0.754241,0.181335
6,3,2,1,9,8,1,C,1,S,1,S,10,0.809802,0.31359,0.253946
6,4,8,2,2,9,1,I,6,S,7,L,11,0.757985,0.532692,0.403773
6,5,9,8,9,8,1,C,1,S,1,S,12,0.759535,0.395892,0.300694
6,6,8,1,8,1,1,C,7,L,7,L,7,0.895109,0.138229,0.12373
6,7,1,8,1,2,1,C,7,L,1,S,7,0.207487,0.787873,0.163474
6,8,9,1,8,2,1,C,8,L,6,S,7,0.881321,0.146493,0.129107
6,9,9,2,9,8,1,C,7,L,1,S,8,0.792483,0.263204,0.208585
6,10,8,1,2,9,1,I,7,L,7,L,10,0.772005,0.484674,0.374171
6,11,9,2,1,8,1,I,7,L,7,L,12,0.775114,0.56498,0.437924
6,12,9,2,1,2,1,I,7,L,1,S,9,0.752139,0.389743,0.293141
6,13,1,8,8,9,1,C,7,L,1,S,8,0.22215,0.850263,0.188886
6,14,9,1,8,1,1,C,8,L,7,L,6,0.750599,0.170404,0.127905
6,15,8,9,1,2,1,C,1,S,1,S,10,0.354321,0.763162,0.270404
6,16,8,2,8,1,1,C,6,S,7,L,7,0.844844,0.171653,0.14502
6,17,2,1,2,8,1,I,1,S,6,S,16,0.750483,0.629314,0.47229
6,18,2,9,8,1,1,I,7,L,7,L,11,0.53967,0.766214,0.413503
6,19,1,2,8,9,1,C,1,S,1,S,9,0.29219,0.796601,0.232759
6,20,9,8,2,9,0,I,1,S,7,L,10,0.385718,0.762415,0.294077
6,21,1,9,9,8,1,I,8,L,1,S,8,0.269239,0.808923,0.217794
6,22,8,2,9,2,1,C,6,S,7,L,7,0.836001,0.178272,0.149035
6,23,1,2,2,8,1,C,1,S,6,S,8,0.205108,0.859918,0.176376
6,24,1,9,8,2,1,I,8,L,6,S,10,0.480172,0.784283,0.376591
6,25,9,2,8,1,1,C,7,L,7,L,7,0.851173,0.166446,0.141675
6,26,2,9,9,2,1,I,7,L,7,L,11,0.530783,0.773356,0.410484
6,27,9,8,9,1,1,C,1,S,8,L,9,0.828807,0.279693,0.231812
6,28,8,9,2,8,1,C,1,S,6,S,9,0.307063,0.793337,0.243604
6,29,9,8,1,9,0,I,1,S,8,L,9,0.35292,0.757928,0.267488
6,30,2,8,1,8,1,C,6,S,7,L,7,0.158539,0.863521,0.136902
6,31,8,9,1,8,1,C,1,S,7,L,8,0.296336,0.755666,0.223931
6,32,2,1,8,9,1,I,1,S,1,S,11,0.757387,0.415414,0.314629
6,33,1,8,2,8,1,C,7,L,6,S,7,0.154451,0.86809,0.134078
6,34,8,9,9,1,0,I,1,S,8,L,10,0.79326,0.372861,0.295776
6,35,2,1,8,1,1,C,1,S,7,L,8,0.840104,0.22003,0.184848
6,36,1,9,8,1,1,I,8,L,7,L,10,0.499364,0.770736,0.384878
6,37,8,1,9,8,1,C,7,L,1,S,8,0.839335,0.23243,0.195087
6,38,8,1,1,2,1,I,7,L,1,S,9,0.800096,0.357405,0.285959
6,39,2,8,8,9,1,C,6,S,1,S,8,0.254727,0.80189,0.204263
6,40,2,8,1,9,1,C,6,S,8,L,7,0.155232,0.869151,0.13492
6,41,1,8,2,9,1,C,7,L,7,L,7,0.149318,0.876468,0.130872
6,42,8,2,1,9,1,I,6,S,8,L,12,0.764934,0.576265,0.440805
6,43,2,9,9,1,1,I,7,L,8,L,11,0.547779,0.761086,0.416907
6,44,8,9,2,9,1,C,1,S,7,L,9,0.300991,0.802729,0.241615
6,45,1,8,9,1,1,I,7,L,8,L,10,0.513834,0.754037,0.38745
6,46,1,8,9,2,1,I,7,L,7,L,10,0.496434,0.766343,0.380439
6,47,8,2,8,2,1,C,6,S,6,S,7,0.826898,0.183449,0.151693
6,48,9,2,2,9,1,I,7,L,7,L,11,0.764675,0.526934,0.402934
6,49,8,9,8,9,1,C,1,S,1,S,12,0.374341,0.793618,0.297084
6,50,2,9,9,8,1,I,7,L,1,S,8,0.29946,0.764391,0.228905
6,51,2,9,2,9,1,C,7,L,7,L,7,0.172508,0.844844,0.145742
6,52,1,2,8,1,1,I,1,S,7,L,15,0.617617,0.767003,0.473714
6,53,8,2,1,2,1,I,6,S,1,S,10,0.797561,0.405391,0.323324
6,54,9,1,2,9,1,I,8,L,7,L,10,0.776176,0.480982,0.373327
6,55,9,1,1,9,1,I,8,L,8,L,11,0.787496,0.530269,0.417585
6,56,9,2,9,1,1,C,7,L,8,L,7,0.858835,0.162208,0.13931
6,57,2,1,1,2,1,I,1,S,1,S,14,0.771891,0.542143,0.418475
6,58,9,8,2,1,1,C,1,S,1,S,10,0.770927,0.344438,0.265536
6,59,2,9,8,2,1,I,7,L,6,S,11,0.52091,0.779745,0.406177
6,60,9,2,2,8,1,I,7,L,6,S,11,0.771013,0.517642,0.399109
6,61,8,1,8,2,1,C,7,L,6,S,7,0.877164,0.150024,0.131596
6,62,1,9,9,1,1,I,8,L,8,L,10,0.50758,0.76567,0.388639
6,63,9,8,1,8,0,I,1,S,7,L,9,0.356664,0.751969,0.2682
6,64,8,1,9,2,1,C,7,L,7,L,7,0.886267,0.144847,0.128373
6,65,8,9,8,2,0,I,1,S,6,S,10,0.765852,0.391475,0.299812
6,66,2,9,1,2,1,C,7,L,1,S,7,0.230677,0.756249,0.17445
6,67,9,1,9,2,1,C,8,L,7,L,7,0.890424,0.141316,0.125831
6,68,1,8,1,8,1,C,7,L,7,L,6,0.164876,0.759498,0.125223
6,69,1,2,2,9,1,C,1,S,7,L,8,0.199408,0.868993,0.173284
6,70,2,9,2,8,1,C,7,L,6,S,7,0.177641,0.836466,0.148591
6,71,2,1,1,8,1,I,1,S,7,L,18,0.768291,0.644427,0.495107
6,72,9,1,8,9,1,I,8,L,1,S,8,0.791049,0.281347,0.222559
6,73,2,9,8,9,1,C,7,L,1,S,8,0.246869,0.816989,0.20169
6,74,9,8,9,2,1,C,1,S,7,L,9,0.811246,0.29182,0.236738
6,75,8,1,8,9,1,I,7,L,1,S,8,0.786744,0.285028,0.224244
6,76,2,8,9,2,1,I,6,S,7,L,11,0.540081,0.757551,0.409138
6,77,1,9,1,2,1,C,8,L,1,S,7,0.202603,0.798531,0.161785
6,78,2,1,9,2,1,C,1,S,7,L,8,0.83084,0.22705,0.188642
6,79,9,8,1,2,1,I,1,S,1,S,23,0.758502,0.636637,0.48289
6,80,9,1,1,8,1,I,8,L,7,L,10,0.752039,0.515964,0.388025
6,81,9,1,9,1,1,C,8,L,8,L,6,0.75752,0.166728,0.1263
6,82,8,1,9,1,1,C,7,L,8,L,6,0.753738,0.169981,0.128121
6,83,9,1,2,8,1,I,8,L,6,S,10,0.782449,0.471549,0.368963
6,84,9,2,8,2,1,C,7,L,6,S,7,0.833228,0.178241,0.148516
6,85,2,8,2,1,1,I,6,S,1,S,10,0.414518,0.795491,0.329745
6,86,2,1,1,9,1,I,1,S,8,L,18,0.764994,0.649229,0.496656
6,87,8,1,2,8,1,I,7,L,6,S,10,0.778278,0.475241,0.369869
6,88,9,1,9,8,1,C,8,L,1,S,8,0.84364,0.228749,0.192982
6,89,8,2,9,1,1,C,6,S,8,L,7,0.852506,0.167416,0.142723
6,90,1,2,1,2,1,C,1,S,1,S,8,0.267383,0.765653,0.204722
6,91,1,9,1,9,1,C,8,L,8,L,6,0.157865,0.774266,0.122229
6,92,9,2,1,9,1,I,7,L,8,L,12,0.771291,0.570676,0.440157
6,93,2,8,9,1,1,I,6,S,8,L,12,0.560992,0.779685,0.437397
6,94,2,8,2,8,1,C,6,S,6,S,7,0.184516,0.822528,0.15177
6,95,8,9,9,8,1,I,1,S,1,S,18,0.563723,0.764972,0.431232
6,96,2,9,2,1,1,I,7,L,1,S,9,0.394543,0.76004,0.299868
6,97,2,1,2,1,1,C,1,S,1,S,9,0.830595,0.260932,0.216729
6,98,9,8,2,8,0,I,1,S,6,S,10,0.39199,0.752982,0.295162
6,99,2,9,1,8,1,C,7,L,7,L,7,0.151664,0.87746,0.133079
6,100,8,2,2,8,1,I,6,S,6,S,11,0.764323,0.5234,0.400046
6,101,8,2,8,9,1,I,6,S,1,S,9,0.807952,0.315066,0.254559
6,102,1,9,9,2,1,I,8,L,7,L,10,0.49018,0.777975,0.381348
6,103,1,9,2,8,1,C,8,L,6,S,7,0.149567,0.878748,0.131432
6,104,9,1,2,1,1,C,8,L,1,S,7,0.797765,0.200255,0.159757
6,105,8,2,9,8,1,C,6,S,1,S,8,0.785647,0.268803,0.211184
6,106,9,1,1,2,1,I,8,L,1,S,9,0.804387,0.353679,0.284495
6,107,8,2,2,1,1,C,6,S,1,S,8,0.86696,0.202937,0.175938
6,108,8,9,1,9,1,C,1,S,8,L,8,0.292759,0.761545,0.222949
6,109,8,9,9,2,0,I,1,S,7,L,10,0.775859,0.385167,0.298835
6,110,9,8,8,9,1,I,1,S,1,S,20,0.763725,0.591462,0.451714
6,111,1,2,9,2,1,I,1,S,7,L,15,0.610346,0.773157,0.471894
6,112,1,8,8,1,1,I,7,L,7,L,10,0.505618,0.759104,0.383817
6,113,9,2,9,2,1,C,7,L,7,L,7,0.84233,0.173064,0.145777
6,114,1,8,9,8,1,I,7,L,1,S,8,0.274741,0.797665,0.219151
6,115,2,8,9,8,1,I,6,S,1,S,9,0.298261,0.82635,0.246468
6,116,8,1,2,1,1,C,7,L,1,S,7,0.793608,0.203787,0.161727
6,117,1,2,9,8,1,I,1,S,1,S,10,0.359513,0.784914,0.282187
6,118,1,8,8,2,1,I,7,L,6,S,10,0.486426,0.772651,0.375837
6,119,9,2,8,9,1,I,7,L,1,S,9,0.814956,0.309268,0.25204
6,120,2,8,1,2,1,C,6,S,1,S,8,0.204568,0.863682,0.176682
6,121,1,2,8,2,1,I,1,S,6,S,14,0.606523,0.754048,0.457347
6,122,2,1,8,2,1,C,1,S,6,S,8,0.82112,0.232782,0.191142
6,123,1,2,1,9,1,C,1,S,8,L,7,0.209954,0.782873,0.164367
6,124,1,8,1,9,1,C,7,L,8,L,6,0.161955,0.764638,0.123837
6,125,8,2,1,8,1,I,6,S,7,L,12,0.768758,0.570569,0.438629
6,126,8,1,1,8,1,I,7,L,7,L,11,0.787357,0.528038,0.415755
6,127,1,9,2,9,1,C,8,L,7,L,7,0.144434,0.887125,0.128131
6,128,1,2,2,1,1,I,1,S,1,S,12,0.504129,0.767045,0.38669
6,129,8,9,2,1,1,I,1,S,1,S,22,0.644955,0.753734,0.486124
6,130,8,1,1,9,1,I,7,L,8,L,11,0.783508,0.53387,0.418291
6,131,2,8,2,9,1,C,6,S,7,L,7,0.179383,0.830905,0.14905
6,132,9,2,2,1,1,C,7,L,1,S,8,0.873796,0.197338,0.172433
6,133,8,9,8,1,0,I,1,S,7,L,10,0.785044,0.377928,0.29669
6,134,2,1,9,1,1,C,1,S,8,L,8,0.848169,0.215384,0.182682
6,135,9,8,8,2,1,C,1,S,6,S,9,0.80126,0.297919,0.238711
6,136,1,2,1,8,1,C,1,S,7,L,7,0.213262,0.777243,0.165756
6,137,2,8,8,1,1,I,6,S,7,L,11,0.548968,0.750408,0.41195
6,138,1,8,2,1,1,I,7,L,1,S,9,0.369049,0.793693,0.292912
6,139,2,9,1,9,1,C,7,L,8,L,7,0.148357,0.88309,0.131012
6,140,2,8,8,2,1,I,6,S,6,S,11,0.530208,0.763939,0.405047
6,141,9,8,8,1,1,C,1,S,7,L,9,0.820586,0.284607,0.233545
6,142,2,1,2,9,1,I,1,S,7,L,17,0.767618,0.627821,0.481927
6,143,1,9,1,8,1,C,8,L,7,L,6,0.160786,0.769126,0.123665
6,144,1,9,2,1,1,I,8,L,1,S,9,0.363098,0.805242,0.292382
7,1,2,8,1,2,1,C,6,S,1,S,8,0.210204,0.853849,0.179482
7,2,1,2,8,2,1,I,1,S,6,S,16,0.630077,0.751859,0.473729
7,3,8,1,8,1,1,C,7,L,7,L,7,0.87989,0.144731,0.127347
7,4,9,2,8,2,1,C,7,L,6,S,7,0.840342,0.17503,0.147085
7,5,2,9,9,8,1,I,7,L,1,S,8,0.301827,0.753733,0.227497
7,6,9,1,1,8,1,I,8,L,7,L,10,0.762537,0.502296,0.383019
7,7,8,2,2,9,1,I,6,S,7,L,11,0.764194,0.524871,0.401104
7,8,9,2,8,1,1,C,7,L,7,L,7,0.861844,0.159662,0.137604
7,9,9,2,1,9,1,I,7,L,8,L,11,0.762803,0.54279,0.414042
7,10,8,2,1,2,1,I,6,S,1,S,9,0.7572,0.379683,0.287496
7,11,1,2,1,8,1,C,1,S,7,L,8,0.220383,0.839119,0.184928
7,12,2,9,2,8,1,C,7,L,6,S,7,0.186308,0.820029,0.152778
7,13,9,2,8,9,1,I,7,L,1,S,8,0.762947,0.296908,0.226525
7,14,1,8,1,2,1,C,7,L,1,S,7,0.215447,0.776015,0.16719
7,15,8,9,1,9,1,C,1,S,8,L,9,0.279097,0.82749,0.23095
7,16,2,9,8,9,1,C,7,L,1,S,8,0.258938,0.794334,0.205684
7,17,2,9,2,1,1,I,7,L,1,S,9,0.390285,0.752845,0.293824
7,18,9,8,9,2,1,C,1,S,7,L,9,0.786042,0.31417,0.246951
7,19,8,2,9,2,1,C,6,S,7,L,7,0.827033,0.182138,0.150634
7,20,8,2,1,9,1,I,6,S,8,L,12,0.776607,0.559443,0.434467
7,21,8,1,9,2,1,C,7,L,7,L,7,0.863557,0.157545,0.136049
7,22,9,8,1,9,0,I,1,S,8,L,9,0.349425,0.757963,0.264851
7,23,9,8,9,1,1,C,1,S,8,L,9,0.808149,0.297751,0.240627
7,24,8,9,9,2,0,I,1,S,7,L,10,0.760046,0.390731,0.296974
7,25,8,2,8,9,1,I,6,S,1,S,9,0.82045,0.29802,0.244511
7,26,1,2,2,9,1,C,1,S,7,L,8,0.236454,0.815057,0.192723
7,27,9,8,2,8,0,I,1,S,6,S,10,0.379717,0.765587,0.290706
7,28,1,8,2,8,1,C,7,L,6,S,7,0.160393,0.85946,0.137851
7,29,8,2,8,1,1,C,6,S,7,L,7,0.843365,0.169324,0.142802
7,30,2,9,8,2,1,I,7,L,6,S,11,0.518833,0.772225,0.400655
7,31,1,2,2,1,1,I,1,S,1,S,14,0.543135,0.772315,0.419471
7,32,9,1,8,1,1,C,8,L,7,L,7,0.894773,0.13736,0.122906
7,33,8,9,2,9,1,C,1,S,7,L,9,0.301019,0.795887,0.239577
7,34,8,9,2,1,1,I,1,S,1,S,23,0.626643,0.770196,0.482638
7,35,8,1,2,9,1,I,7,L,7,L,10,0.763433,0.487071,0.371846
7,36,9,2,9,8,1,C,7,L,1,S,8,0.805836,0.256306,0.20654
7,37,9,8,8,2,1,C,1,S,6,S,9,0.780206,0.317358,0.247604
7,38,1,9,2,9,1,C,8,L,7,L,7,0.153571,0.870286,0.13365
7,39,1,8,8,2,1,I,7,L,6,S,10,0.47961,0.774388,0.371404
7,40,9,2,2,8,1,I,7,L,6,S,10,0.752379,0.492792,0.370766
7,41,9,1,9,1,1,C,8,L,8,L,6,0.750392,0.171079,0.128376
7,42,2,8,8,9,1,C,6,S,1,S,8,0.259458,0.792338,0.205578
7,43,8,1,8,2,1,C,7,L,6,S,7,0.858387,0.160098,0.137426
7,44,1,8,9,1,1,I,7,L,8,L,10,0.507371,0.75444,0.382781
7,45,1,9,1,2,1,C,8,L,1,S,7,0.21517,0.777559,0.167307
7,46,1,8,2,1,1,I,7,L,1,S,9,0.360857,0.795629,0.287108
7,47,2,8,2,1,1,I,6,S,1,S,9,0.390941,0.750721,0.293488
7,48,8,2,9,1,1,C,6,S,8,L,7,0.847643,0.167339,0.141843
7,49,2,9,2,9,1,C,7,L,7,L,7,0.179764,0.829311,0.14908
7,50,8,9,9,8,1,I,1,S,1,S,18,0.547686,0.768752,0.421035
7,51,9,2,9,1,1,C,7,L,8,L,7,0.866122,0.157676,0.136567
7,52,2,1,2,8,1,I,1,S,6,S,16,0.750137,0.627301,0.470562
7,53,2,8,9,8,1,I,6,S,1,S,8,0.302346,0.751736,0.227285
7,54,9,8,8,9,1,I,1,S,1,S,21,0.760219,0.593274,0.451018
7,55,2,8,8,1,1,I,6,S,7,L,11,0.542088,0.752714,0.408037
7,56,1,9,9,2,1,I,8,L,7,L,10,0.484931,0.772831,0.37477
7,57,9,1,9,2,1,C,8,L,7,L,7,0.878441,0.150174,0.131919
7,58,8,2,1,8,1,I,6,S,7,L,12,0.781586,0.552965,0.43219
7,59,1,2,1,9,1,C,1,S,8,L,8,0.215472,0.846047,0.182299
7,60,1,8,1,8,1,C,7,L,7,L,7,0.139072,0.891325,0.123959
7,61,8,9,1,8,1,C,1,S,7,L,9,0.28417,0.820492,0.233159
7,62,2,1,8,1,1,C,1,S,7,L,8,0.832333,0.222195,0.18494
7,63,9,1,2,1,1,C,8,L,1,S,7,0.791051,0.205596,0.162637
7,64,2,9,8,1,1,I,7,L,7,L,11,0.541226,0.754966,0.408607
7,65,2,8,2,9,1,C,6,S,7,L,7,0.180126,0.827502,0.149055
7,66,9,8,9,8,1,C,1,S,1,S,13,0.775249,0.401641,0.311372
7,67,9,1,8,2,1,C,8,L,6,S,7,0.873271,0.152728,0.133373
7,68,1,8,2,9,1,C,7,L,7,L,7,0.153849,0.868741,0.133655
7,69,8,2,2,1,1,C,6,S,1,S,8,0.861511,0.20432,0.176024
7,70,9,1,1,9,1,I,8,L,8,L,10,0.757416,0.509204,0.385679
7,71,9,1,8,9,1,I,8,L,1,S,8,0.797733,0.272886,0.21769
7,72,1,9,2,1,1,I,8,L,1,S,9,0.360355,0.797379,0.28734
7,73,8,1,9,8,1,C,7,L,1,S,8,0.824831,0.240536,0.198402
7,74,1,9,9,1,1,I,8,L,8,L,10,0.506781,0.756247,0.383252
7,75,9,1,1,2,1,I,8,L,1,S,9,0.813384,0.342798,0.278826
7,76,8,9,9,1,0,I,1,S,8,L,10,0.781897,0.374147,0.292544
7,77,2,1,9,1,1,C,1,S,8,L,8,0.836887,0.219947,0.184071
7,78,1,2,9,8,1,I,1,S,1,S,11,0.38722,0.782095,0.302843
7,79,8,2,2,8,1,I,6,S,6,S,11,0.771866,0.514749,0.397317
7,80,2,8,1,8,1,C,6,S,7,L,7,0.16535,0.850086,0.140562
7,81,2,9,9,2,1,I,7,L,7,L,11,0.524716,0.768763,0.403382
7,82,8,1,9,1,1,C,7,L,8,L,7,0.884168,0.142745,0.12621
7,83,8,9,8,1,0,I,1,S,7,L,10,0.777161,0.376718,0.29277
7,84,8,2,9,8,1,C,6,S,1,S,8,0.785789,0.267274,0.210021
7,85,2,1,9,2,1,C,1,S,7,L,8,0.815102,0.235803,0.192203
7,86,1,9,1,9,1,C,8,L,8,L,6,0.169902,0.750808,0.127564
7,87,8,1,1,2,1,I,7,L,1,S,9,0.797173,0.351673,0.280344
7,88,2,1,2,1,1,C,1,S,1,S,9,0.816908,0.267979,0.218914
7,89,9,1,2,8,1,I,8,L,6,S,10,0.787416,0.467436,0.368067
7,90,2,8,2,8,1,C,6,S,6,S,7,0.186671,0.818221,0.152738
7,91,1,9,8,1,1,I,8,L,7,L,10,0.502045,0.758817,0.380961
7,92,2,8,1,9,1,C,6,S,8,L,7,0.160745,0.856702,0.13771
7,93,9,1,2,9,1,I,8,L,7,L,10,0.779736,0.477797,0.372555
7,94,1,8,9,8,1,I,7,L,1,S,8,0.27371,0.79564,0.217775
7,95,2,1,1,2,1,I,1,S,1,S,14,0.778658,0.529627,0.412399
7,96,9,2,2,9,1,I,7,L,7,L,11,0.785098,0.512093,0.402043
7,97,9,1,9,8,1,C,8,L,1,S,8,0.840621,0.232284,0.195263
7,98,9,2,1,8,1,I,7,L,7,L,11,0.767884,0.53607,0.41164
7,99,1,2,1,2,1,C,1,S,1,S,9,0.277517,0.807132,0.223993
7,100,8,1,2,1,1,C,7,L,1,S,7,0.776168,0.212966,0.165298
7,101,9,2,1,2,1,I,7,L,1,S,9,0.778035,0.36779,0.286154
7,102,1,2,9,1,1,I,1,S,8,L,17,0.642013,0.758005,0.486649
7,103,2,8,8,2,1,I,6,S,6,S,11,0.519695,0.769973,0.400151
7,104,1,8,1,9,1,C,7,L,8,L,7,0.134467,0.897941,0.120743
7,105,8,1,1,9,1,I,7,L,8,L,11,0.780794,0.52703,0.411501
7,106,2,9,1,2,1,C,7,L,1,S,8,0.209685,0.855846,0.179458
7,107,2,1,9,8,1,C,1,S,1,S,10,0.799282,0.319761,0.255579
7,108,1,8,8,1,1,I,7,L,7,L,10,0.502635,0.757011,0.3805
7,109,1,9,1,8,1,C,8,L,7,L,7,0.138794,0.89287,0.123925
7,110,9,8,2,9,0,I,1,S,7,L,10,0.372037,0.775948,0.288682
7,111,8,9,2,8,1,C,1,S,6,S,9,0.308542,0.78551,0.242363
7,112,9,8,1,2,0,I,1,S,1,S,14,0.485751,0.755381,0.366927
7,113,1,8,8,9,1,C,7,L,1,S,8,0.230822,0.836242,0.193023
7,114,1,9,8,9,1,C,8,L,1,S,8,0.230424,0.837909,0.193074
7,115,9,8,1,8,0,I,1,S,7,L,9,0.354498,0.750966,0.266216
7,116,1,8,9,2,1,I,7,L,7,L,10,0.485521,0.771024,0.374348
7,117,8,1,2,8,1,I,7,L,6,S,10,0.771113,0.47671,0.367597
7,118,2,1,1,8,1,I,1,S,7,L,17,0.752157,0.64487,0.485044
7,119,2,9,1,9,1,C,7,L,8,L,7,0.160382,0.85851,0.13769
7,120,9,8,2,1,1,C,1,S,1,S,11,0.809575,0.343942,0.278447
7,121,8,9,1,2,1,C,1,S,1,S,11,0.330754,0.820409,0.271353
7,122,1,2,8,9,1,C,1,S,1,S,10,0.311959,0.808757,0.252299
7,123,1,2,8,1,1,I,1,S,7,L,17,0.637755,0.760576,0.485061
7,124,2,1,2,9,1,I,1,S,7,L,17,0.766406,0.626145,0.479881
7,125,2,8,9,2,1,I,6,S,7,L,11,0.525578,0.766511,0.402861
7,126,2,8,9,1,1,I,6,S,8,L,11,0.546807,0.750065,0.410141
7,127,1,9,8,2,1,I,8,L,6,S,10,0.47902,0.776194,0.371813
7,128,2,1,8,9,1,I,1,S,1,S,11,0.769195,0.39428,0.303278
7,129,9,2,9,2,1,C,7,L,7,L,7,0.845512,0.172476,0.14583
7,130,2,1,8,2,1,C,1,S,6,S,8,0.809494,0.238724,0.193245
7,131,1,2,2,8,1,C,1,S,6,S,8,0.24361,0.804997,0.196106
7,132,8,9,8,9,1,C,1,S,1,S,12,0.39217,0.760753,0.298345
7,133,8,2,8,2,1,C,6,S,6,S,7,0.821862,0.184692,0.151792
7,134,8,9,8,2,0,I,1,S,6,S,10,0.754136,0.394094,0.297201
7,135,8,1,1,8,1,I,7,L,7,L,11,0.785874,0.520309,0.408898
7,136,9,8,8,1,1,C,1,S,7,L,9,0.803457,0.300191,0.241191
7,137,1,9,9,8,1,I,8,L,1,S,8,0.273313,0.797307,0.217914
7,138,2,1,1,9,1,I,1,S,8,L,18,0.768945,0.639488,0.491731
7,139,9,2,2,1,1,C,7,L,1,S,7,0.758122,0.227898,0.172774
7,140,1,2,9,2,1,I,1,S,7,L,17,0.626182,0.771059,0.482823
7,141,8,1,8,9,1,I,7,L,1,S,8,0.781942,0.281138,0.219834
7,142,2,9,9,1,1,I,7,L,8,L,11,0.545945,0.752317,0.410724
7,143,1,9,2,8,1,C,8,L,6,S,7,0.160115,0.861004,0.13786
7,144,2,9,1,8,1,C,7,L,7,L,7,0.164987,0.851895,0.140552
8,1,1,9,1,2,1,C,8,L,1,S,7,0.182131,0.827355,0.150687
8,2,1,9,1,8,1,C,8,L,7,L,6,0.161042,0.768821,0.123812
8,3,1,2,9,2,1,I,1,S,7,L,15,0.609764,0.77189,0.470671
8,4,9,2,9,2,1,C,7,L,7,L,7,0.843662,0.173223,0.146141
8,5,2,1,8,2,1,C,1,S,6,S,8,0.793986,0.257897,0.204767
8,6,8,1,8,2,1,C,7,L,6,S,7,0.854788,0.166182,0.14205
8,7,1,2,2,8,1,C,1,S,6,S,8,0.203977,0.866548,0.176756
8,8,8,1,9,2,1,C,7,L,7,L,7,0.8686,0.155752,0.135286
8,9,9,1,8,2,1,C,8,L,6,S,7,0.861171,0.163017,0.140386
8,10,9,1,1,8,1,I,8,L,7,L,11,0.784461,0.531232,0.41673
8,11,1,8,8,2,1,I,7,L,6,S,10,0.472037,0.788372,0.372141
8,12,9,1,1,9,1,I,8,L,8,L,11,0.780609,0.536789,0.419023
8,13,9,8,2,1,1,C,1,S,1,S,11,0.811697,0.340922,0.276726
8,14,8,2,8,1,1,C,6,S,7,L,7,0.856055,0.16547,0.141651
8,15,1,9,1,9,1,C,8,L,8,L,6,0.158017,0.773779,0.12227
8,16,9,8,1,9,0,I,1,S,8,L,9,0.359054,0.756642,0.271675
8,17,1,9,9,1,1,I,8,L,8,L,10,0.512847,0.761479,0.390522
8,18,9,8,8,2,1,C,1,S,6,S,9,0.79317,0.30803,0.24432
8,19,9,2,2,8,1,I,7,L,6,S,11,0.772185,0.52583,0.406038
8,20,1,8,1,9,1,C,7,L,8,L,6,0.162849,0.767711,0.125021
8,21,9,8,9,8,1,C,1,S,1,S,11,0.781325,0.365709,0.285737
8,22,1,8,1,8,1,C,7,L,7,L,6,0.165874,0.762753,0.126521
8,23,1,2,9,1,1,I,1,S,8,L,15,0.636371,0.752194,0.478674
8,24,1,9,9,2,1,I,8,L,7,L,10,0.48143,0.783256,0.377083
8,25,8,1,1,2,1,I,7,L,1,S,9,0.76156,0.4057,0.308965
8,26,8,1,9,1,1,C,7,L,8,L,7,0.898235,0.136727,0.122813
8,27,8,1,8,9,1,I,7,L,1,S,8,0.787718,0.283548,0.223356
8,28,9,2,1,8,1,I,7,L,7,L,11,0.751375,0.555134,0.417114
8,29,8,2,2,1,1,C,6,S,1,S,8,0.845703,0.218626,0.184893
8,30,2,1,2,8,1,I,1,S,6,S,17,0.750251,0.647783,0.486
8,31,1,9,8,1,1,I,8,L,7,L,10,0.503216,0.76922,0.387084
8,32,1,8,8,1,1,I,7,L,7,L,10,0.508766,0.762558,0.387963
8,33,8,1,2,8,1,I,7,L,6,S,10,0.758711,0.496854,0.376969
8,34,1,8,2,9,1,C,7,L,7,L,7,0.142547,0.892003,0.127153
8,35,1,2,9,8,1,I,1,S,1,S,11,0.433014,0.77706,0.336478
8,36,8,9,2,1,1,I,1,S,1,S,23,0.626967,0.766107,0.480324
8,37,9,8,1,2,0,I,1,S,1,S,13,0.480952,0.760859,0.365937
8,38,2,8,1,8,1,C,6,S,7,L,7,0.164715,0.860266,0.141699
8,39,9,8,8,1,1,C,1,S,7,L,9,0.830078,0.282725,0.234684
8,40,1,9,2,8,1,C,8,L,6,S,7,0.141928,0.891367,0.12651
8,41,1,9,9,8,1,I,8,L,1,S,8,0.302523,0.78154,0.236434
8,42,8,9,1,9,1,C,1,S,8,L,8,0.294065,0.754191,0.221781
8,43,9,1,9,2,1,C,8,L,7,L,7,0.874982,0.152588,0.133511
8,44,8,9,1,8,1,C,1,S,7,L,9,0.279944,0.828952,0.23206
8,45,2,1,2,1,1,C,1,S,1,S,9,0.778183,0.303093,0.235862
8,46,9,2,1,2,1,I,7,L,1,S,10,0.784361,0.438266,0.343759
8,47,9,1,8,9,1,I,8,L,1,S,8,0.794508,0.279996,0.222459
8,48,2,9,8,1,1,I,7,L,7,L,11,0.549134,0.757415,0.415923
8,49,8,9,9,1,0,I,1,S,8,L,9,0.757012,0.353003,0.267227
8,50,8,2,9,2,1,C,6,S,7,L,7,0.835911,0.177251,0.148166
8,51,2,9,2,8,1,C,7,L,6,S,7,0.174807,0.84242,0.147261
8,52,8,9,2,9,1,C,1,S,7,L,9,0.295043,0.806741,0.238023
8,53,1,9,2,1,1,I,8,L,1,S,8,0.320485,0.764885,0.245134
8,54,2,8,8,1,1,I,6,S,7,L,12,0.561802,0.78135,0.438963
8,55,9,1,1,2,1,I,8,L,1,S,9,0.768542,0.401872,0.308856
8,56,9,2,9,8,1,C,7,L,1,S,8,0.836166,0.230697,0.192901
8,57,8,9,9,2,0,I,1,S,7,L,10,0.771104,0.379473,0.292613
8,58,2,1,9,8,1,C,1,S,1,S,9,0.755112,0.323087,0.243967
8,59,9,2,8,1,1,C,7,L,7,L,7,0.863806,0.161442,0.139454
8,60,2,8,1,2,1,C,6,S,1,S,7,0.222977,0.768215,0.171294
8,61,8,2,9,1,1,C,6,S,8,L,7,0.865546,0.158226,0.136952
8,62,2,9,2,1,1,I,7,L,1,S,9,0.364208,0.778213,0.283432
8,63,2,9,8,2,1,I,7,L,6,S,11,0.513198,0.783235,0.401955
8,64,1,8,2,1,1,I,7,L,1,S,8,0.325978,0.758048,0.247107
8,65,9,1,2,8,1,I,8,L,6,S,10,0.765736,0.492851,0.377394
8,66,9,2,8,2,1,C,7,L,6,S,7,0.829851,0.183652,0.152404
8,67,2,1,9,1,1,C,1,S,8,L,8,0.839939,0.226144,0.189947
8,68,9,1,2,9,1,I,8,L,7,L,10,0.760282,0.500757,0.380717
8,69,9,8,9,2,1,C,1,S,7,L,9,0.808263,0.296373,0.239547
8,70,1,9,8,9,1,C,8,L,1,S,8,0.227553,0.853244,0.194159
8,71,1,2,8,1,1,I,1,S,7,L,15,0.628732,0.758735,0.477041
8,72,9,1,8,1,1,C,8,L,7,L,7,0.895126,0.140807,0.12604
8,73,1,2,1,9,1,C,1,S,8,L,7,0.21676,0.776499,0.168314
8,74,2,9,9,8,1,I,7,L,1,S,9,0.341137,0.798207,0.272298
8,75,9,2,1,9,1,I,7,L,8,L,12,0.781896,0.564393,0.441296
8,76,2,8,8,2,1,I,6,S,6,S,11,0.522057,0.772523,0.403301
8,77,9,2,9,1,1,C,7,L,8,L,7,0.873297,0.154198,0.13466
8,78,8,2,9,8,1,C,6,S,1,S,8,0.827741,0.235281,0.194752
8,79,8,2,1,9,1,I,6,S,8,L,12,0.773244,0.569795,0.440591
8,80,1,8,9,8,1,I,7,L,1,S,8,0.308016,0.774703,0.238621
8,81,2,1,8,9,1,I,1,S,1,S,11,0.759979,0.410626,0.312067
8,82,1,8,1,2,1,C,7,L,1,S,7,0.187387,0.820736,0.153795
8,83,8,2,1,8,1,I,6,S,7,L,12,0.777049,0.56439,0.438559
8,84,8,9,2,8,1,C,1,S,6,S,9,0.300373,0.79881,0.239941
8,85,9,2,2,1,1,C,7,L,1,S,8,0.854128,0.214042,0.182819
8,86,1,8,8,9,1,C,7,L,1,S,8,0.233046,0.846406,0.197252
8,87,1,2,8,2,1,I,1,S,6,S,14,0.602698,0.756718,0.456073
8,88,1,8,9,2,1,I,7,L,7,L,10,0.48698,0.776594,0.378186
8,89,8,1,1,9,1,I,7,L,8,L,11,0.773635,0.540888,0.41845
8,90,2,8,9,1,1,I,6,S,8,L,12,0.570706,0.773952,0.441699
8,91,2,1,1,9,1,I,1,S,8,L,18,0.752284,0.663605,0.49922
8,92,9,1,2,1,1,C,8,L,1,S,7,0.767276,0.224428,0.172199
8,93,8,1,2,1,1,C,7,L,1,S,7,0.760894,0.227593,0.173174
8,94,8,9,8,2,0,I,1,S,6,S,10,0.756161,0.391252,0.295849
8,95,9,8,8,9,1,I,1,S,1,S,18,0.770959,0.553088,0.426408
8,96,2,9,9,2,1,I,7,L,7,L,11,0.527694,0.771571,0.407153
8,97,2,8,2,8,1,C,6,S,6,S,7,0.182774,0.832227,0.15211
8,98,2,8,1,9,1,C,6,S,8,L,7,0.161319,0.865696,0.139653
8,99,8,1,2,9,1,I,7,L,7,L,10,0.753257,0.504761,0.380215
8,100,2,9,8,9,1,C,7,L,1,S,8,0.262947,0.801611,0.210781
8,101,8,2,1,2,1,I,6,S,1,S,10,0.775491,0.443499,0.343929
8,102,9,8,9,1,1,C,1,S,8,L,8,0.758318,0.293617,0.222655
8,103,2,9,1,9,1,C,7,L,8,L,7,0.153352,0.875888,0.134319
8,104,2,9,1,2,1,C,7,L,1,S,7,0.21501,0.778408,0.167365
8,105,2,8,8,9,1,C,6,S,1,S,8,0.271518,0.79067,0.214681
8,106,9,2,8,9,1,I,7,L,1,S,8,0.761197,0.302401,0.230186
8,107,2,1,1,8,1,I,1,S,7,L,18,0.755472,0.659174,0.497987
8,108,9,2,2,9,1,I,7,L,7,L,11,0.766716,0.533578,0.409103
8,109,2,8,9,2,1,I,6,S,7,L,11,0.536553,0.760859,0.408241
8,110,1,2,1,8,1,C,1,S,7,L,7,0.220155,0.771069,0.169755
8,111,9,1,9,8,1,C,8,L,1,S,7,0.754454,0.237526,0.179203
8,112,2,8,9,8,1,I,6,S,1,S,9,0.350023,0.787025,0.275476
8,113,2,1,1,2,1,I,1,S,1,S,16,0.773349,0.594163,0.459495
8,114,9,8,1,8,0,I,1,S,7,L,9,0.362844,0.750921,0.272467
8,115,8,1,9,8,1,C,7,L,1,S,8,0.862687,0.211845,0.182756
8,116,1,2,2,9,1,C,1,S,7,L,7,0.233578,0.750285,0.17525
8,117,1,2,8,9,1,C,1,S,1,S,9,0.314542,0.776261,0.244166
8,118,2,8,2,9,1,C,6,S,7,L,7,0.178137,0.839482,0.149543
8,119,2,8,2,1,1,I,6,S,1,S,9,0.373093,0.767031,0.286174
8,120,2,1,8,1,1,C,1,S,7,L,8,0.830113,0.233748,0.194038
8,121,1,8,2,8,1,C,7,L,6,S,7,0.147184,0.884748,0.130221
8,122,8,2,8,9,1,I,6,S,1,S,8,0.752771,0.306985,0.231089
8,123,8,9,9,8,1,I,1,S,1,S,22,0.626709,0.759494,0.475982
8,124,8,1,1,8,1,I,7,L,7,L,11,0.777487,0.535331,0.416213
8,125,9,8,2,9,0,I,1,S,7,L,10,0.384423,0.773409,0.297316
8,126,1,9,8,2,1,I,8,L,6,S,10,0.466487,0.795034,0.370873
8,127,1,2,2,1,1,I,1,S,1,S,11,0.463387,0.752273,0.348594
8,128,8,9,1,2,1,C,1,S,1,S,10,0.327452,0.796581,0.260842
8,129,8,2,2,8,1,I,6,S,6,S,11,0.763374,0.531194,0.4055
8,130,2,9,2,9,1,C,7,L,7,L,7,0.17017,0.849675,0.144589
8,131,8,1,8,1,1,C,7,L,7,L,7,0.888744,0.143971,0.127954
8,132,1,2,1,2,1,C,1,S,1,S,8,0.249914,0.794422,0.198537
8,133,8,2,2,9,1,I,6,S,7,L,11,0.757905,0.538942,0.408467
8,134,2,9,1,8,1,C,7,L,7,L,7,0.156748,0.870459,0.136443
8,135,8,2,8,2,1,C,6,S,6,S,7,0.8221,0.18768,0.154292
8,136,2,1,9,2,1,C,1,S,7,L,8,0.808767,0.246666,0.199496
8,137,8,9,8,1,0,I,1,S,7,L,10,0.792889,0.365437,0.289751
8,138,1,8,9,1,1,I,7,L,8,L,10,0.518397,0.754817,0.391295
8,139,2,9,9,1,1,I,7,L,8,L,12,0.562082,0.784175,0.440771
8,140,2,1,2,9,1,I,1,S,7,L,18,0.767802,0.642629,0.493412
8,141,9,8,2,8,0,I,1,S,6,S,10,0.389877,0.765503,0.298452
8,142,8,9,8,9,1,C,1,S,1,S,13,0.374313,0.811136,0.303618
8,143,9,1,9,1,1,C,8,L,8,L,6,0.75546,0.169668,0.128177
8,144,1,9,2,9,1,C,8,L,7,L,6,0.172898,0.750159,0.129701
9,1,8,1,8,1,1,C,7,L,7,L,7,0.880144,0.148404,0.130617
9,2,1,2,1,9,1,C,1,S,8,L,8,0.21822,0.847803,0.185008
9,3,2,1,9,1,1,C,1,S,8,L,8,0.846471,0.21795,0.184488
9,4,1,8,9,8,1,I,7,L,1,S,8,0.293573,0.782964,0.229857
9,5,8,9,8,9,1,C,1,S,1,S,10,0.309628,0.814899,0.252316
9,6,1,9,8,2,1,I,8,L,6,S,10,0.46771,0.794976,0.371818
9,7,2,8,9,8,1,I,6,S,1,S,9,0.321058,0.805538,0.258624
9,8,1,2,2,9,1,C,1,S,7,L,8,0.233866,0.825645,0.19309
9,9,8,9,2,9,1,C,1,S,7,L,8,0.246361,0.810958,0.199789
9,10,2,8,1,8,1,C,6,S,7,L,7,0.166326,0.848546,0.141135
9,11,1,2,1,8,1,C,1,S,7,L,8,0.227068,0.834971,0.189595
9,12,1,8,9,2,1,I,7,L,7,L,10,0.490032,0.770333,0.377488
9,13,2,9,2,9,1,C,7,L,7,L,7,0.159451,0.863046,0.137614
9,14,9,1,8,9,1,I,8,L,1,S,8,0.780499,0.294203,0.229625
9,15,8,9,1,9,1,C,1,S,8,L,8,0.230716,0.833116,0.192213
9,16,9,8,2,8,0,I,1,S,6,S,10,0.376311,0.770138,0.289812
9,17,1,8,2,8,1,C,7,L,6,S,7,0.156119,0.870239,0.135861
9,18,2,8,8,9,1,C,6,S,1,S,8,0.245803,0.807258,0.198427
9,19,8,2,2,1,1,C,6,S,1,S,8,0.839565,0.223432,0.187586
9,20,8,1,8,2,1,C,7,L,6,S,7,0.855922,0.164753,0.141016
9,21,1,9,9,2,1,I,8,L,7,L,10,0.478415,0.78927,0.377599
9,22,8,1,2,8,1,I,7,L,6,S,10,0.763137,0.492007,0.375469
9,23,2,9,9,8,1,I,7,L,1,S,8,0.30921,0.758337,0.234485
9,24,9,1,8,1,1,C,8,L,7,L,7,0.895677,0.138225,0.123805
9,25,1,2,8,9,1,C,1,S,1,S,10,0.293074,0.835849,0.244966
9,26,2,1,1,9,1,I,1,S,8,L,18,0.770241,0.644441,0.496375
9,27,9,2,2,8,1,I,7,L,6,S,11,0.786026,0.512102,0.402526
9,28,8,2,9,8,1,C,6,S,1,S,8,0.804727,0.254966,0.205178
9,29,2,1,9,8,1,C,1,S,1,S,10,0.84017,0.293175,0.246317
9,30,9,2,8,2,1,C,7,L,6,S,7,0.840384,0.173594,0.145886
9,31,1,2,9,1,1,I,1,S,8,L,18,0.645226,0.769034,0.496201
9,32,8,2,8,9,1,I,6,S,1,S,9,0.798179,0.327175,0.261144
9,33,9,8,9,2,1,C,1,S,7,L,9,0.791878,0.306825,0.242968
9,34,8,9,2,8,1,C,1,S,6,S,8,0.258323,0.793812,0.20506
9,35,8,2,9,1,1,C,6,S,8,L,7,0.852728,0.166973,0.142383
9,36,9,8,9,8,1,C,1,S,1,S,12,0.780165,0.382898,0.298724
9,37,8,9,1,2,1,C,1,S,1,S,9,0.288341,0.799197,0.230441
9,38,1,8,8,2,1,I,7,L,6,S,10,0.479326,0.776039,0.371976
9,39,8,1,9,1,1,C,7,L,8,L,7,0.887798,0.145208,0.128916
9,40,1,2,1,2,1,C,1,S,1,S,9,0.273574,0.817424,0.223626
9,41,2,1,8,1,1,C,1,S,7,L,8,0.838325,0.221629,0.185797
9,42,8,9,8,2,1,I,1,S,6,S,18,0.633515,0.771637,0.488844
9,43,9,2,2,9,1,I,7,L,7,L,11,0.773351,0.529094,0.409176
9,44,1,2,9,2,1,I,1,S,7,L,17,0.638258,0.761692,0.486156
9,45,1,2,8,1,1,I,1,S,7,L,17,0.64841,0.75209,0.487663
9,46,1,8,1,2,1,C,7,L,1,S,7,0.207634,0.78917,0.163858
9,47,2,9,8,2,1,I,7,L,6,S,10,0.496135,0.751009,0.372602
9,48,1,8,1,9,1,C,7,L,8,L,6,0.166722,0.758039,0.126382
9,49,9,1,9,2,1,C,8,L,7,L,7,0.880763,0.150408,0.132474
9,50,2,8,8,2,1,I,6,S,6,S,11,0.522121,0.765027,0.399437
9,51,9,1,2,8,1,I,8,L,6,S,10,0.779578,0.480415,0.374521
9,52,8,2,9,2,1,C,6,S,7,L,7,0.83016,0.182352,0.151382
9,53,2,8,2,9,1,C,6,S,7,L,7,0.172697,0.839671,0.145009
9,54,1,8,8,1,1,I,7,L,7,L,10,0.505491,0.757202,0.382759
9,55,2,1,1,8,1,I,1,S,7,L,17,0.756854,0.645385,0.488462
9,56,2,1,2,1,1,C,1,S,1,S,9,0.795165,0.28834,0.229278
9,57,2,1,8,2,1,C,1,S,6,S,8,0.812543,0.239341,0.194475
9,58,2,8,8,1,1,I,6,S,7,L,12,0.551974,0.780615,0.43088
9,59,1,9,9,8,1,I,8,L,1,S,8,0.282918,0.80157,0.226779
9,60,2,9,2,1,1,I,7,L,1,S,9,0.351473,0.792331,0.278483
9,61,9,8,9,1,1,C,1,S,8,L,9,0.81607,0.289626,0.236355
9,62,1,8,2,1,1,I,7,L,1,S,8,0.328412,0.751431,0.246779
9,63,8,2,1,2,1,I,6,S,1,S,10,0.795694,0.411033,0.327056
9,64,8,9,9,8,1,I,1,S,1,S,12,0.46253,0.757656,0.350439
9,65,9,2,1,2,1,I,7,L,1,S,9,0.76562,0.38537,0.295047
9,66,2,9,9,1,1,I,7,L,8,L,11,0.539432,0.767728,0.414137
9,67,9,2,1,8,1,I,7,L,7,L,11,0.766346,0.538128,0.412392
9,68,1,8,2,9,1,C,7,L,7,L,7,0.145089,0.886305,0.128593
9,69,8,1,2,1,1,C,7,L,1,S,7,0.7581,0.231461,0.175471
9,70,9,8,2,1,1,C,1,S,1,S,11,0.78306,0.359885,0.281812
9,71,9,1,1,8,1,I,8,L,7,L,10,0.759791,0.507133,0.385315
9,72,9,1,9,1,1,C,8,L,8,L,6,0.754179,0.171104,0.129043
9,73,9,2,9,2,1,C,7,L,7,L,7,0.849692,0.169429,0.143962
9,74,2,9,8,1,1,I,7,L,7,L,11,0.530928,0.772202,0.409983
9,75,2,9,1,9,1,C,7,L,8,L,7,0.144786,0.884217,0.128022
9,76,8,2,2,9,1,I,6,S,7,L,11,0.752152,0.544422,0.409488
9,77,8,1,1,2,1,I,7,L,1,S,9,0.782666,0.374953,0.293463
9,78,8,9,9,2,1,I,1,S,7,L,18,0.642793,0.766027,0.492396
9,79,2,8,9,1,1,I,6,S,8,L,12,0.560414,0.776041,0.434905
9,80,2,8,9,2,1,I,6,S,7,L,11,0.532815,0.759103,0.404461
9,81,1,9,1,9,1,C,8,L,8,L,6,0.15828,0.77408,0.122521
9,82,1,9,2,9,1,C,8,L,7,L,6,0.171423,0.754953,0.129417
9,83,9,2,9,8,1,C,7,L,1,S,8,0.825771,0.240799,0.198845
9,84,1,9,8,1,1,I,8,L,7,L,10,0.493874,0.776139,0.383315
9,85,2,1,8,9,1,I,1,S,1,S,12,0.781295,0.441978,0.345315
9,86,2,9,1,2,1,C,7,L,1,S,7,0.221996,0.765911,0.170029
9,87,9,8,8,1,1,C,1,S,7,L,9,0.807665,0.29367,0.237187
9,88,9,1,1,2,1,I,8,L,1,S,9,0.799248,0.363541,0.290559
9,89,1,2,9,8,1,I,1,S,1,S,12,0.444118,0.780913,0.346818
9,90,1,8,1,8,1,C,7,L,7,L,7,0.138718,0.89518,0.124177
9,91,2,8,2,8,1,C,6,S,6,S,7,0.183727,0.823604,0.151319
9,92,1,2,2,8,1,C,1,S,6,S,8,0.245827,0.8085,0.198751
9,93,8,1,1,9,1,I,7,L,8,L,11,0.774009,0.539693,0.417727
9,94,2,8,1,2,1,C,6,S,1,S,8,0.201732,0.864916,0.174482
9,95,8,2,8,2,1,C,6,S,6,S,7,0.820852,0.186518,0.153104
9,96,1,9,2,1,1,I,8,L,1,S,8,0.317757,0.770037,0.244685
9,97,9,1,2,9,1,I,8,L,7,L,10,0.766865,0.497829,0.381768
9,98,2,9,1,8,1,C,7,L,7,L,7,0.15308,0.871921,0.133474
9,99,9,8,1,8,0,I,1,S,7,L,10,0.356525,0.796857,0.284099
9,100,2,9,8,9,1,C,7,L,1,S,8,0.231004,0.832492,0.192309
9,101,8,9,8,1,1,I,1,S,7,L,18,0.652284,0.756976,0.493763
9,102,9,2,9,1,1,C,7,L,8,L,7,0.872261,0.154049,0.134371
9,103,9,8,1,2,0,I,1,S,1,S,13,0.467264,0.751549,0.351172
9,104,1,9,9,1,1,I,8,L,8,L,10,0.50238,0.771836,0.387754
9,105,9,1,9,8,1,C,8,L,1,S,8,0.858705,0.220048,0.188956
9,106,1,8,9,1,1,I,7,L,8,L,10,0.513996,0.752899,0.386987
9,107,9,8,2,9,0,I,1,S,7,L,10,0.363599,0.787553,0.286353
9,108,8,1,9,8,1,C,7,L,1,S,8,0.842363,0.231011,0.194595
9,109,8,9,9,1,1,I,1,S,8,L,18,0.660036,0.752525,0.496694
9,110,9,1,8,2,1,C,8,L,6,S,7,0.871455,0.154574,0.134704
9,111,2,1,2,8,1,I,1,S,6,S,16,0.750137,0.634733,0.476137
9,112,2,1,1,2,1,I,1,S,1,S,14,0.768623,0.549956,0.422709
9,113,1,2,2,1,1,I,1,S,1,S,13,0.520594,0.757891,0.394553
9,114,2,1,9,2,1,C,1,S,7,L,8,0.82265,0.234496,0.192908
9,115,1,9,1,8,1,C,8,L,7,L,6,0.165721,0.762906,0.12643
9,116,1,9,2,8,1,C,8,L,6,S,7,0.146394,0.887947,0.12999
9,117,8,2,1,8,1,I,6,S,7,L,12,0.779771,0.557485,0.434711
9,118,8,1,1,8,1,I,7,L,7,L,11,0.783196,0.527219,0.412916
9,119,9,8,8,2,1,C,1,S,6,S,9,0.781339,0.312179,0.243918
9,120,8,1,9,2,1,C,7,L,7,L,7,0.86523,0.160588,0.138945
9,121,2,8,1,9,1,C,6,S,8,L,7,0.158032,0.860842,0.13604
9,122,1,9,1,2,1,C,8,L,1,S,7,0.197909,0.806878,0.159688
9,123,1,8,8,9,1,C,7,L,1,S,8,0.215368,0.857119,0.184596
9,124,8,9,2,1,1,I,1,S,1,S,14,0.540676,0.765175,0.413712
9,125,9,2,8,1,1,C,7,L,7,L,7,0.864606,0.157245,0.135955
9,126,9,2,1,9,1,I,7,L,8,L,11,0.757158,0.550603,0.416893
9,127,8,2,2,8,1,I,6,S,6,S,11,0.764828,0.527429,0.403393
9,128,9,1,2,1,1,C,8,L,1,S,7,0.773633,0.221282,0.171191
9,129,2,1,2,9,1,I,1,S,7,L,17,0.762426,0.638597,0.486883
9,130,8,1,8,9,1,I,7,L,1,S,8,0.764157,0.305166,0.233195
9,131,2,8,2,1,1,I,6,S,1,S,9,0.367329,0.766223,0.281456
9,132,8,2,1,9,1,I,6,S,8,L,12,0.770747,0.569546,0.438976
9,133,2,9,9,2,1,I,7,L,7,L,11,0.516068,0.785079,0.405154
9,134,9,2,2,1,1,C,7,L,1,S,8,0.860609,0.209266,0.180096
9,135,9,8,8,9,1,I,1,S,1,S,23,0.77047,0.611991,0.47152
9,136,8,9,1,8,1,C,1,S,7,L,8,0.239563,0.820284,0.19651
9,137,8,1,2,9,1,I,7,L,7,L,10,0.750424,0.509422,0.382282
9,138,9,1,1,9,1,I,8,L,8,L,10,0.750549,0.519929,0.390232
9,139,2,9,2,8,1,C,7,L,6,S,7,0.170481,0.84698,0.144394
9,140,9,2,8,9,1,I,7,L,1,S,9,0.81984,0.312244,0.25599
9,141,1,2,8,2,1,I,1,S,6,S,17,0.628774,0.767428,0.482539
9,142,9,8,1,9,0,I,1,S,8,L,9,0.345724,0.761599,0.263303
9,143,8,2,8,1,1,C,6,S,7,L,7,0.845074,0.170169,0.143805
9,144,1,9,8,9,1,C,8,L,1,S,7,0.231583,0.764614,0.177071
10,1,1,2,1,8,1,C,1,S,7,L,7,0.224639,0.762578,0.171305
10,2,1,8,9,2,1,I,7,L,7,L,10,0.4813,0.781763,0.376262
10,3,9,1,2,1,1,C,8,L,1,S,7,0.786829,0.212823,0.167455
10,4,8,2,2,8,1,I,6,S,6,S,11,0.758483,0.5299,0.40192
10,5,9,8,2,9,0,I,1,S,7,L,11,0.452273,0.758114,0.342875
10,6,8,1,8,9,1,I,7,L,1,S,8,0.788783,0.280549,0.221292
10,7,9,1,8,2,1,C,8,L,6,S,7,0.885681,0.147602,0.130729
10,8,8,2,1,9,1,I,6,S,8,L,12,0.766454,0.57186,0.438304
10,9,1,8,1,9,1,C,7,L,8,L,6,0.161647,0.766434,0.123892
10,10,8,9,1,9,1,C,1,S,8,L,8,0.279429,0.770195,0.215215
10,11,8,2,8,1,1,C,6,S,7,L,7,0.844247,0.171597,0.14487
10,12,8,2,8,2,1,C,6,S,6,S,7,0.816224,0.190164,0.155216
10,13,1,2,9,1,1,I,1,S,8,L,15,0.627705,0.760245,0.47721
10,14,1,2,8,9,1,C,1,S,1,S,9,0.310405,0.777782,0.241427
10,15,9,2,1,9,1,I,7,L,8,L,11,0.767862,0.543876,0.417622
10,16,9,8,9,8,1,C,1,S,1,S,10,0.757935,0.353948,0.268269
10,17,1,8,9,1,1,I,7,L,8,L,10,0.508867,0.7622,0.387859
10,18,1,8,8,1,1,I,7,L,7,L,10,0.50218,0.766589,0.384966
10,19,8,9,1,8,1,C,1,S,7,L,8,0.287571,0.757548,0.217849
10,20,9,2,8,1,1,C,7,L,7,L,7,0.877028,0.152109,0.133404
10,21,2,8,9,1,1,I,6,S,8,L,11,0.547194,0.759181,0.41542
10,22,2,8,1,8,1,C,6,S,7,L,7,0.158208,0.864292,0.136738
10,23,2,9,1,8,1,C,7,L,7,L,7,0.156906,0.86731,0.136086
10,24,9,8,1,2,1,I,1,S,1,S,19,0.756519,0.62485,0.472711
10,25,9,2,9,2,1,C,7,L,7,L,7,0.857366,0.165496,0.14189
10,26,1,2,1,9,1,C,1,S,8,L,7,0.217096,0.774629,0.168169
10,27,8,2,2,1,1,C,6,S,1,S,8,0.833743,0.225727,0.188198
10,28,8,9,8,9,1,C,1,S,1,S,12,0.361463,0.806148,0.291392
10,29,9,2,1,2,1,I,7,L,1,S,9,0.773013,0.382951,0.296026
10,30,2,8,1,9,1,C,6,S,8,L,7,0.150664,0.876343,0.132034
10,31,2,9,1,2,1,C,7,L,1,S,7,0.223655,0.764762,0.171043
10,32,9,2,9,8,1,C,7,L,1,S,8,0.852955,0.220195,0.187816
10,33,9,2,9,1,1,C,7,L,8,L,7,0.883343,0.148323,0.13102
10,34,8,1,9,2,1,C,7,L,7,L,7,0.868961,0.15685,0.136297
10,35,1,2,9,2,1,I,1,S,7,L,14,0.609822,0.752356,0.458803
10,36,9,1,9,1,1,C,8,L,8,L,6,0.769319,0.16252,0.12503
10,37,1,9,8,9,1,C,8,L,1,S,8,0.226833,0.850246,0.192864
10,38,2,1,9,2,1,C,1,S,7,L,8,0.79269,0.257661,0.204245
10,39,2,8,8,1,1,I,6,S,7,L,11,0.540625,0.763589,0.412815
10,40,9,2,2,9,1,I,7,L,7,L,11,0.783238,0.522073,0.408907
10,41,8,2,9,2,1,C,6,S,7,L,7,0.824584,0.184984,0.152535
10,42,2,1,2,1,1,C,1,S,1,S,9,0.758394,0.315281,0.239108
10,43,8,1,8,1,1,C,7,L,7,L,7,0.888624,0.143463,0.127485
10,44,1,2,9,8,1,I,1,S,1,S,11,0.429846,0.781555,0.335948
10,45,2,8,1,2,1,C,6,S,1,S,7,0.224957,0.761744,0.17136
10,46,8,1,2,8,1,I,7,L,6,S,10,0.766837,0.487055,0.373492
10,47,8,9,2,1,1,I,1,S,1,S,19,0.612526,0.758539,0.464625
10,48,2,8,9,8,1,I,6,S,1,S,9,0.335691,0.803738,0.269808
10,49,9,8,2,1,1,C,1,S,1,S,10,0.782728,0.332244,0.260057
10,50,8,2,9,1,1,C,6,S,8,L,7,0.850562,0.167811,0.142734
10,51,8,1,1,8,1,I,7,L,7,L,11,0.788345,0.52194,0.411469
10,52,1,8,1,2,1,C,7,L,1,S,7,0.198972,0.802159,0.159607
10,53,2,1,9,8,1,C,1,S,1,S,10,0.830131,0.299077,0.248273
10,54,8,2,1,8,1,I,6,S,7,L,12,0.775019,0.559728,0.4338
10,55,9,1,1,2,1,I,8,L,1,S,9,0.812273,0.35684,0.289851
10,56,2,9,2,8,1,C,7,L,6,S,7,0.172463,0.843165,0.145415
10,57,2,9,2,9,1,C,7,L,7,L,7,0.162753,0.85839,0.139705
10,58,8,2,2,9,1,I,6,S,7,L,12,0.78163,0.550709,0.43045
10,59,8,9,9,2,0,I,1,S,7,L,11,0.762592,0.441458,0.336653
10,60,9,8,9,1,1,C,1,S,8,L,8,0.77683,0.274632,0.213342
10,61,8,9,2,8,1,C,1,S,6,S,9,0.28111,0.820262,0.230584
10,62,8,9,8,1,0,I,1,S,7,L,10,0.757408,0.407212,0.308426
10,63,1,9,2,8,1,C,8,L,6,S,7,0.146823,0.882958,0.129638
10,64,9,1,8,9,1,I,8,L,1,S,8,0.815181,0.264794,0.215855
10,65,8,9,8,2,0,I,1,S,6,S,11,0.753488,0.447727,0.337357
10,66,2,9,9,1,1,I,7,L,8,L,11,0.545333,0.762625,0.415885
10,67,2,8,2,9,1,C,6,S,7,L,7,0.164055,0.855372,0.140328
10,68,9,1,9,2,1,C,8,L,7,L,7,0.894042,0.142423,0.127332
10,69,9,2,2,1,1,C,7,L,1,S,7,0.750153,0.235896,0.176958
10,70,9,2,8,9,1,I,7,L,1,S,8,0.776555,0.28977,0.225022
10,71,8,9,9,8,1,I,1,S,1,S,18,0.602636,0.754391,0.454623
10,72,9,8,8,1,1,C,1,S,7,L,8,0.77021,0.278731,0.214681
10,73,1,9,9,1,1,I,8,L,8,L,10,0.507573,0.764842,0.388213
10,74,2,1,2,8,1,I,1,S,6,S,18,0.757271,0.644748,0.488249
10,75,1,2,8,2,1,I,1,S,6,S,14,0.601621,0.758279,0.456197
10,76,2,9,8,2,1,I,7,L,6,S,11,0.509301,0.788408,0.401537
10,77,9,8,1,8,0,I,1,S,7,L,11,0.445564,0.767433,0.34194
10,78,1,2,8,1,1,I,1,S,7,L,15,0.621877,0.764328,0.475318
10,79,9,1,8,1,1,C,8,L,7,L,6,0.763595,0.165856,0.126647
10,80,9,2,2,8,1,I,7,L,6,S,10,0.754639,0.496621,0.374769
10,81,2,1,2,9,1,I,1,S,7,L,19,0.769107,0.644912,0.496006
10,82,2,9,1,9,1,C,7,L,8,L,7,0.149363,0.879361,0.131344
10,83,1,9,1,8,1,C,8,L,7,L,6,0.167536,0.757716,0.126945
10,84,1,9,1,2,1,C,8,L,1,S,7,0.198015,0.804555,0.159313
10,85,1,8,2,8,1,C,7,L,6,S,7,0.14778,0.880562,0.13013
10,86,2,1,8,9,1,I,1,S,1,S,12,0.785329,0.412302,0.323793
10,87,9,8,9,2,1,C,1,S,7,L,9,0.840627,0.267584,0.224938
10,88,9,1,2,8,1,I,8,L,6,S,10,0.793651,0.469998,0.373015
10,89,1,2,1,2,1,C,1,S,1,S,8,0.265723,0.770911,0.204849
10,90,2,9,8,9,1,C,7,L,1,S,8,0.254506,0.808339,0.205727
10,91,1,8,9,8,1,I,7,L,1,S,8,0.304335,0.778136,0.236814
10,92,1,8,8,9,1,C,7,L,1,S,8,0.227936,0.847711,0.193224
10,93,1,8,8,2,1,I,7,L,6,S,10,0.472037,0.787987,0.371959
10,94,2,1,1,9,1,I,1,S,8,L,19,0.757121,0.661193,0.500603
10,95,9,1,9,8,1,C,8,L,1,S,7,0.775315,0.225692,0.174982
10,96,8,1,9,8,1,C,7,L,1,S,7,0.750234,0.240119,0.180146
10,97,8,1,9,1,1,C,7,L,8,L,7,0.894939,0.139677,0.125003
10,98,8,2,8,9,1,I,6,S,1,S,9,0.819819,0.300364,0.246244
10,99,1,8,2,1,1,I,7,L,1,S,8,0.320569,0.761973,0.244265
10,100,2,1,1,8,1,I,1,S,7,L,19,0.763992,0.651678,0.497877
10,101,2,8,8,9,1,C,6,S,1,S,8,0.256021,0.805079,0.206117
10,102,8,1,2,9,1,I,7,L,7,L,10,0.755317,0.503811,0.380537
10,103,1,9,8,1,1,I,8,L,7,L,10,0.500886,0.76923,0.385296
10,104,9,1,2,9,1,I,8,L,7,L,10,0.78213,0.486755,0.380706
10,105,8,1,1,2,1,I,7,L,1,S,9,0.785389,0.373443,0.293299
10,106,8,1,1,9,1,I,7,L,8,L,11,0.779678,0.534425,0.416679
10,107,9,1,1,8,1,I,8,L,7,L,10,0.775413,0.496288,0.384828
10,108,8,9,2,9,1,C,1,S,7,L,9,0.269875,0.837037,0.225895
10,109,2,9,8,1,1,I,7,L,7,L,11,0.538764,0.767033,0.41325
10,110,1,8,1,8,1,C,7,L,7,L,6,0.168314,0.755549,0.12717
10,111,2,9,9,8,1,I,7,L,1,S,9,0.334016,0.807129,0.269594
10,112,2,1,8,2,1,C,1,S,6,S,8,0.783702,0.263371,0.206404
10,113,9,8,8,9,1,I,1,S,1,S,14,0.764886,0.473475,0.362154
10,114,1,9,1,9,1,C,8,L,8,L,6,0.160869,0.7686,0.123644
10,115,2,1,9,1,1,C,1,S,8,L,8,0.820064,0.239162,0.196129
10,116,2,8,2,8,1,C,6,S,6,S,7,0.173765,0.840147,0.145988
10,117,1,2,2,1,1,I,1,S,1,S,11,0.457292,0.75809,0.346669
10,118,2,9,9,2,1,I,7,L,7,L,11,0.518405,0.782139,0.405465
10,119,2,1,8,1,1,C,1,S,7,L,8,0.813444,0.243262,0.19788
10,120,2,8,9,2,1,I,6,S,7,L,11,0.520266,0.778695,0.405129
10,121,2,9,2,1,1,I,7,L,1,S,9,0.35491,0.787918,0.27964
10,122,1,9,2,9,1,C,8,L,7,L,7,0.137112,0.898183,0.123152
10,123,9,2,1,8,1,I,7,L,7,L,11,0.776529,0.531391,0.412641
10,124,2,8,2,1,1,I,6,S,1,S,9,0.356585,0.784527,0.279751
10,125,9,2,8,2,1,C,7,L,6,S,7,0.849005,0.170675,0.144904
10,126,1,9,9,2,1,I,8,L,7,L,10,0.480005,0.784405,0.376518
10,127,9,8,1,9,0,I,1,S,8,L,10,0.41498,0.756327,0.313861
10,128,1,9,2,1,1,I,8,L,1,S,8,0.319466,0.764508,0.244234
10,129,2,8,8,2,1,I,6,S,6,S,11,0.511162,0.784964,0.401244
10,130,9,8,8,2,1,C,1,S,6,S,9,0.831374,0.273632,0.227491
10,131,8,1,2,1,1,C,7,L,1,S,7,0.761748,0.22725,0.173108
10,132,9,8,2,8,0,I,1,S,6,S,12,0.489512,0.755779,0.369963
10,133,8,9,1,2,1,C,1,S,1,S,10,0.31807,0.803895,0.255695
10,134,9,1,1,9,1,I,8,L,8,L,10,0.766755,0.50903,0.390302
10,135,8,1,8,2,1,C,7,L,6,S,7,0.8606,0.16203,0.139443
10,136,1,9,8,2,1,I,8,L,6,S,10,0.470743,0.790628,0.372182
10,137,8,9,9,1,0,I,1,S,8,L,10,0.764095,0.402824,0.307796
10,138,1,9,9,8,1,I,8,L,1,S,8,0.303232,0.780671,0.236725
10,139,1,8,2,9,1,C,7,L,7,L,7,0.13807,0.895787,0.123681
10,140,8,2,9,8,1,C,6,S,1,S,8,0.817509,0.241891,0.197748
10,141,1,2,2,8,1,C,1,S,6,S,8,0.206026,0.862069,0.177608
10,142,8,2,1,2,1,I,6,S,1,S,10,0.787996,0.417068,0.328648
10,143,1,2,2,9,1,C,1,S,7,L,7,0.230486,0.753658,0.173708
10,144,2,1,1,2,1,I,1,S,1,S,16,0.773492,0.581596,0.449859
11,1,8,1,1,2,1,I,7,L,1,S,9,0.798884,0.352269,0.281422
11,2,2,1,2,8,1,I,1,S,6,S,17,0.759282,0.630395,0.478647
11,3,1,2,9,2,1,I,1,S,7,L,16,0.619182,0.771085,0.477442
11,4,9,8,9,8,1,C,1,S,1,S,12,0.787655,0.380952,0.300059
11,5,8,1,9,1,1,C,7,L,8,L,7,0.887295,0.143358,0.127201
11,6,2,9,1,8,1,C,7,L,7,L,7,0.159001,0.866343,0.137749
11,7,2,8,2,1,1,I,6,S,1,S,9,0.373986,0.763688,0.285609
11,8,8,2,8,9,1,I,6,S,1,S,9,0.793265,0.330603,0.262256
11,9,1,2,8,1,1,I,1,S,7,L,16,0.627136,0.765707,0.480202
11,10,9,2,9,1,1,C,7,L,8,L,7,0.851944,0.168446,0.143506
11,11,2,8,2,9,1,C,6,S,7,L,7,0.181524,0.828387,0.150372
11,12,9,2,8,2,1,C,7,L,6,S,7,0.818009,0.189814,0.15527
11,13,8,2,2,8,1,I,6,S,6,S,11,0.759532,0.523478,0.397598
11,14,8,1,9,2,1,C,7,L,7,L,7,0.867462,0.155465,0.13486
11,15,8,1,2,9,1,I,7,L,7,L,10,0.763861,0.489781,0.374125
11,16,8,9,2,1,1,I,1,S,1,S,18,0.612612,0.752998,0.461296
11,17,8,1,9,8,1,C,7,L,1,S,8,0.846883,0.223919,0.189633
11,18,9,8,2,9,0,I,1,S,7,L,10,0.37658,0.775271,0.291952
11,19,9,1,2,9,1,I,8,L,7,L,10,0.774869,0.483958,0.375004
11,20,1,2,9,8,1,I,1,S,1,S,11,0.419065,0.771972,0.323506
11,21,2,8,1,8,1,C,6,S,7,L,7,0.168286,0.849682,0.142989
11,22,2,1,1,8,1,I,1,S,7,L,18,0.760517,0.647921,0.492755
11,23,2,8,9,8,1,I,6,S,1,S,9,0.322843,0.805442,0.260031
11,24,1,8,8,1,1,I,7,L,7,L,10,0.502799,0.757158,0.380699
11,25,1,9,2,9,1,C,8,L,7,L,7,0.151023,0.878821,0.132722
11,26,8,9,9,8,1,I,1,S,1,S,16,0.55705,0.760174,0.423455
11,27,9,8,1,2,0,I,1,S,1,S,15,0.519601,0.752305,0.390899
11,28,9,2,8,9,1,I,7,L,1,S,9,0.808183,0.322604,0.260723
11,29,9,1,1,8,1,I,8,L,7,L,10,0.759205,0.50717,0.385046
11,30,9,1,8,1,1,C,8,L,7,L,7,0.88582,0.146351,0.129641
11,31,2,8,1,9,1,C,6,S,8,L,7,0.163522,0.858196,0.140334
11,32,2,9,9,1,1,I,7,L,8,L,11,0.539382,0.766978,0.413694
11,33,8,2,9,1,1,C,6,S,8,L,7,0.839022,0.174673,0.146554
11,34,9,2,1,8,1,I,7,L,7,L,11,0.750581,0.550243,0.413002
11,35,8,1,8,2,1,C,7,L,6,S,7,0.85336,0.164727,0.140571
11,36,8,9,8,1,0,I,1,S,7,L,11,0.75958,0.452912,0.344023
11,37,8,1,1,8,1,I,7,L,7,L,11,0.787747,0.521783,0.411033
11,38,9,8,9,2,1,C,1,S,7,L,9,0.793227,0.30925,0.245305
11,39,1,2,2,8,1,C,1,S,6,S,8,0.230387,0.825151,0.190104
11,40,8,9,9,2,0,I,1,S,7,L,11,0.750376,0.458775,0.344254
11,41,2,8,9,1,1,I,6,S,8,L,12,0.555308,0.782833,0.434714
11,42,9,8,2,8,0,I,1,S,6,S,10,0.384826,0.762334,0.293366
11,43,2,1,2,1,1,C,1,S,1,S,9,0.784164,0.293826,0.230407
11,44,8,1,2,1,1,C,7,L,1,S,7,0.765228,0.223301,0.170876
11,45,2,8,1,2,1,C,6,S,1,S,8,0.212555,0.852878,0.181283
11,46,2,8,2,8,1,C,6,S,6,S,7,0.188092,0.817051,0.153681
11,47,1,9,1,8,1,C,8,L,7,L,6,0.173631,0.751282,0.130446
11,48,2,9,2,9,1,C,7,L,7,L,7,0.172239,0.845048,0.14555
11,49,9,2,2,1,1,C,7,L,1,S,8,0.848362,0.217243,0.184301
11,50,2,1,9,8,1,C,1,S,1,S,10,0.822719,0.302144,0.248579
11,51,9,2,2,9,1,I,7,L,7,L,11,0.766323,0.527459,0.404204
11,52,1,9,1,2,1,C,8,L,1,S,7,0.213534,0.784266,0.167467
11,53,9,8,8,1,1,C,1,S,7,L,9,0.802509,0.30368,0.243706
11,54,8,9,2,8,1,C,1,S,6,S,9,0.280582,0.821495,0.230497
11,55,2,8,8,2,1,I,6,S,6,S,11,0.514814,0.7738,0.398363
11,56,1,8,9,2,1,I,7,L,7,L,10,0.493483,0.762934,0.376495
11,57,2,9,1,9,1,C,7,L,8,L,7,0.154238,0.874858,0.134936
11,58,2,1,8,9,1,I,1,S,1,S,12,0.767277,0.450229,0.34545
11,59,1,2,1,9,1,C,1,S,8,L,8,0.203291,0.86918,0.176697
11,60,9,1,2,1,1,C,8,L,1,S,7,0.775157,0.21888,0.169666
11,61,9,1,9,8,1,C,8,L,1,S,8,0.857456,0.218873,0.187674
11,62,1,8,9,8,1,I,7,L,1,S,8,0.29955,0.773153,0.231598
11,63,9,2,9,8,1,C,7,L,1,S,8,0.809186,0.251015,0.203117
11,64,1,2,8,9,1,C,1,S,1,S,9,0.310529,0.773413,0.240167
11,65,1,9,8,2,1,I,8,L,6,S,10,0.46916,0.788278,0.369828
11,66,2,8,8,9,1,C,6,S,1,S,8,0.251079,0.808718,0.203052
11,67,9,2,1,9,1,I,7,L,8,L,12,0.779437,0.563114,0.438912
11,68,8,2,1,8,1,I,6,S,7,L,12,0.77023,0.563225,0.433813
11,69,1,8,8,2,1,I,7,L,6,S,10,0.477828,0.773925,0.369803
11,70,1,9,2,1,1,I,8,L,1,S,8,0.330847,0.75341,0.249264
11,71,2,9,8,1,1,I,7,L,7,L,11,0.527531,0.775457,0.409077
11,72,1,2,8,2,1,I,1,S,6,S,15,0.61377,0.756917,0.464573
11,73,2,1,1,9,1,I,1,S,8,L,18,0.755528,0.655364,0.495146
11,74,2,8,8,1,1,I,6,S,7,L,11,0.539364,0.756909,0.408249
11,75,9,8,2,1,1,C,1,S,1,S,11,0.794517,0.356032,0.282874
11,76,2,9,9,2,1,I,7,L,7,L,11,0.518327,0.781321,0.404979
11,77,9,1,9,2,1,C,8,L,7,L,7,0.87739,0.151043,0.132524
11,78,2,1,8,1,1,C,1,S,7,L,8,0.815828,0.237872,0.194063
11,79,1,8,1,8,1,C,7,L,7,L,7,0.144925,0.886829,0.128524
11,80,1,2,1,8,1,C,1,S,7,L,8,0.20852,0.860198,0.179369
11,81,8,2,9,8,1,C,6,S,1,S,8,0.794978,0.258258,0.205309
11,82,9,2,8,1,1,C,7,L,7,L,7,0.840541,0.175861,0.147818
11,83,2,9,8,2,1,I,7,L,6,S,10,0.493809,0.752091,0.371389
11,84,8,2,2,1,1,C,6,S,1,S,8,0.834154,0.224486,0.187256
11,85,8,1,8,9,1,I,7,L,1,S,8,0.772849,0.299151,0.231198
11,86,1,8,1,2,1,C,7,L,1,S,7,0.220674,0.770978,0.170135
11,87,1,8,2,8,1,C,7,L,6,S,7,0.164732,0.854198,0.140714
11,88,8,2,8,2,1,C,6,S,6,S,7,0.805087,0.196042,0.157831
11,89,8,2,1,2,1,I,6,S,1,S,10,0.798697,0.397224,0.317262
11,90,1,8,9,1,1,I,7,L,8,L,11,0.523479,0.788257,0.412636
11,91,9,8,1,9,0,I,1,S,8,L,9,0.353854,0.759104,0.268612
11,92,2,1,1,2,1,I,1,S,1,S,14,0.762327,0.544276,0.414916
11,93,1,9,9,8,1,I,8,L,1,S,8,0.291671,0.787182,0.229598
11,94,1,9,9,2,1,I,8,L,7,L,10,0.484814,0.777287,0.37684
11,95,9,1,1,2,1,I,8,L,1,S,9,0.809783,0.346762,0.280802
11,96,1,9,9,1,1,I,8,L,8,L,10,0.506252,0.763022,0.386282
11,97,9,2,2,8,1,I,7,L,6,S,11,0.774703,0.514667,0.398714
11,98,9,8,1,8,0,I,1,S,7,L,10,0.360916,0.798483,0.288186
11,99,2,1,9,1,1,C,1,S,8,L,8,0.827848,0.22987,0.190297
11,100,8,9,1,8,1,C,1,S,7,L,8,0.283689,0.765684,0.217216
11,101,1,2,2,1,1,I,1,S,1,S,12,0.496565,0.755262,0.375037
11,102,8,9,1,2,1,C,1,S,1,S,10,0.325365,0.795008,0.258667
11,103,1,8,8,9,1,C,7,L,1,S,8,0.225516,0.848385,0.191324
11,104,8,2,9,2,1,C,6,S,7,L,7,0.819189,0.18678,0.153008
11,105,2,9,8,9,1,C,7,L,1,S,8,0.240672,0.826711,0.198966
11,106,8,2,2,9,1,I,6,S,7,L,11,0.751152,0.536269,0.40282
11,107,2,9,2,1,1,I,7,L,1,S,9,0.362812,0.782313,0.283833
11,108,9,8,9,1,1,C,1,S,8,L,9,0.814722,0.295335,0.240616
11,109,8,9,8,9,1,C,1,S,1,S,11,0.34831,0.801855,0.279294
11,110,8,9,1,9,1,C,1,S,8,L,8,0.27846,0.774666,0.215713
11,111,8,9,9,1,0,I,1,S,8,L,11,0.771432,0.444433,0.342849
11,112,9,1,1,9,1,I,8,L,8,L,10,0.753501,0.516326,0.389052
11,113,1,9,8,1,1,I,8,L,7,L,10,0.494131,0.771511,0.381227
11,114,1,9,1,9,1,C,8,L,8,L,6,0.169512,0.758938,0.128649
11,115,8,2,8,1,1,C,6,S,7,L,7,0.827619,0.182088,0.150699
11,116,1,2,1,2,1,C,1,S,1,S,9,0.262751,0.831299,0.218425
11,117,8,9,2,9,1,C,1,S,7,L,9,0.272659,0.834324,0.227486
11,118,1,8,2,9,1,C,7,L,7,L,7,0.158164,0.865533,0.136896
11,119,9,8,8,2,1,C,1,S,6,S,9,0.777567,0.319972,0.2488
11,120,8,1,2,8,1,I,7,L,6,S,10,0.772107,0.476844,0.368174
11,121,9,1,8,9,1,I,8,L,1,S,8,0.783422,0.294105,0.230408
11,122,2,1,8,2,1,C,1,S,6,S,8,0.791605,0.253251,0.200475
11,123,8,1,1,9,1,I,7,L,8,L,11,0.78198,0.530811,0.415084
11,124,2,8,9,2,1,I,6,S,7,L,11,0.530161,0.762772,0.404392
11,125,2,1,9,2,1,C,1,S,7,L,8,0.806808,0.243088,0.196125
11,126,9,1,8,2,1,C,8,L,6,S,7,0.863288,0.160305,0.13839
11,127,8,9,8,2,0,I,1,S,6,S,13,0.754095,0.525324,0.396144
11,128,2,9,1,2,1,C,7,L,1,S,7,0.23475,0.750493,0.176178
11,129,1,9,8,9,1,C,8,L,1,S,7,0.242888,0.753003,0.182895
11,130,9,1,2,8,1,I,8,L,6,S,10,0.783114,0.471021,0.368863
11,131,2,9,9,8,1,I,7,L,1,S,8,0.314706,0.751479,0.236495
11,132,9,2,1,2,1,I,7,L,1,S,9,0.760405,0.380489,0.289326
11,133,8,2,1,9,1,I,6,S,8,L,12,0.764479,0.572055,0.437324
11,134,1,8,1,9,1,C,7,L,8,L,7,0.140162,0.895343,0.125493
11,135,2,1,2,9,1,I,1,S,7,L,17,0.751995,0.640778,0.481862
11,136,2,9,2,8,1,C,7,L,6,S,7,0.178807,0.833713,0.149074
11,137,1,2,9,1,1,I,1,S,8,L,16,0.636916,0.758356,0.483009
11,138,8,1,8,1,1,C,7,L,7,L,7,0.875892,0.150773,0.132061
11,139,1,9,2,8,1,C,8,L,6,S,7,0.157591,0.867486,0.136708
11,140,9,8,8,9,1,I,1,S,1,S,22,0.761543,0.621254,0.473111
11,141,1,2,2,9,1,C,1,S,7,L,8,0.223013,0.837492,0.186771
11,142,9,2,9,2,1,C,7,L,7,L,7,0.832111,0.180553,0.15024
11,143,1,8,2,1,1,I,7,L,1,S,9,0.34705,0.804348,0.279149
11,144,9,1,9,1,1,C,8,L,8,L,7,0.897223,0.138936,0.124657
12,1,9,8,8,2,1,C,1,S,6,S,9,0.788671,0.309851,0.244371
12,2,8,2,1,8,1,I,6,S,7,L,11,0.75456,0.546988,0.412735
12,3,1,2,8,2,1,I,1,S,6,S,17,0.624937,0.770006,0.481205
12,4,9,1,8,2,1,C,8,L,6,S,7,0.875333,0.151826,0.132899
12,5,2,1,2,9,1,I,1,S,7,L,16,0.750454,0.636111,0.477372
12,6,1,2,9,8,1,I,1,S,1,S,11,0.378593,0.790137,0.29914
12,7,9,8,8,1,1,C,1,S,7,L,9,0.818252,0.288776,0.236292
12,8,8,2,9,1,1,C,6,S,8,L,7,0.861147,0.162388,0.13984
12,9,8,2,9,2,1,C,6,S,7,L,7,0.834679,0.180683,0.150812
12,10,1,9,2,8,1,C,8,L,6,S,7,0.148422,0.878533,0.130394
12,11,9,1,2,8,1,I,8,L,6,S,10,0.780268,0.478552,0.373399
12,12,9,2,8,1,1,C,7,L,7,L,7,0.873741,0.153771,0.134356
12,13,9,2,2,8,1,I,7,L,6,S,11,0.790032,0.510557,0.403357
12,14,8,2,2,1,1,C,6,S,1,S,8,0.864406,0.205215,0.177389
12,15,2,8,1,9,1,C,6,S,8,L,7,0.16343,0.856433,0.139967
12,16,8,1,2,8,1,I,7,L,6,S,10,0.765547,0.487773,0.373413
12,17,8,1,2,9,1,I,7,L,7,L,10,0.757768,0.499705,0.37866
12,18,2,8,9,1,1,I,6,S,8,L,12,0.561845,0.776546,0.436298
12,19,9,8,2,1,1,C,1,S,1,S,11,0.817876,0.335762,0.274611
12,20,9,8,9,1,1,C,1,S,8,L,9,0.823095,0.286875,0.236126
12,21,2,9,2,1,1,I,7,L,1,S,9,0.381351,0.764299,0.291466
12,22,1,9,9,1,1,I,8,L,8,L,10,0.509172,0.759513,0.386723
12,23,1,8,9,8,1,I,7,L,1,S,8,0.269683,0.800557,0.215896
12,24,8,9,9,1,0,I,1,S,8,L,11,0.772048,0.446871,0.345005
12,25,1,8,9,2,1,I,7,L,7,L,10,0.486718,0.770159,0.374851
12,26,8,1,1,9,1,I,7,L,8,L,11,0.782297,0.530238,0.414804
12,27,2,8,9,2,1,I,6,S,7,L,11,0.530493,0.762639,0.404574
12,28,9,2,8,9,1,I,7,L,1,S,8,0.765294,0.300869,0.230253
12,29,9,1,1,8,1,I,8,L,7,L,10,0.763495,0.50309,0.384106
12,30,8,1,9,8,1,C,7,L,1,S,8,0.823951,0.245555,0.202325
12,31,9,8,2,9,0,I,1,S,7,L,10,0.373994,0.779743,0.291619
12,32,2,9,1,9,1,C,7,L,8,L,7,0.157181,0.868425,0.1365
12,33,1,2,2,1,1,I,1,S,1,S,14,0.540197,0.772909,0.417523
12,34,1,2,9,2,1,I,1,S,7,L,17,0.630814,0.7668,0.483709
12,35,8,9,9,8,1,I,1,S,1,S,14,0.454469,0.786621,0.357495
12,36,1,9,9,8,1,I,8,L,1,S,8,0.264696,0.810257,0.214472
12,37,8,2,2,9,1,I,6,S,7,L,11,0.763532,0.534678,0.408244
12,38,8,9,8,9,1,C,1,S,1,S,11,0.36093,0.78272,0.282507
12,39,1,8,2,9,1,C,7,L,7,L,7,0.14648,0.880117,0.12892
12,40,2,9,8,1,1,I,7,L,7,L,11,0.544545,0.757948,0.412736
12,41,8,2,8,1,1,C,6,S,7,L,7,0.856783,0.163747,0.140296
12,42,1,8,8,9,1,C,7,L,1,S,8,0.227106,0.842202,0.191269
12,43,8,1,1,2,1,I,7,L,1,S,9,0.802702,0.349434,0.280491
12,44,9,1,9,2,1,C,8,L,7,L,7,0.880637,0.149997,0.132093
12,45,8,1,8,9,1,I,7,L,1,S,8,0.781374,0.2872,0.224411
12,46,9,2,9,8,1,C,7,L,1,S,8,0.807871,0.259224,0.20942
12,47,1,9,8,1,1,I,8,L,7,L,10,0.504229,0.761604,0.384023
12,48,9,8,1,2,1,I,1,S,1,S,23,0.753405,0.64224,0.483867
12,49,9,2,8,2,1,C,7,L,6,S,7,0.846332,0.172537,0.146024
12,50,2,8,2,9,1,C,6,S,7,L,7,0.176344,0.835924,0.14741
12,51,2,1,8,9,1,I,1,S,1,S,11,0.776119,0.399092,0.309743
12,52,2,8,2,8,1,C,6,S,6,S,7,0.182745,0.825169,0.150796
12,53,1,9,1,2,1,C,8,L,1,S,7,0.212664,0.783766,0.166679
12,54,9,2,2,9,1,I,7,L,7,L,11,0.782172,0.522309,0.408536
12,55,9,8,8,9,1,I,1,S,1,S,20,0.754643,0.598389,0.45157
12,56,8,1,1,8,1,I,7,L,7,L,11,0.788308,0.521077,0.410769
12,57,8,9,1,2,1,C,1,S,1,S,10,0.324204,0.797845,0.258664
12,58,1,2,9,1,1,I,1,S,8,L,17,0.651732,0.750207,0.488934
12,59,8,1,9,2,1,C,7,L,7,L,7,0.866965,0.157712,0.136731
12,60,1,8,8,2,1,I,7,L,6,S,10,0.480497,0.772988,0.371419
12,61,1,9,8,9,1,C,8,L,1,S,8,0.222119,0.851902,0.189224
12,62,1,8,1,2,1,C,7,L,1,S,7,0.217123,0.774595,0.168183
12,63,1,8,9,1,1,I,7,L,8,L,11,0.523525,0.788696,0.412902
12,64,9,1,8,9,1,I,8,L,1,S,8,0.795807,0.278738,0.221822
12,65,2,1,1,8,1,I,1,S,7,L,17,0.765146,0.636769,0.487221
12,66,1,2,1,9,1,C,1,S,8,L,8,0.216183,0.847264,0.183164
12,67,1,9,9,2,1,I,8,L,7,L,10,0.481111,0.780166,0.375346
12,68,9,1,9,1,1,C,8,L,8,L,6,0.757628,0.168022,0.127298
12,69,8,9,2,8,1,C,1,S,6,S,9,0.270017,0.837074,0.226025
12,70,8,9,8,2,0,I,1,S,6,S,12,0.751525,0.4975,0.373884
12,71,2,1,2,1,1,C,1,S,1,S,9,0.825598,0.263121,0.217233
12,72,2,1,2,8,1,I,1,S,6,S,16,0.757469,0.626229,0.474349
12,73,9,2,9,2,1,C,7,L,7,L,7,0.851636,0.170707,0.14538
12,74,9,8,2,8,0,I,1,S,6,S,10,0.381773,0.767811,0.29313
12,75,9,8,1,8,0,I,1,S,7,L,10,0.365,0.792349,0.289207
12,76,2,9,8,2,1,I,7,L,6,S,11,0.515931,0.779255,0.402042
12,77,9,2,9,1,1,C,7,L,8,L,7,0.878105,0.152412,0.133833
12,78,2,1,1,2,1,I,1,S,1,S,13,0.768692,0.515215,0.396041
12,79,2,9,9,2,1,I,7,L,7,L,11,0.522201,0.776246,0.405356
12,80,2,8,1,8,1,C,6,S,7,L,7,0.168486,0.847728,0.14283
12,81,8,2,1,2,1,I,6,S,1,S,9,0.767706,0.375175,0.288024
12,82,2,1,9,8,1,C,1,S,1,S,10,0.807023,0.319116,0.257534
12,83,1,2,1,2,1,C,1,S,1,S,9,0.281908,0.802774,0.226308
12,84,1,9,1,8,1,C,8,L,7,L,6,0.17,0.752261,0.127884
12,85,9,1,2,1,1,C,8,L,1,S,7,0.788811,0.207684,0.163823
12,86,1,9,2,9,1,C,8,L,7,L,7,0.142021,0.889287,0.126297
12,87,1,9,8,2,1,I,8,L,6,S,10,0.474889,0.782996,0.371836
12,88,9,8,1,9,0,I,1,S,8,L,9,0.356003,0.754584,0.268634
12,89,9,1,1,9,1,I,8,L,8,L,10,0.75753,0.512399,0.388158
12,90,9,2,2,1,1,C,7,L,1,S,7,0.75981,0.228394,0.173536
12,91,8,9,2,9,1,C,1,S,7,L,8,0.289137,0.756316,0.218679
12,92,8,9,2,1,1,I,1,S,1,S,19,0.608712,0.772451,0.470201
12,93,1,8,2,8,1,C,7,L,6,S,7,0.152882,0.869363,0.13291
12,94,2,9,1,2,1,C,7,L,1,S,8,0.208898,0.861823,0.180033
12,95,2,8,1,2,1,C,6,S,1,S,8,0.215997,0.848801,0.183338
12,96,1,2,8,9,1,C,1,S,1,S,10,0.306713,0.817548,0.250753
12,97,8,9,9,2,0,I,1,S,7,L,12,0.75778,0.494371,0.374624
12,98,2,1,1,9,1,I,1,S,8,L,17,0.759866,0.644439,0.489688
12,99,1,2,2,9,1,C,1,S,7,L,8,0.230186,0.825612,0.190044
12,100,8,9,1,9,1,C,1,S,8,L,8,0.275134,0.777969,0.214046
12,101,2,8,9,8,1,I,6,S,1,S,8,0.302013,0.753538,0.227579
12,102,2,9,2,9,1,C,7,L,7,L,7,0.170095,0.847915,0.144226
12,103,9,1,1,2,1,I,8,L,1,S,8,0.752368,0.332356,0.250054
12,104,8,1,8,1,1,C,7,L,7,L,7,0.88907,0.140777,0.12516
12,105,1,9,2,1,1,I,8,L,1,S,9,0.349921,0.808703,0.282982
12,106,1,2,2,8,1,C,1,S,6,S,8,0.237272,0.814057,0.193153
12,107,2,9,8,9,1,C,7,L,1,S,8,0.252337,0.808205,0.20394
12,108,1,9,1,9,1,C,8,L,8,L,6,0.165592,0.760102,0.125867
12,109,8,9,1,8,1,C,1,S,7,L,8,0.280651,0.768802,0.215765
12,110,1,8,1,8,1,C,7,L,7,L,7,0.138623,0.891921,0.123641
12,111,1,8,2,1,1,I,7,L,1,S,9,0.355284,0.798754,0.283785
12,112,8,1,9,1,1,C,7,L,8,L,7,0.893433,0.139417,0.12456
12,113,2,1,9,2,1,C,1,S,7,L,8,0.827847,0.228875,0.189474
12,114,9,2,1,9,1,I,7,L,8,L,11,0.767188,0.543781,0.417182
12,115,8,2,9,8,1,C,6,S,1,S,8,0.789609,0.270309,0.213439
12,116,2,8,8,9,1,C,6,S,1,S,8,0.259436,0.795183,0.206299
12,117,2,8,2,1,1,I,6,S,1,S,9,0.389056,0.750754,0.292085
12,118,9,2,1,8,1,I,7,L,7,L,11,0.773199,0.53462,0.413368
12,119,8,2,8,2,1,C,6,S,6,S,7,0.829374,0.182513,0.151371
12,120,1,2,8,1,1,I,1,S,7,L,17,0.646846,0.752714,0.48689
12,121,9,8,9,8,1,C,1,S,1,S,13,0.781671,0.398221,0.311278
12,122,2,8,8,2,1,I,6,S,6,S,11,0.524223,0.765648,0.401371
12,123,2,9,9,1,1,I,7,L,8,L,11,0.549533,0.755715,0.41529
12,124,9,8,9,2,1,C,1,S,7,L,9,0.794747,0.307274,0.244205
12,125,2,9,9,8,1,I,7,L,1,S,8,0.294914,0.76656,0.226069
12,126,2,9,1,8,1,C,7,L,7,L,7,0.162237,0.85972,0.139479
12,127,8,2,1,9,1,I,6,S,8,L,12,0.783047,0.559994,0.438502
12,128,9,1,9,8,1,C,8,L,1,S,8,0.838384,0.237093,0.198775
12,129,1,8,1,9,1,C,7,L,8,L,6,0.169364,0.751848,0.127336
12,130,1,8,8,1,1,I,7,L,7,L,10,0.509837,0.751597,0.383192
12,131,8,9,8,1,0,I,1,S,7,L,11,0.76706,0.449103,0.344489
12,132,2,9,2,8,1,C,7,L,6,S,7,0.176496,0.837161,0.147756
12,133,8,2,2,8,1,I,6,S,6,S,11,0.771393,0.522925,0.403381
12,134,8,2,8,9,1,I,6,S,1,S,9,0.823197,0.304068,0.250307
12,135,8,1,8,2,1,C,7,L,6,S,7,0.86166,0.159542,0.137471
12,136,9,2,1,2,1,I,7,L,1,S,9,0.786548,0.363358,0.285798
12,137,2,1,8,1,1,C,1,S,7,L,8,0.851114,0.210881,0.179484
12,138,2,1,9,1,1,C,1,S,8,L,8,0.855777,0.209223,0.179048
12,139,2,1,8,2,1,C,1,S,6,S,8,0.822059,0.231119,0.189994
12,140,9,1,2,9,1,I,8,L,7,L,10,0.772489,0.490484,0.378893
12,141,1,2,1,8,1,C,1,S,7,L,8,0.221699,0.838098,0.185806
12,142,9,1,8,1,1,C,8,L,7,L,6,0.753723,0.169033,0.127404
12,143,8,1,2,1,1,C,7,L,1,S,7,0.775139,0.2154,0.166964
12,144,2,8,8,1,1,I,6,S,7,L,12,0.556845,0.778882,0.433716
13,1,2,8,9,2,1,I,6,S,7,L,11,0.521845,0.777598,0.405786
13,2,2,9,1,8,1,C,7,L,7,L,7,0.159738,0.862339,0.137748
13,3,8,9,1,8,1,C,1,S,7,L,9,0.280258,0.829422,0.232452
13,4,1,2,8,2,1,I,1,S,6,S,16,0.621955,0.757524,0.471146
13,5,9,8,9,8,1,C,1,S,1,S,12,0.761247,0.400401,0.304804
13,6,1,9,2,8,1,C,8,L,6,S,7,0.152224,0.872043,0.132746
13,7,1,8,8,1,1,I,7,L,7,L,10,0.501244,0.763854,0.382877
13,8,8,1,9,1,1,C,7,L,8,L,7,0.890454,0.143939,0.128171
13,9,1,9,1,2,1,C,8,L,1,S,7,0.20384,0.791153,0.161268
13,10,1,9,8,1,1,I,8,L,7,L,10,0.501644,0.762451,0.382479
13,11,2,8,9,8,1,I,6,S,1,S,8,0.302845,0.760025,0.23017
13,12,1,9,8,2,1,I,8,L,6,S,10,0.47205,0.782607,0.36943
13,13,1,2,2,8,1,C,1,S,6,S,8,0.231877,0.817718,0.18961
13,14,8,2,1,8,1,I,6,S,7,L,12,0.782538,0.554436,0.433867
13,15,8,2,1,9,1,I,6,S,8,L,12,0.776934,0.562698,0.437179
13,16,2,9,1,9,1,C,7,L,8,L,7,0.154922,0.870445,0.134851
13,17,8,1,8,2,1,C,7,L,6,S,7,0.855407,0.165094,0.141223
13,18,1,9,1,9,1,C,8,L,8,L,6,0.164738,0.758683,0.124984
13,19,9,1,8,9,1,I,8,L,1,S,8,0.787241,0.288883,0.227421
13,20,2,1,8,9,1,I,1,S,1,S,12,0.759838,0.45415,0.34508
13,21,2,9,9,2,1,I,7,L,7,L,11,0.522412,0.77592,0.405349
13,22,8,1,2,1,1,C,7,L,1,S,7,0.768725,0.223606,0.171891
13,23,8,9,2,8,1,C,1,S,6,S,9,0.301706,0.799033,0.241073
13,24,1,9,8,9,1,C,8,L,1,S,8,0.216144,0.857173,0.185273
13,25,9,1,8,1,1,C,8,L,7,L,7,0.897424,0.138628,0.124408
13,26,9,1,9,8,1,C,8,L,1,S,8,0.845803,0.230087,0.194608
13,27,1,2,1,8,1,C,1,S,7,L,8,0.211331,0.847505,0.179104
13,28,2,8,2,8,1,C,6,S,6,S,7,0.178551,0.835669,0.14921
13,29,2,9,8,2,1,I,7,L,6,S,11,0.510992,0.783032,0.400123
13,30,1,9,9,2,1,I,8,L,7,L,10,0.483569,0.775645,0.375078
13,31,8,1,9,2,1,C,7,L,7,L,7,0.865545,0.15964,0.138175
13,32,8,9,8,9,1,C,1,S,1,S,12,0.355456,0.816371,0.290184
13,33,1,2,1,9,1,C,1,S,8,L,8,0.206106,0.856016,0.17643
13,34,2,9,9,8,1,I,7,L,1,S,8,0.30314,0.758544,0.229945
13,35,8,1,1,8,1,I,7,L,7,L,11,0.784531,0.525532,0.412296
13,36,1,2,8,1,1,I,1,S,7,L,17,0.636743,0.762099,0.485261
13,37,2,8,9,1,1,I,6,S,8,L,11,0.548092,0.759268,0.416149
13,38,2,8,8,9,1,C,6,S,1,S,8,0.244284,0.818821,0.200025
13,39,8,2,2,9,1,I,6,S,7,L,11,0.761631,0.532753,0.405761
13,40,1,9,9,1,1,I,8,L,8,L,10,0.51035,0.757357,0.386518
13,41,8,1,2,8,1,I,7,L,6,S,10,0.766402,0.487007,0.373243
13,42,9,8,9,1,1,C,1,S,8,L,9,0.827089,0.286517,0.236975
13,43,1,8,8,2,1,I,7,L,6,S,10,0.47165,0.78401,0.369778
13,44,2,8,1,8,1,C,6,S,7,L,7,0.159561,0.863685,0.137811
13,45,8,9,8,1,0,I,1,S,7,L,10,0.77776,0.383328,0.298137
13,46,2,8,1,2,1,C,6,S,1,S,7,0.230167,0.754779,0.173725
13,47,2,9,2,8,1,C,7,L,6,S,7,0.178728,0.834323,0.149117
13,48,9,8,1,2,1,I,1,S,1,S,23,0.763984,0.635643,0.485621
13,49,1,9,2,1,1,I,8,L,1,S,9,0.344668,0.812082,0.279899
13,50,1,8,9,1,1,I,7,L,8,L,10,0.50995,0.75876,0.38693
13,51,2,1,8,1,1,C,1,S,7,L,8,0.818089,0.239125,0.195626
13,52,2,1,9,1,1,C,1,S,8,L,8,0.826563,0.234543,0.193865
13,53,1,2,9,1,1,I,1,S,8,L,17,0.644269,0.757298,0.487903
13,54,2,1,8,2,1,C,1,S,6,S,8,0.789191,0.257773,0.203432
13,55,2,9,8,1,1,I,7,L,7,L,11,0.540035,0.762781,0.411929
13,56,9,2,1,2,1,I,7,L,1,S,9,0.769458,0.379934,0.292343
13,57,9,8,1,9,0,I,1,S,8,L,9,0.358614,0.754387,0.270534
13,58,8,2,2,8,1,I,6,S,6,S,11,0.76967,0.521035,0.401025
13,59,9,1,2,9,1,I,8,L,7,L,10,0.774344,0.488053,0.377921
13,60,1,8,1,9,1,C,7,L,8,L,6,0.164693,0.75974,0.125124
13,61,8,2,9,1,1,C,6,S,8,L,7,0.856632,0.164612,0.141012
13,62,1,9,2,9,1,C,8,L,7,L,7,0.145617,0.882755,0.128544
13,63,8,1,8,9,1,I,7,L,1,S,8,0.771474,0.299086,0.230737
13,64,8,1,9,8,1,C,7,L,1,S,8,0.830035,0.24029,0.199449
13,65,9,2,2,8,1,I,7,L,6,S,11,0.789896,0.506812,0.400329
13,66,9,8,1,8,0,I,1,S,7,L,10,0.369123,0.791366,0.292111
13,67,9,1,2,1,1,C,8,L,1,S,7,0.783707,0.214172,0.167848
13,68,9,1,2,8,1,I,8,L,6,S,10,0.782317,0.476139,0.372492
13,69,1,8,9,2,1,I,7,L,7,L,10,0.483168,0.777048,0.375445
13,70,2,1,2,9,1,I,1,S,7,L,18,0.765072,0.64112,0.490503
13,71,9,1,1,2,1,I,8,L,1,S,9,0.802106,0.35896,0.287924
13,72,9,2,2,9,1,I,7,L,7,L,11,0.781858,0.51853,0.405417
13,73,9,1,9,1,1,C,8,L,8,L,6,0.756059,0.170753,0.129099
13,74,9,8,2,1,1,C,1,S,1,S,11,0.818132,0.338933,0.277292
13,75,8,9,9,2,0,I,1,S,7,L,10,0.759684,0.396522,0.301232
13,76,8,9,1,2,1,C,1,S,1,S,10,0.345991,0.77057,0.26661
13,77,2,1,1,8,1,I,1,S,7,L,18,0.754664,0.653787,0.493389
13,78,1,2,2,1,1,I,1,S,1,S,13,0.52144,0.76069,0.396654
13,79,2,8,2,9,1,C,6,S,7,L,7,0.171945,0.84638,0.145531
13,80,9,1,1,9,1,I,8,L,8,L,10,0.754893,0.514941,0.388725
13,81,9,2,1,9,1,I,7,L,8,L,11,0.762493,0.544753,0.41537
13,82,9,8,8,1,1,C,1,S,7,L,9,0.818411,0.291415,0.238498
13,83,2,9,2,9,1,C,7,L,7,L,7,0.172121,0.845034,0.145448
13,84,8,2,9,2,1,C,6,S,7,L,7,0.831724,0.180313,0.14997
13,85,9,2,8,1,1,C,7,L,7,L,7,0.867226,0.156876,0.136047
13,86,1,8,1,2,1,C,7,L,1,S,7,0.203693,0.792342,0.161395
13,87,9,2,9,1,1,C,7,L,8,L,7,0.875237,0.152753,0.133695
13,88,2,9,8,9,1,C,7,L,1,S,8,0.244579,0.81734,0.199904
13,89,2,1,1,2,1,I,1,S,1,S,15,0.768288,0.56687,0.43552
13,90,8,9,8,2,0,I,1,S,6,S,11,0.780288,0.41419,0.323188
13,91,8,2,8,1,1,C,6,S,7,L,7,0.848621,0.168735,0.143192
13,92,1,8,1,8,1,C,7,L,7,L,6,0.168926,0.752409,0.127101
13,93,8,2,8,2,1,C,6,S,6,S,7,0.821586,0.185767,0.152624
13,94,1,8,2,9,1,C,7,L,7,L,7,0.145471,0.883944,0.128588
13,95,1,2,8,9,1,C,1,S,1,S,9,0.318188,0.752563,0.239457
13,96,1,2,2,9,1,C,1,S,7,L,8,0.224581,0.829254,0.186235
13,97,9,2,8,9,1,I,7,L,1,S,8,0.75526,0.308806,0.233229
13,98,8,9,2,9,1,C,1,S,7,L,9,0.293966,0.810925,0.238384
13,99,1,8,2,8,1,C,7,L,6,S,7,0.152078,0.873233,0.132799
13,100,2,1,9,2,1,C,1,S,7,L,8,0.80018,0.251612,0.201335
13,101,2,9,9,1,1,I,7,L,8,L,11,0.548659,0.75759,0.415658
