ANN,trial,N1,N2,P1,P2,Succ.,Cong,Ndist,Ndist,Pdist,Pdist,rt,a1,a2,x_acc
1,1,2,9,2,8,1,C,7,L,6,S,7,0.183646,0.824779,0.151468
1,2,2,1,8,2,1,C,1,S,6,S,8,0.84607,0.216886,0.183501
1,3,1,8,8,2,1,I,7,L,6,S,10,0.471227,0.784834,0.369835
1,4,9,2,8,2,1,C,7,L,6,S,7,0.850773,0.169592,0.144284
1,5,1,2,2,8,1,C,1,S,6,S,8,0.24942,0.801382,0.199881
1,6,8,9,2,8,1,C,1,S,6,S,9,0.308372,0.788049,0.243012
1,7,8,9,8,2,0,I,1,S,6,S,10,0.755654,0.391951,0.29618
1,8,8,1,2,8,1,I,7,L,6,S,10,0.780634,0.474845,0.37068
1,9,9,2,2,8,1,I,7,L,6,S,10,0.763267,0.488458,0.372824
1,10,9,8,2,8,0,I,1,S,6,S,11,0.424431,0.770055,0.326835
1,11,1,2,8,2,1,I,1,S,6,S,17,0.627482,0.767695,0.481715
1,12,2,9,8,2,1,I,7,L,6,S,11,0.515399,0.774935,0.399401
1,13,8,1,8,2,1,C,7,L,6,S,7,0.867492,0.157161,0.136336
1,14,1,8,2,8,1,C,7,L,6,S,7,0.15355,0.871414,0.133805
1,15,9,8,8,2,1,C,1,S,6,S,9,0.801329,0.29745,0.238355
1,16,2,1,2,8,1,I,1,S,6,S,15,0.773419,0.601482,0.465198
2,1,9,8,8,2,1,C,1,S,6,S,9,0.770017,0.323132,0.248817
2,2,9,2,8,2,1,C,7,L,6,S,7,0.835924,0.176833,0.147819
2,3,8,9,2,8,1,C,1,S,6,S,8,0.280264,0.758205,0.212498
2,4,2,9,2,8,1,C,7,L,6,S,7,0.168372,0.845527,0.142363
2,5,1,2,2,8,1,C,1,S,6,S,8,0.252424,0.791997,0.199919
2,6,1,8,2,8,1,C,7,L,6,S,7,0.152364,0.871212,0.132742
2,7,1,2,8,2,1,I,1,S,6,S,17,0.631613,0.754934,0.476827
2,8,8,1,8,2,1,C,7,L,6,S,7,0.849253,0.165646,0.140675
2,9,2,1,2,8,1,I,1,S,6,S,16,0.751378,0.626773,0.470943
2,10,9,8,2,8,0,I,1,S,6,S,10,0.377429,0.769576,0.29046
2,11,1,8,8,2,1,I,7,L,6,S,10,0.463667,0.787711,0.365235
2,12,8,1,2,8,1,I,7,L,6,S,10,0.766493,0.482935,0.370167
2,13,2,9,8,2,1,I,7,L,6,S,10,0.482319,0.760148,0.366634
2,14,2,1,8,2,1,C,1,S,6,S,8,0.80129,0.243645,0.195231
2,15,8,9,8,2,1,I,1,S,6,S,20,0.637767,0.769776,0.490937
2,16,9,2,2,8,1,I,7,L,6,S,10,0.752828,0.494846,0.372534
3,1,8,9,8,2,1,I,1,S,6,S,19,0.646092,0.762995,0.492965
3,2,9,2,8,2,1,C,7,L,6,S,7,0.85204,0.166245,0.141647
3,3,1,2,8,2,1,I,1,S,6,S,17,0.63326,0.758932,0.480602
3,4,1,2,2,8,1,C,1,S,6,S,8,0.236591,0.808135,0.191197
3,5,2,9,2,8,1,C,7,L,6,S,7,0.169473,0.844555,0.143129
3,6,9,8,2,8,0,I,1,S,6,S,10,0.369661,0.777647,0.287466
3,7,8,1,2,8,1,I,7,L,6,S,10,0.76632,0.48222,0.369535
3,8,9,8,8,2,1,C,1,S,6,S,9,0.790019,0.312878,0.24718
3,9,2,1,2,8,1,I,1,S,6,S,15,0.751159,0.615848,0.4626
3,10,9,2,2,8,1,I,7,L,6,S,11,0.786075,0.507579,0.398995
3,11,1,8,8,2,1,I,7,L,6,S,10,0.488092,0.770504,0.376076
3,12,1,8,2,8,1,C,7,L,6,S,7,0.151114,0.871045,0.131627
3,13,2,1,8,2,1,C,1,S,6,S,8,0.845247,0.214999,0.181727
3,14,2,9,8,2,1,I,7,L,6,S,11,0.517461,0.782633,0.404982
3,15,8,9,2,8,1,C,1,S,6,S,8,0.266411,0.775215,0.206526
3,16,8,1,8,2,1,C,7,L,6,S,7,0.87173,0.151167,0.131777
4,1,9,8,8,2,1,C,1,S,6,S,8,0.781042,0.26428,0.206414
4,2,2,9,8,2,1,I,7,L,6,S,11,0.510431,0.78249,0.399407
4,3,1,2,2,8,1,C,1,S,6,S,8,0.22295,0.834746,0.186107
4,4,1,8,2,8,1,C,7,L,6,S,7,0.156693,0.863285,0.13527
4,5,2,1,8,2,1,C,1,S,6,S,8,0.803968,0.244416,0.196503
4,6,1,8,8,2,1,I,7,L,6,S,10,0.47887,0.772527,0.36994
4,7,2,9,2,8,1,C,7,L,6,S,7,0.176709,0.834722,0.147502
4,8,9,2,8,2,1,C,7,L,6,S,7,0.851701,0.167516,0.142674
4,9,8,1,8,2,1,C,7,L,6,S,7,0.862002,0.157343,0.13563
4,10,8,9,2,8,1,C,1,S,6,S,9,0.309685,0.782588,0.242356
4,11,8,9,8,2,0,I,1,S,6,S,10,0.761463,0.38163,0.290597
4,12,1,2,8,2,1,I,1,S,6,S,15,0.613535,0.756971,0.464429
4,13,8,1,2,8,1,I,7,L,6,S,10,0.770978,0.479401,0.369607
4,14,9,2,2,8,1,I,7,L,6,S,10,0.760813,0.489747,0.372606
4,15,2,1,2,8,1,I,1,S,6,S,17,0.765911,0.626151,0.479576
4,16,9,8,2,8,1,I,1,S,6,S,18,0.759676,0.640377,0.486479
5,1,2,1,8,2,1,C,1,S,6,S,8,0.812063,0.237081,0.192525
5,2,2,9,8,2,1,I,7,L,6,S,11,0.507094,0.786624,0.398892
5,3,1,2,8,2,1,I,1,S,6,S,16,0.630952,0.752351,0.474697
5,4,8,9,8,2,0,I,1,S,6,S,11,0.770041,0.421428,0.324517
5,5,1,8,2,8,1,C,7,L,6,S,7,0.1562,0.863938,0.134947
5,6,1,2,2,8,1,C,1,S,6,S,8,0.238566,0.814305,0.194265
5,7,1,8,8,2,1,I,7,L,6,S,10,0.483718,0.768343,0.371661
5,8,9,8,2,8,0,I,1,S,6,S,11,0.429343,0.761956,0.32714
5,9,8,1,2,8,1,I,7,L,6,S,10,0.773419,0.479486,0.370844
5,10,2,9,2,8,1,C,7,L,6,S,7,0.168242,0.843862,0.141973
5,11,9,2,2,8,1,I,7,L,6,S,11,0.780159,0.512332,0.399701
5,12,8,1,8,2,1,C,7,L,6,S,7,0.86934,0.153193,0.133176
5,13,2,1,2,8,1,I,1,S,6,S,17,0.769949,0.621628,0.478621
5,14,8,9,2,8,1,C,1,S,6,S,9,0.288573,0.806565,0.232753
5,15,9,8,8,2,1,C,1,S,6,S,9,0.810658,0.284438,0.230582
5,16,9,2,8,2,1,C,7,L,6,S,7,0.837871,0.174151,0.145916
6,1,1,2,8,2,1,I,1,S,6,S,16,0.615678,0.764667,0.470789
6,2,1,8,8,2,1,I,7,L,6,S,10,0.477715,0.771356,0.368488
6,3,2,9,8,2,1,I,7,L,6,S,11,0.504685,0.789474,0.398436
6,4,9,2,2,8,1,I,7,L,6,S,11,0.774295,0.510714,0.395443
6,5,1,2,2,8,1,C,1,S,6,S,8,0.234501,0.812508,0.190534
6,6,9,8,2,8,0,I,1,S,6,S,10,0.384649,0.757564,0.291396
6,7,2,9,2,8,1,C,7,L,6,S,7,0.178994,0.83105,0.148753
6,8,1,8,2,8,1,C,7,L,6,S,7,0.162522,0.852347,0.138525
6,9,8,9,2,8,1,C,1,S,6,S,9,0.280904,0.817776,0.229716
6,10,2,1,8,2,1,C,1,S,6,S,8,0.840901,0.218518,0.183752
6,11,8,1,8,2,1,C,7,L,6,S,7,0.865767,0.156078,0.135128
6,12,8,1,2,8,1,I,7,L,6,S,10,0.783462,0.466573,0.365542
6,13,8,9,8,2,0,I,1,S,6,S,12,0.752318,0.489638,0.368363
6,14,9,8,8,2,1,C,1,S,6,S,9,0.778188,0.316277,0.246123
6,15,9,2,8,2,1,C,7,L,6,S,7,0.819557,0.186358,0.152731
6,16,2,1,2,8,1,I,1,S,6,S,15,0.772833,0.596845,0.461261
7,1,8,9,2,8,1,C,1,S,6,S,8,0.285406,0.755637,0.215663
7,2,2,1,8,2,1,C,1,S,6,S,8,0.818794,0.233818,0.191449
7,3,1,2,8,2,1,I,1,S,6,S,15,0.599531,0.773286,0.463609
7,4,2,1,2,8,1,I,1,S,6,S,16,0.757065,0.626259,0.474119
7,5,8,1,8,2,1,C,7,L,6,S,7,0.866925,0.156983,0.136092
7,6,1,2,2,8,1,C,1,S,6,S,8,0.205094,0.857655,0.1759
7,7,8,1,2,8,1,I,7,L,6,S,10,0.7721,0.484505,0.374086
7,8,9,8,2,8,0,I,1,S,6,S,10,0.376379,0.775741,0.291973
7,9,9,2,8,2,1,C,7,L,6,S,7,0.82483,0.183628,0.151462
7,10,8,9,8,2,1,I,1,S,6,S,20,0.657756,0.751284,0.494162
7,11,9,2,2,8,1,I,7,L,6,S,11,0.766853,0.524729,0.40239
7,12,9,8,8,2,1,C,1,S,6,S,9,0.78313,0.316777,0.248078
7,13,2,9,8,2,1,I,7,L,6,S,10,0.493567,0.752935,0.371624
7,14,2,9,2,8,1,C,7,L,6,S,7,0.165852,0.850597,0.141073
7,15,1,8,8,2,1,I,7,L,6,S,10,0.472295,0.78533,0.370907
7,16,1,8,2,8,1,C,7,L,6,S,7,0.147788,0.880712,0.130159
8,1,1,8,2,8,1,C,7,L,6,S,7,0.154167,0.868073,0.133828
8,2,1,8,8,2,1,I,7,L,6,S,10,0.480902,0.771266,0.370904
8,3,1,2,8,2,1,I,1,S,6,S,16,0.620544,0.76223,0.472997
8,4,8,9,8,2,0,I,1,S,6,S,10,0.760253,0.384499,0.292316
8,5,2,9,8,2,1,I,7,L,6,S,11,0.511103,0.781516,0.399435
8,6,2,1,2,8,1,I,1,S,6,S,18,0.771537,0.630737,0.486637
8,7,2,1,8,2,1,C,1,S,6,S,8,0.793203,0.25392,0.20141
8,8,9,2,2,8,1,I,7,L,6,S,11,0.777003,0.515976,0.400915
8,9,2,9,2,8,1,C,7,L,6,S,7,0.172432,0.840163,0.144871
8,10,8,9,2,8,1,C,1,S,6,S,9,0.303324,0.792144,0.240276
8,11,9,8,2,8,1,I,1,S,6,S,21,0.757863,0.653976,0.495624
8,12,1,2,2,8,1,C,1,S,6,S,8,0.227892,0.826321,0.188312
8,13,9,2,8,2,1,C,7,L,6,S,7,0.835113,0.175531,0.146588
8,14,8,1,2,8,1,I,7,L,6,S,10,0.76054,0.491249,0.373615
8,15,9,8,8,2,1,C,1,S,6,S,9,0.836533,0.265728,0.222291
8,16,8,1,8,2,1,C,7,L,6,S,7,0.856969,0.162173,0.138977
9,1,9,2,2,8,1,I,7,L,6,S,11,0.777596,0.514416,0.400008
9,2,2,1,2,8,1,I,1,S,6,S,16,0.771491,0.616697,0.475776
9,3,1,2,2,8,1,C,1,S,6,S,8,0.216173,0.839629,0.181505
9,4,8,1,2,8,1,I,7,L,6,S,10,0.773317,0.48383,0.374154
9,5,8,1,8,2,1,C,7,L,6,S,7,0.868629,0.156568,0.136
9,6,1,2,8,2,1,I,1,S,6,S,15,0.61452,0.75258,0.462475
9,7,1,8,2,8,1,C,7,L,6,S,7,0.147856,0.877998,0.129817
9,8,9,8,8,2,1,C,1,S,6,S,9,0.789121,0.305454,0.24104
9,9,8,9,8,2,0,I,1,S,6,S,11,0.750026,0.456965,0.342736
9,10,9,2,8,2,1,C,7,L,6,S,7,0.836214,0.173741,0.145285
9,11,9,8,2,8,0,I,1,S,6,S,10,0.383436,0.762776,0.292476
9,12,8,9,2,8,1,C,1,S,6,S,9,0.278403,0.82941,0.23091
9,13,2,1,8,2,1,C,1,S,6,S,8,0.831054,0.227328,0.188922
9,14,2,9,2,8,1,C,7,L,6,S,7,0.17487,0.84123,0.147106
9,15,1,8,8,2,1,I,7,L,6,S,10,0.474022,0.781755,0.370569
9,16,2,9,8,2,1,I,7,L,6,S,11,0.512672,0.783645,0.401753
10,1,2,1,2,8,1,I,1,S,6,S,15,0.754877,0.616542,0.465414
10,2,1,2,8,2,1,I,1,S,6,S,17,0.623319,0.771008,0.480584
10,3,1,8,8,2,1,I,7,L,6,S,10,0.476482,0.778942,0.371152
10,4,2,1,8,2,1,C,1,S,6,S,8,0.834926,0.223071,0.186248
10,5,2,9,8,2,1,I,7,L,6,S,11,0.510476,0.783603,0.40001
10,6,8,9,2,8,1,C,1,S,6,S,9,0.308616,0.788585,0.24337
10,7,1,2,2,8,1,C,1,S,6,S,8,0.242254,0.809487,0.196101
10,8,9,2,2,8,1,I,7,L,6,S,10,0.753824,0.49465,0.372879
10,9,9,8,8,2,1,C,1,S,6,S,9,0.814181,0.28495,0.232001
10,10,1,8,2,8,1,C,7,L,6,S,7,0.153697,0.87173,0.133983
10,11,9,8,2,8,0,I,1,S,6,S,11,0.439013,0.758952,0.33319
10,12,8,1,2,8,1,I,7,L,6,S,10,0.781075,0.475503,0.371404
10,13,8,9,8,2,0,I,1,S,6,S,10,0.761895,0.385116,0.293418
10,14,8,1,8,2,1,C,7,L,6,S,7,0.873174,0.151549,0.132328
10,15,9,2,8,2,1,C,7,L,6,S,7,0.847521,0.168295,0.142634
10,16,2,9,2,8,1,C,7,L,6,S,7,0.175537,0.838325,0.147157
11,1,1,2,8,2,1,I,1,S,6,S,15,0.605545,0.76228,0.461595
11,2,8,9,8,2,0,I,1,S,6,S,11,0.776319,0.409856,0.318179
11,3,2,9,8,2,1,I,7,L,6,S,10,0.485204,0.754846,0.366255
11,4,1,8,8,2,1,I,7,L,6,S,10,0.462691,0.786414,0.363867
11,5,2,9,2,8,1,C,7,L,6,S,7,0.171817,0.83967,0.144269
11,6,8,9,2,8,1,C,1,S,6,S,9,0.303509,0.792514,0.240535
11,7,2,1,8,2,1,C,1,S,6,S,8,0.78082,0.261003,0.203796
11,8,9,2,2,8,1,I,7,L,6,S,11,0.77683,0.512649,0.398241
11,9,8,1,8,2,1,C,7,L,6,S,7,0.851641,0.165753,0.141162
11,10,9,8,2,8,0,I,1,S,6,S,10,0.381653,0.758905,0.289639
11,11,8,1,2,8,1,I,7,L,6,S,10,0.770663,0.481247,0.370879
11,12,9,8,8,2,1,C,1,S,6,S,9,0.771267,0.315119,0.243041
11,13,1,2,2,8,1,C,1,S,6,S,8,0.224646,0.832374,0.186989
11,14,2,1,2,8,1,I,1,S,6,S,17,0.753359,0.635774,0.478966
11,15,1,8,2,8,1,C,7,L,6,S,7,0.152137,0.869244,0.132244
11,16,9,2,8,2,1,C,7,L,6,S,7,0.820068,0.184707,0.151472
12,1,9,8,8,2,1,C,1,S,6,S,9,0.783248,0.312882,0.245064
12,2,2,1,2,8,1,I,1,S,6,S,17,0.769967,0.620232,0.477558
12,3,9,2,8,2,1,C,7,L,6,S,7,0.848182,0.166602,0.141309
12,4,1,2,2,8,1,C,1,S,6,S,8,0.247499,0.798662,0.197668
12,5,1,8,8,2,1,I,7,L,6,S,10,0.477285,0.781231,0.37287
12,6,2,1,8,2,1,C,1,S,6,S,8,0.810985,0.237425,0.192548
12,7,1,2,8,2,1,I,1,S,6,S,17,0.629836,0.762089,0.479991
12,8,2,9,8,2,1,I,7,L,6,S,11,0.514102,0.778489,0.400223
12,9,8,9,2,8,1,C,1,S,6,S,9,0.308453,0.786673,0.242652
12,10,9,8,2,8,0,I,1,S,6,S,10,0.378908,0.764857,0.289811
12,11,2,9,2,8,1,C,7,L,6,S,7,0.178768,0.830143,0.148403
12,12,1,8,2,8,1,C,7,L,6,S,7,0.155485,0.869697,0.135225
12,13,8,1,2,8,1,I,7,L,6,S,10,0.779969,0.472644,0.368648
12,14,9,2,2,8,1,I,7,L,6,S,10,0.755715,0.488296,0.369012
12,15,8,9,8,2,0,I,1,S,6,S,10,0.758597,0.390378,0.29614
12,16,8,1,8,2,1,C,7,L,6,S,7,0.870556,0.153473,0.133607
13,1,9,8,2,8,1,I,1,S,6,S,19,0.763208,0.645611,0.492735
13,2,2,9,8,2,1,I,7,L,6,S,10,0.490915,0.75805,0.372138
13,3,1,8,2,8,1,C,7,L,6,S,7,0.152106,0.874875,0.133074
13,4,2,1,2,8,1,I,1,S,6,S,17,0.763411,0.630161,0.481072
13,5,1,2,8,2,1,I,1,S,6,S,16,0.623346,0.755988,0.471242
13,6,2,1,8,2,1,C,1,S,6,S,8,0.798768,0.249944,0.199648
13,7,8,1,2,8,1,I,7,L,6,S,10,0.780979,0.475447,0.371314
13,8,8,9,2,8,1,C,1,S,6,S,9,0.314196,0.784095,0.246359
13,9,9,2,2,8,1,I,7,L,6,S,10,0.766338,0.485085,0.371739
13,10,9,2,8,2,1,C,7,L,6,S,7,0.855011,0.163946,0.140175
13,11,8,1,8,2,1,C,7,L,6,S,7,0.868713,0.155703,0.135261
13,12,2,9,2,8,1,C,7,L,6,S,7,0.170628,0.847697,0.144641
13,13,8,9,8,2,0,I,1,S,6,S,10,0.764215,0.383585,0.293141
13,14,1,2,2,8,1,C,1,S,6,S,8,0.235287,0.814799,0.191712
13,15,9,8,8,2,1,C,1,S,6,S,8,0.765017,0.279317,0.213682
13,16,1,8,8,2,1,I,7,L,6,S,10,0.470042,0.786722,0.369792
14,1,9,8,8,2,1,C,1,S,6,S,9,0.778038,0.316436,0.246199
14,2,9,8,2,8,0,I,1,S,6,S,10,0.384948,0.7609,0.292907
14,3,1,2,2,8,1,C,1,S,6,S,8,0.228593,0.825182,0.188631
14,4,8,9,2,8,1,C,1,S,6,S,9,0.298901,0.798065,0.238543
14,5,1,2,8,2,1,I,1,S,6,S,15,0.615791,0.75104,0.462484
14,6,8,1,8,2,1,C,7,L,6,S,7,0.860635,0.161575,0.139057
14,7,2,1,8,2,1,C,1,S,6,S,8,0.813837,0.241714,0.196715
14,8,8,1,2,8,1,I,7,L,6,S,10,0.777645,0.476245,0.37035
14,9,2,9,8,2,1,I,7,L,6,S,10,0.492408,0.753361,0.370961
14,10,9,2,8,2,1,C,7,L,6,S,7,0.822244,0.185683,0.152677
14,11,9,2,2,8,1,I,7,L,6,S,11,0.77649,0.513604,0.398809
14,12,2,1,2,8,1,I,1,S,6,S,16,0.76736,0.618913,0.474929
14,13,2,9,2,8,1,C,7,L,6,S,7,0.176258,0.838185,0.147737
14,14,1,8,2,8,1,C,7,L,6,S,7,0.157139,0.864174,0.135795
14,15,1,8,8,2,1,I,7,L,6,S,10,0.471192,0.780724,0.367871
14,16,8,9,8,2,0,I,1,S,6,S,11,0.769959,0.421487,0.324528
15,1,2,1,2,8,1,I,1,S,6,S,17,0.752575,0.6395,0.481272
15,2,8,9,2,8,1,C,1,S,6,S,9,0.285001,0.819839,0.233655
15,3,1,8,2,8,1,C,7,L,6,S,7,0.153502,0.871861,0.133832
15,4,9,8,8,2,1,C,1,S,6,S,9,0.83508,0.26854,0.224252
15,5,9,2,2,8,1,I,7,L,6,S,11,0.77704,0.516719,0.401511
15,6,1,2,8,2,1,I,1,S,6,S,15,0.621227,0.751019,0.466554
15,7,8,9,8,2,0,I,1,S,6,S,11,0.769044,0.433521,0.333396
15,8,1,8,8,2,1,I,7,L,6,S,10,0.48733,0.769189,0.374849
15,9,9,8,2,8,0,I,1,S,6,S,12,0.482715,0.760542,0.367125
15,10,1,2,2,8,1,C,1,S,6,S,8,0.220031,0.840479,0.184931
15,11,2,9,8,2,1,I,7,L,6,S,11,0.516363,0.780927,0.403241
15,12,8,1,2,8,1,I,7,L,6,S,10,0.765257,0.489065,0.37426
15,13,2,9,2,8,1,C,7,L,6,S,7,0.171374,0.844982,0.144808
15,14,9,2,8,2,1,C,7,L,6,S,7,0.8422,0.170612,0.14369
15,15,2,1,8,2,1,C,1,S,6,S,8,0.804409,0.244845,0.196955
15,16,8,1,8,2,1,C,7,L,6,S,7,0.868342,0.15492,0.134523
16,1,8,9,8,2,0,I,1,S,6,S,11,0.775608,0.410935,0.318724
16,2,9,2,2,8,1,I,7,L,6,S,11,0.781656,0.510947,0.399384
16,3,9,2,8,2,1,C,7,L,6,S,7,0.83234,0.177937,0.148104
16,4,1,2,8,2,1,I,1,S,6,S,16,0.624519,0.754741,0.47135
16,5,2,1,2,8,1,I,1,S,6,S,16,0.752684,0.626652,0.471671
16,6,8,1,2,8,1,I,7,L,6,S,10,0.767815,0.483281,0.37107
16,7,2,9,8,2,1,I,7,L,6,S,11,0.511308,0.775092,0.39631
16,8,1,8,2,8,1,C,7,L,6,S,7,0.153516,0.867824,0.133225
16,9,8,9,2,8,1,C,1,S,6,S,9,0.297006,0.796568,0.236586
16,10,2,9,2,8,1,C,7,L,6,S,7,0.177801,0.828013,0.147222
16,11,2,1,8,2,1,C,1,S,6,S,8,0.80942,0.238894,0.193365
16,12,9,8,8,2,1,C,1,S,6,S,9,0.773352,0.318623,0.246408
16,13,1,8,8,2,1,I,7,L,6,S,10,0.473157,0.778194,0.368208
16,14,1,2,2,8,1,C,1,S,6,S,8,0.236754,0.813114,0.192508
16,15,9,8,2,8,0,I,1,S,6,S,10,0.371501,0.771755,0.286708
16,16,8,1,8,2,1,C,7,L,6,S,7,0.857026,0.161662,0.138549
17,1,8,1,2,8,1,I,7,L,6,S,10,0.765344,0.493957,0.378047
17,2,1,2,8,2,1,I,1,S,6,S,16,0.616553,0.766792,0.472768
17,3,1,8,2,8,1,C,7,L,6,S,7,0.148534,0.879667,0.130661
17,4,1,2,2,8,1,C,1,S,6,S,8,0.223317,0.836463,0.186796
17,5,2,1,2,8,1,I,1,S,6,S,18,0.766971,0.638968,0.49007
17,6,9,8,8,2,1,C,1,S,6,S,9,0.781191,0.316059,0.246902
17,7,2,1,8,2,1,C,1,S,6,S,8,0.790097,0.256685,0.202806
17,8,9,2,8,2,1,C,7,L,6,S,7,0.828361,0.181814,0.150608
17,9,8,9,2,8,1,C,1,S,6,S,9,0.280666,0.822469,0.230839
17,10,1,8,8,2,1,I,7,L,6,S,10,0.476151,0.776733,0.369842
17,11,2,9,2,8,1,C,7,L,6,S,7,0.159953,0.862185,0.137909
17,12,8,1,8,2,1,C,7,L,6,S,7,0.863891,0.158082,0.136566
17,13,8,9,8,2,0,I,1,S,6,S,11,0.76276,0.430396,0.328289
17,14,9,8,2,8,0,I,1,S,6,S,10,0.371443,0.782692,0.290726
17,15,9,2,2,8,1,I,7,L,6,S,11,0.767691,0.529811,0.406731
17,16,2,9,8,2,1,I,7,L,6,S,10,0.489251,0.758093,0.370898
18,1,1,8,8,2,1,I,7,L,6,S,10,0.471699,0.784904,0.370239
18,2,1,2,8,2,1,I,1,S,6,S,17,0.620613,0.771916,0.479061
18,3,9,8,2,8,1,I,1,S,6,S,21,0.756582,0.655828,0.496188
18,4,8,9,8,2,1,I,1,S,6,S,19,0.653553,0.75193,0.491426
18,5,1,2,2,8,1,C,1,S,6,S,8,0.242252,0.805783,0.195202
18,6,8,1,8,2,1,C,7,L,6,S,7,0.86583,0.158046,0.136841
18,7,2,9,8,2,1,I,7,L,6,S,10,0.489092,0.761483,0.372435
18,8,9,2,8,2,1,C,7,L,6,S,7,0.857782,0.162274,0.139196
18,9,8,1,2,8,1,I,7,L,6,S,10,0.778846,0.475222,0.370125
18,10,9,2,2,8,1,I,7,L,6,S,10,0.770068,0.480439,0.369971
18,11,9,8,8,2,1,C,1,S,6,S,9,0.832023,0.271448,0.225851
18,12,2,9,2,8,1,C,7,L,6,S,7,0.169166,0.84889,0.143603
18,13,2,1,2,8,1,I,1,S,6,S,17,0.761553,0.630872,0.480442
18,14,2,1,8,2,1,C,1,S,6,S,8,0.798097,0.250823,0.200181
18,15,1,8,2,8,1,C,7,L,6,S,7,0.153538,0.871292,0.133776
18,16,8,9,2,8,1,C,1,S,6,S,8,0.284786,0.756649,0.215483
19,1,1,8,2,8,1,C,7,L,6,S,7,0.15695,0.869001,0.13639
19,2,1,8,8,2,1,I,7,L,6,S,10,0.471499,0.779695,0.367626
19,3,1,2,2,8,1,C,1,S,6,S,8,0.232106,0.822952,0.191012
19,4,8,9,8,2,0,I,1,S,6,S,11,0.78342,0.407547,0.31928
19,5,8,1,8,2,1,C,7,L,6,S,7,0.854261,0.164121,0.140202
19,6,9,8,8,2,1,C,1,S,6,S,9,0.817034,0.284621,0.232545
19,7,2,1,8,2,1,C,1,S,6,S,8,0.797066,0.247135,0.196983
19,8,2,9,8,2,1,I,7,L,6,S,11,0.504726,0.78421,0.395811
19,9,2,9,2,8,1,C,7,L,6,S,7,0.177441,0.835799,0.148305
19,10,8,9,2,8,1,C,1,S,6,S,9,0.305743,0.797726,0.243899
19,11,8,1,2,8,1,I,7,L,6,S,10,0.768671,0.486877,0.374249
19,12,9,2,2,8,1,I,7,L,6,S,11,0.78149,0.51438,0.401983
19,13,2,1,2,8,1,I,1,S,6,S,17,0.764229,0.629189,0.480844
19,14,9,2,8,2,1,C,7,L,6,S,7,0.828958,0.179886,0.149118
19,15,9,8,2,8,0,I,1,S,6,S,11,0.457499,0.750448,0.343329
19,16,1,2,8,2,1,I,1,S,6,S,16,0.614041,0.765938,0.470317
20,1,1,2,8,2,1,I,1,S,6,S,17,0.622177,0.763622,0.475107
20,2,9,8,8,2,1,C,1,S,6,S,9,0.768122,0.32411,0.248956
20,3,1,2,2,8,1,C,1,S,6,S,8,0.248699,0.79621,0.198017
20,4,1,8,2,8,1,C,7,L,6,S,7,0.153697,0.870929,0.133859
20,5,1,8,8,2,1,I,7,L,6,S,10,0.461282,0.789836,0.364337
20,6,2,9,8,2,1,I,7,L,6,S,10,0.481565,0.759799,0.365893
20,7,9,2,8,2,1,C,7,L,6,S,7,0.83814,0.17403,0.145861
20,8,2,1,2,8,1,I,1,S,6,S,17,0.751541,0.635836,0.477857
20,9,8,1,8,2,1,C,7,L,6,S,7,0.854477,0.162788,0.139099
20,10,8,9,2,8,1,C,1,S,6,S,9,0.278841,0.822734,0.229412
20,11,2,1,8,2,1,C,1,S,6,S,8,0.782538,0.256082,0.200394
20,12,2,9,2,8,1,C,7,L,6,S,7,0.171148,0.842862,0.144254
20,13,9,8,2,8,0,I,1,S,6,S,10,0.377963,0.769132,0.290703
20,14,8,1,2,8,1,I,7,L,6,S,10,0.775965,0.476924,0.370076
20,15,9,2,2,8,1,I,7,L,6,S,10,0.758677,0.489603,0.37145
20,16,8,9,8,2,0,I,1,S,6,S,13,0.751276,0.520718,0.391203
21,1,8,9,2,8,1,C,1,S,6,S,9,0.296547,0.799725,0.237156
21,2,8,1,2,8,1,I,7,L,6,S,10,0.77098,0.479003,0.369302
21,3,1,2,2,8,1,C,1,S,6,S,8,0.237656,0.81281,0.193169
21,4,1,2,8,2,1,I,1,S,6,S,16,0.624287,0.755676,0.471759
21,5,2,1,8,2,1,C,1,S,6,S,8,0.830629,0.222391,0.184724
21,6,9,8,2,8,0,I,1,S,6,S,10,0.37881,0.764341,0.28954
21,7,9,2,8,2,1,C,7,L,6,S,7,0.832291,0.177111,0.147408
21,8,2,1,2,8,1,I,1,S,6,S,15,0.752091,0.614385,0.462073
21,9,9,8,8,2,1,C,1,S,6,S,9,0.780409,0.311474,0.243077
21,10,2,9,8,2,1,I,7,L,6,S,11,0.513439,0.775223,0.39803
21,11,2,9,2,8,1,C,7,L,6,S,7,0.179343,0.82849,0.148584
21,12,1,8,2,8,1,C,7,L,6,S,7,0.155706,0.86356,0.134462
21,13,8,9,8,2,0,I,1,S,6,S,11,0.774588,0.415841,0.322106
21,14,1,8,8,2,1,I,7,L,6,S,10,0.47747,0.772245,0.368724
21,15,9,2,2,8,1,I,7,L,6,S,11,0.780105,0.51137,0.398923
21,16,8,1,8,2,1,C,7,L,6,S,7,0.861906,0.15613,0.134569
22,1,2,9,8,2,1,I,7,L,6,S,10,0.486326,0.75949,0.36936
22,2,1,8,2,8,1,C,7,L,6,S,7,0.158417,0.864294,0.136919
22,3,8,1,2,8,1,I,7,L,6,S,10,0.781963,0.473088,0.369937
22,4,8,1,8,2,1,C,7,L,6,S,7,0.865557,0.154003,0.133299
22,5,9,8,2,8,0,I,1,S,6,S,11,0.414544,0.780528,0.323563
22,6,9,8,8,2,1,C,1,S,6,S,9,0.792063,0.303797,0.240626
22,7,1,8,8,2,1,I,7,L,6,S,10,0.472057,0.777288,0.366924
22,8,2,1,2,8,1,I,1,S,6,S,17,0.760526,0.630248,0.47932
22,9,1,2,2,8,1,C,1,S,6,S,8,0.233259,0.816997,0.190572
22,10,9,2,8,2,1,C,7,L,6,S,7,0.825681,0.179839,0.14849
22,11,8,9,2,8,1,C,1,S,6,S,9,0.321909,0.776958,0.25011
22,12,9,2,2,8,1,I,7,L,6,S,11,0.779397,0.512127,0.39915
22,13,2,1,8,2,1,C,1,S,6,S,8,0.793445,0.248705,0.197334
22,14,1,2,8,2,1,I,1,S,6,S,16,0.614426,0.761943,0.468158
22,15,2,9,2,8,1,C,7,L,6,S,7,0.171482,0.847193,0.145279
22,16,8,9,8,2,0,I,1,S,6,S,10,0.768668,0.375883,0.288929
23,1,9,2,2,8,1,I,7,L,6,S,11,0.782238,0.509538,0.39858
23,2,2,1,2,8,1,I,1,S,6,S,17,0.762155,0.629538,0.479806
23,3,2,9,2,8,1,C,7,L,6,S,7,0.16839,0.845485,0.142371
23,4,1,2,2,8,1,C,1,S,6,S,8,0.242268,0.807702,0.195681
23,5,8,9,8,2,1,I,1,S,6,S,20,0.658327,0.752706,0.495527
23,6,8,9,2,8,1,C,1,S,6,S,9,0.260426,0.844713,0.219985
23,7,9,8,8,2,1,C,1,S,6,S,9,0.791319,0.306193,0.242296
23,8,2,1,8,2,1,C,1,S,6,S,8,0.803609,0.247679,0.199037
23,9,1,8,2,8,1,C,7,L,6,S,7,0.158908,0.86132,0.136871
23,10,8,1,8,2,1,C,7,L,6,S,7,0.869539,0.157506,0.136957
23,11,1,8,8,2,1,I,7,L,6,S,10,0.484756,0.770299,0.373407
23,12,9,2,8,2,1,C,7,L,6,S,7,0.837624,0.176409,0.147764
23,13,2,9,8,2,1,I,7,L,6,S,10,0.495975,0.753186,0.373562
23,14,1,2,8,2,1,I,1,S,6,S,17,0.625647,0.771043,0.482401
23,15,8,1,2,8,1,I,7,L,6,S,10,0.776614,0.477923,0.371162
23,16,9,8,2,8,0,I,1,S,6,S,10,0.387651,0.757039,0.293467
24,1,9,2,2,8,1,I,7,L,6,S,11,0.786032,0.512805,0.403081
24,2,2,9,8,2,1,I,7,L,6,S,11,0.508547,0.787917,0.400692
24,3,2,1,2,8,1,I,1,S,6,S,17,0.771559,0.627534,0.48418
24,4,8,1,2,8,1,I,7,L,6,S,10,0.768461,0.489781,0.376378
24,5,2,1,8,2,1,C,1,S,6,S,8,0.809043,0.243833,0.197272
24,6,9,8,8,2,1,C,1,S,6,S,9,0.774785,0.325065,0.251856
24,7,9,2,8,2,1,C,7,L,6,S,7,0.841434,0.173122,0.145671
24,8,9,8,2,8,0,I,1,S,6,S,10,0.365472,0.787929,0.287966
24,9,8,1,8,2,1,C,7,L,6,S,7,0.862114,0.161444,0.139183
24,10,2,9,2,8,1,C,7,L,6,S,7,0.173644,0.845242,0.146771
24,11,1,2,2,8,1,C,1,S,6,S,8,0.244585,0.804623,0.196799
24,12,1,2,8,2,1,I,1,S,6,S,17,0.631745,0.757796,0.478733
24,13,8,9,8,2,0,I,1,S,6,S,11,0.753339,0.453007,0.341268
24,14,8,9,2,8,1,C,1,S,6,S,9,0.282008,0.828524,0.233651
24,15,1,8,8,2,1,I,7,L,6,S,10,0.474811,0.781373,0.371005
24,16,1,8,2,8,1,C,7,L,6,S,7,0.151478,0.877304,0.132893
25,1,9,8,8,2,1,C,1,S,6,S,9,0.832148,0.267021,0.222201
25,2,1,8,2,8,1,C,7,L,6,S,7,0.154035,0.86993,0.133999
25,3,2,9,8,2,1,I,7,L,6,S,11,0.504659,0.78791,0.397626
25,4,1,8,8,2,1,I,7,L,6,S,10,0.47571,0.777844,0.370028
25,5,8,1,2,8,1,I,7,L,6,S,10,0.774876,0.47739,0.369918
25,6,9,8,2,8,1,I,1,S,6,S,21,0.755606,0.654133,0.494267
25,7,1,2,8,2,1,I,1,S,6,S,15,0.608521,0.763406,0.464549
25,8,8,1,8,2,1,C,7,L,6,S,7,0.866597,0.153189,0.132753
25,9,8,9,8,2,0,I,1,S,6,S,10,0.781107,0.363581,0.283995
25,10,8,9,2,8,1,C,1,S,6,S,9,0.3236,0.772707,0.250048
25,11,1,2,2,8,1,C,1,S,6,S,8,0.220058,0.840731,0.18501
25,12,2,9,2,8,1,C,7,L,6,S,7,0.171135,0.841801,0.144061
25,13,9,2,8,2,1,C,7,L,6,S,7,0.835009,0.174097,0.145372
25,14,2,1,8,2,1,C,1,S,6,S,8,0.795208,0.245425,0.195164
25,15,9,2,2,8,1,I,7,L,6,S,11,0.78145,0.510277,0.398756
25,16,2,1,2,8,1,I,1,S,6,S,17,0.752456,0.633247,0.47649
26,1,8,1,2,8,1,I,7,L,6,S,10,0.767897,0.484141,0.371771
26,2,8,9,2,8,1,C,1,S,6,S,9,0.302989,0.793006,0.240272
26,3,1,8,8,2,1,I,7,L,6,S,10,0.46739,0.788511,0.368542
26,4,1,8,2,8,1,C,7,L,6,S,7,0.146878,0.880419,0.129314
26,5,1,2,2,8,1,C,1,S,6,S,8,0.215663,0.843306,0.18187
26,6,2,1,8,2,1,C,1,S,6,S,8,0.799975,0.24592,0.19673
26,7,8,9,8,2,0,I,1,S,6,S,10,0.753615,0.391153,0.294779
26,8,1,2,8,2,1,I,1,S,6,S,15,0.60766,0.761853,0.462947
26,9,2,9,8,2,1,I,7,L,6,S,11,0.505677,0.787537,0.39824
26,10,2,1,2,8,1,I,1,S,6,S,17,0.76044,0.630848,0.479722
26,11,9,2,2,8,1,I,7,L,6,S,11,0.78045,0.513342,0.400638
26,12,9,8,8,2,1,C,1,S,6,S,9,0.780473,0.31294,0.244241
26,13,9,8,2,8,0,I,1,S,6,S,10,0.378782,0.767352,0.290659
26,14,8,1,8,2,1,C,7,L,6,S,7,0.859546,0.159125,0.136775
26,15,2,9,2,8,1,C,7,L,6,S,7,0.172418,0.841705,0.145125
26,16,9,2,8,2,1,C,7,L,6,S,7,0.833678,0.176864,0.147448
27,1,2,1,8,2,1,C,1,S,6,S,8,0.80924,0.241727,0.195615
27,2,2,9,8,2,1,I,7,L,6,S,11,0.518611,0.778197,0.403581
27,3,9,8,8,2,1,C,1,S,6,S,9,0.812618,0.286053,0.232452
27,4,1,2,2,8,1,C,1,S,6,S,8,0.230429,0.827166,0.190603
27,5,9,2,8,2,1,C,7,L,6,S,7,0.848075,0.168693,0.143064
27,6,9,2,2,8,1,I,7,L,6,S,11,0.784872,0.513154,0.40276
27,7,8,1,2,8,1,I,7,L,6,S,10,0.768418,0.486858,0.37411
27,8,8,1,8,2,1,C,7,L,6,S,7,0.870449,0.153323,0.13346
27,9,8,9,8,2,0,I,1,S,6,S,11,0.778311,0.421344,0.327937
27,10,1,8,8,2,1,I,7,L,6,S,10,0.488624,0.764486,0.373546
27,11,2,1,2,8,1,I,1,S,6,S,17,0.759041,0.635424,0.482313
27,12,8,9,2,8,1,C,1,S,6,S,9,0.29208,0.811723,0.237088
27,13,1,2,8,2,1,I,1,S,6,S,16,0.624466,0.761262,0.475383
27,14,2,9,2,8,1,C,7,L,6,S,7,0.174502,0.841813,0.146898
27,15,1,8,2,8,1,C,7,L,6,S,7,0.154911,0.867431,0.134374
27,16,9,8,2,8,0,I,1,S,6,S,11,0.418797,0.775453,0.324757
28,1,1,2,2,8,1,C,1,S,6,S,8,0.222535,0.834703,0.18575
28,2,1,2,8,2,1,I,1,S,6,S,15,0.614166,0.755857,0.464221
28,3,2,9,2,8,1,C,7,L,6,S,7,0.17302,0.839342,0.145223
28,4,2,1,2,8,1,I,1,S,6,S,15,0.761001,0.609403,0.463756
28,5,8,9,2,8,1,C,1,S,6,S,9,0.274467,0.828021,0.227265
28,6,9,2,8,2,1,C,7,L,6,S,7,0.826853,0.18324,0.151512
28,7,2,9,8,2,1,I,7,L,6,S,11,0.50596,0.787369,0.398377
28,8,1,8,2,8,1,C,7,L,6,S,7,0.156121,0.86664,0.1353
28,9,2,1,8,2,1,C,1,S,6,S,8,0.837407,0.220578,0.184713
28,10,8,9,8,2,0,I,1,S,6,S,12,0.754651,0.487359,0.367786
28,11,9,8,8,2,1,C,1,S,6,S,9,0.820272,0.283894,0.23287
28,12,8,1,8,2,1,C,7,L,6,S,7,0.864819,0.157319,0.136052
28,13,9,2,2,8,1,I,7,L,6,S,11,0.774595,0.51723,0.400644
28,14,1,8,8,2,1,I,7,L,6,S,10,0.477018,0.776583,0.370444
28,15,9,8,2,8,0,I,1,S,6,S,12,0.480013,0.763878,0.366671
28,16,8,1,2,8,1,I,7,L,6,S,10,0.774516,0.479001,0.370994
29,1,8,9,8,2,0,I,1,S,6,S,10,0.772465,0.373316,0.288373
29,2,1,8,2,8,1,C,7,L,6,S,7,0.14931,0.877457,0.131013
29,3,1,8,8,2,1,I,7,L,6,S,10,0.465585,0.790204,0.367908
29,4,2,9,2,8,1,C,7,L,6,S,7,0.168459,0.850108,0.143209
29,5,1,2,2,8,1,C,1,S,6,S,8,0.253613,0.791137,0.200642
29,6,9,2,2,8,1,I,7,L,6,S,10,0.764582,0.484254,0.370252
29,7,9,8,2,8,0,I,1,S,6,S,10,0.384263,0.759846,0.291981
29,8,1,2,8,2,1,I,1,S,6,S,17,0.63441,0.753007,0.477715
29,9,8,9,2,8,1,C,1,S,6,S,9,0.321736,0.775531,0.249516
29,10,9,8,8,2,1,C,1,S,6,S,9,0.781069,0.310659,0.242646
29,11,8,1,8,2,1,C,7,L,6,S,7,0.878703,0.146589,0.128808
29,12,9,2,8,2,1,C,7,L,6,S,7,0.852204,0.163498,0.139333
29,13,2,1,8,2,1,C,1,S,6,S,8,0.822835,0.228647,0.188139
29,14,8,1,2,8,1,I,7,L,6,S,10,0.792546,0.464963,0.368505
29,15,2,9,8,2,1,I,7,L,6,S,10,0.486884,0.761615,0.370818
29,16,2,1,2,8,1,I,1,S,6,S,16,0.770329,0.612636,0.471931
30,1,2,9,2,8,1,C,7,L,6,S,7,0.180891,0.826797,0.14956
30,2,9,8,2,8,0,I,1,S,6,S,10,0.399402,0.752252,0.300451
30,3,2,1,8,2,1,C,1,S,6,S,8,0.842771,0.215859,0.181919
30,4,2,1,2,8,1,I,1,S,6,S,15,0.771614,0.600974,0.463719
30,5,9,2,8,2,1,C,7,L,6,S,7,0.829767,0.177463,0.147253
30,6,8,1,2,8,1,I,7,L,6,S,10,0.781366,0.472002,0.368806
30,7,1,8,8,2,1,I,7,L,6,S,10,0.467529,0.787144,0.368013
30,8,8,1,8,2,1,C,7,L,6,S,7,0.86656,0.154456,0.133845
30,9,2,9,8,2,1,I,7,L,6,S,11,0.510025,0.777895,0.396746
30,10,1,8,2,8,1,C,7,L,6,S,7,0.152242,0.87299,0.132906
30,11,9,8,8,2,1,C,1,S,6,S,9,0.791722,0.307078,0.24312
30,12,1,2,8,2,1,I,1,S,6,S,15,0.599368,0.767242,0.459861
30,13,1,2,2,8,1,C,1,S,6,S,8,0.21397,0.841522,0.180061
30,14,8,9,8,2,0,I,1,S,6,S,11,0.752087,0.441242,0.331852
30,15,8,9,2,8,1,C,1,S,6,S,9,0.287082,0.809464,0.232383
30,16,9,2,2,8,1,I,7,L,6,S,11,0.781993,0.508059,0.397298
