ANN,trial,N1,N2,P1,P2,Succ.,,Ndist,Ndist,Pdist,Pdist,rt,a1,a2,x_acc
1,1,1,5,0,0,1,,4,S,0,S,16,0.032619,0.762608,0.024875
1,2,9,4,0,0,1,,5,S,0,S,14,0.765314,0.026157,0.020018
1,3,4,2,0,0,1,,2,S,0,S,18,0.750224,0.046715,0.035047
1,4,6,8,0,0,1,,2,S,0,S,15,0.019887,0.774295,0.015398
1,5,1,9,0,0,1,,8,L,0,S,14,0.026053,0.763024,0.019879
1,6,7,3,0,0,1,,4,S,0,S,18,0.773192,0.027099,0.020953
1,7,4,5,0,0,1,,1,S,0,S,19,0.026034,0.774862,0.020173
1,8,2,9,0,0,1,,7,L,0,S,16,0.02006,0.778866,0.015624
1,9,5,7,0,0,1,,2,S,0,S,20,0.029147,0.77459,0.022577
1,10,5,8,0,0,1,,3,S,0,S,16,0.004009,0.798624,0.003202
1,11,1,3,0,0,1,,2,S,0,S,17,0.020747,0.780474,0.016193
1,12,6,7,0,0,1,,1,S,0,S,18,0.033575,0.765728,0.025709
1,13,7,1,0,0,1,,6,S,0,S,14,0.778589,0.013499,0.01051
1,14,8,6,0,0,0,,2,S,0,S,16,0.027711,0.768284,0.02129
1,15,7,5,0,0,1,,2,S,0,S,19,0.763017,0.03647,0.027827
1,16,2,5,0,0,1,,3,S,0,S,22,0.020612,0.786225,0.016206
1,17,5,4,0,0,1,,1,S,0,S,20,0.784298,0.024453,0.019178
1,18,8,9,0,0,1,,1,S,0,S,23,0.034627,0.76904,0.026629
1,19,6,4,0,0,1,,2,S,0,S,24,0.758746,0.046575,0.035339
1,20,7,4,0,0,1,,3,S,0,S,19,0.752429,0.047976,0.036099
1,21,4,3,0,0,0,,1,S,0,S,21,0.018336,0.786411,0.014419
1,22,1,2,0,0,1,,1,S,0,S,26,0.02602,0.784802,0.020421
1,23,4,6,0,0,1,,2,S,0,S,14,0.006767,0.786022,0.005319
1,24,3,1,0,0,1,,2,S,0,S,17,0.770546,0.029019,0.022361
1,25,8,2,0,0,1,,6,S,0,S,15,0.799023,0.002015,0.00161
1,26,3,5,0,0,1,,2,S,0,S,16,0.038365,0.754218,0.028936
1,27,8,5,0,0,1,,3,S,0,S,17,0.76863,0.028644,0.022016
1,28,1,7,0,0,1,,6,S,0,S,15,0.005324,0.793814,0.004226
1,29,7,8,0,0,1,,1,S,0,S,16,0.008781,0.791542,0.00695
1,30,1,8,0,0,1,,7,L,0,S,13,0.024879,0.75674,0.018827
1,31,4,8,0,0,1,,4,S,0,S,14,0.017861,0.770263,0.013758
1,32,9,1,0,0,1,,8,L,0,S,12,0.752198,0.022508,0.016931
1,33,9,8,0,0,1,,1,S,0,S,20,0.763007,0.038325,0.029242
1,34,6,1,0,0,1,,5,S,0,S,14,0.758332,0.029519,0.022385
1,35,3,6,0,0,1,,3,S,0,S,13,0.018202,0.765928,0.013941
1,36,2,4,0,0,1,,2,S,0,S,21,0.021972,0.787776,0.017309
1,37,3,8,0,0,1,,5,S,0,S,13,0.02709,0.752896,0.020396
1,38,8,7,0,0,1,,1,S,0,S,24,0.75543,0.044947,0.033954
1,39,5,2,0,0,1,,3,S,0,S,15,0.76011,0.033622,0.025556
1,40,4,9,0,0,1,,5,S,0,S,15,0.03245,0.757388,0.024577
1,41,7,9,0,0,1,,2,S,0,S,18,0.045503,0.750962,0.034171
1,42,4,1,0,0,1,,3,S,0,S,16,0.79805,0.003952,0.003154
1,43,5,9,0,0,1,,4,S,0,S,18,0.034572,0.765946,0.02648
1,44,3,4,0,0,1,,1,S,0,S,16,0.02884,0.770093,0.02221
1,45,6,5,0,0,1,,1,S,0,S,23,0.773354,0.031343,0.024239
1,46,9,2,0,0,1,,7,L,0,S,13,0.77471,0.013242,0.010259
1,47,2,8,0,0,1,,6,S,0,S,14,0.03235,0.753075,0.024362
1,48,9,6,0,0,1,,3,S,0,S,24,0.793476,0.017047,0.013526
1,49,8,1,0,0,1,,7,L,0,S,14,0.802017,0,0
1,50,2,1,0,0,1,,1,S,0,S,15,0.780209,0.016489,0.012865
1,51,1,6,0,0,1,,5,S,0,S,13,0.016143,0.769537,0.012423
1,52,3,2,0,0,0,,1,S,0,S,30,0.032134,0.776562,0.024954
1,53,3,7,0,0,1,,4,S,0,S,15,0.008777,0.788445,0.00692
1,54,6,3,0,0,1,,3,S,0,S,20,0.769623,0.032632,0.025114
1,55,8,4,0,0,1,,4,S,0,S,17,0.766846,0.033019,0.02532
1,56,4,7,0,0,1,,3,S,0,S,16,0.018936,0.777564,0.014724
1,57,7,2,0,0,1,,5,S,0,S,15,0.762736,0.030762,0.023464
1,58,9,7,0,0,1,,2,S,0,S,16,0.796537,0.00588,0.004683
1,59,5,1,0,0,1,,4,S,0,S,14,0.777493,0.015099,0.01174
1,60,2,3,0,0,1,,1,S,0,S,31,0.02756,0.779273,0.021477
1,61,3,9,0,0,1,,6,S,0,S,14,0.029092,0.758112,0.022055
1,62,9,5,0,0,1,,4,S,0,S,14,0.763034,0.025259,0.019274
1,63,2,6,0,0,1,,4,S,0,S,14,0.019738,0.770845,0.015215
1,64,7,6,0,0,0,,1,S,0,S,15,0.026376,0.766743,0.020224
1,65,6,9,0,0,1,,3,S,0,S,17,0.026912,0.772997,0.020803
1,66,2,7,0,0,1,,5,S,0,S,17,0.012345,0.790449,0.009758
1,67,1,4,0,0,1,,3,S,0,S,16,0.023427,0.777963,0.018226
1,68,8,3,0,0,1,,5,S,0,S,16,0.752055,0.039312,0.029565
1,69,5,6,0,0,1,,1,S,0,S,15,0.022213,0.773129,0.017173
1,70,6,2,0,0,1,,4,S,0,S,16,0.779163,0.021372,0.016652
1,71,9,3,0,0,1,,6,S,0,S,14,0.776646,0.014745,0.011451
1,72,5,3,0,0,1,,2,S,0,S,18,0.76479,0.034631,0.026485
2,1,5,4,0,0,1,,1,S,0,S,20,0.776731,0.027039,0.021002
2,2,8,2,0,0,1,,6,S,0,S,14,0.758354,0.02851,0.021621
2,3,7,8,0,0,1,,1,S,0,S,22,0.031999,0.770504,0.024655
2,4,7,4,0,0,1,,3,S,0,S,17,0.757378,0.03577,0.027091
2,5,7,5,0,0,1,,2,S,0,S,20,0.759795,0.03793,0.028819
2,6,1,6,0,0,1,,5,S,0,S,15,0.013595,0.777922,0.010576
2,7,7,1,0,0,1,,6,S,0,S,16,0.793315,0.004583,0.003636
2,8,9,5,0,0,1,,4,S,0,S,16,0.788183,0.01034,0.00815
2,9,3,8,0,0,1,,5,S,0,S,16,0.031336,0.764631,0.023961
2,10,7,3,0,0,1,,4,S,0,S,17,0.783046,0.014669,0.011487
2,11,2,8,0,0,1,,6,S,0,S,16,0.010732,0.789535,0.008473
2,12,4,6,0,0,1,,2,S,0,S,20,0.013529,0.793394,0.010734
2,13,6,3,0,0,1,,3,S,0,S,17,0.792694,0.008588,0.006808
2,14,1,8,0,0,1,,7,L,0,S,14,0.02649,0.759305,0.020114
2,15,5,8,0,0,1,,3,S,0,S,18,0.020826,0.783687,0.016321
2,16,2,5,0,0,1,,3,S,0,S,17,0.04091,0.75228,0.030776
2,17,4,1,0,0,1,,3,S,0,S,17,0.777873,0.022254,0.017311
2,18,9,2,0,0,1,,7,L,0,S,14,0.751063,0.032988,0.024776
2,19,9,1,0,0,1,,8,L,0,S,14,0.776996,0.011542,0.008968
2,20,9,7,0,0,1,,2,S,0,S,17,0.756464,0.037126,0.028085
2,21,9,8,0,0,1,,1,S,0,S,17,0.759833,0.036006,0.027359
2,22,8,1,0,0,1,,7,L,0,S,14,0.783318,0.007755,0.006075
2,23,5,9,0,0,1,,4,S,0,S,15,0.019683,0.775952,0.015273
2,24,1,9,0,0,1,,8,L,0,S,13,0.018156,0.763152,0.013856
2,25,6,8,0,0,1,,2,S,0,S,23,0.015482,0.79363,0.012287
2,26,3,9,0,0,1,,6,S,0,S,14,0.027748,0.759748,0.021082
2,27,4,8,0,0,1,,4,S,0,S,17,0.042879,0.754828,0.032366
2,28,1,7,0,0,1,,6,S,0,S,14,0.027991,0.755568,0.021149
2,29,2,7,0,0,1,,5,S,0,S,16,0.012873,0.785,0.010106
2,30,1,5,0,0,1,,4,S,0,S,15,0.026994,0.762127,0.020573
2,31,3,7,0,0,1,,4,S,0,S,16,0.033643,0.759801,0.025562
2,32,6,7,0,0,1,,1,S,0,S,23,0.023478,0.781709,0.018353
2,33,1,4,0,0,1,,3,S,0,S,16,0.035721,0.754348,0.026946
2,34,7,2,0,0,1,,5,S,0,S,17,0.7917,0.009614,0.007612
2,35,9,3,0,0,1,,6,S,0,S,15,0.796515,5.9E-05,4.7E-05
2,36,4,3,0,0,1,,1,S,0,S,19,0.764154,0.03605,0.027547
2,37,4,9,0,0,1,,5,S,0,S,15,0.013469,0.784996,0.010573
2,38,6,2,0,0,1,,4,S,0,S,16,0.75237,0.039837,0.029972
2,39,3,6,0,0,1,,3,S,0,S,18,0.0072,0.7968,0.005737
2,40,2,4,0,0,1,,2,S,0,S,21,0.017349,0.787437,0.013661
2,41,8,5,0,0,1,,3,S,0,S,16,0.797983,0.003776,0.003013
2,42,4,5,0,0,1,,1,S,0,S,22,0.027281,0.779465,0.021265
2,43,4,7,0,0,1,,3,S,0,S,18,0.009375,0.797305,0.007475
2,44,7,9,0,0,1,,2,S,0,S,16,0.026792,0.767373,0.020559
2,45,9,6,0,0,1,,3,S,0,S,16,0.758986,0.031897,0.024209
2,46,5,2,0,0,1,,3,S,0,S,18,0.750545,0.046423,0.034842
2,47,8,4,0,0,1,,4,S,0,S,15,0.793466,0.004391,0.003484
2,48,1,3,0,0,1,,2,S,0,S,17,0.020783,0.775016,0.016107
2,49,4,2,0,0,1,,2,S,0,S,19,0.777968,0.026943,0.020961
2,50,5,3,0,0,1,,2,S,0,S,19,0.785531,0.018095,0.014214
2,51,8,6,0,0,1,,2,S,0,S,16,0.7704,0.024193,0.018638
2,52,3,4,0,0,1,,1,S,0,S,25,0.032806,0.771355,0.025305
2,53,2,9,0,0,1,,7,L,0,S,14,0.016804,0.772733,0.012985
2,54,5,1,0,0,1,,4,S,0,S,17,0.787797,0.013502,0.010637
2,55,1,2,0,0,1,,1,S,0,S,17,0.021365,0.776563,0.016592
2,56,3,2,0,0,1,,1,S,0,S,24,0.762357,0.040707,0.031034
2,57,2,6,0,0,1,,4,S,0,S,17,0.013849,0.785102,0.010873
2,58,9,4,0,0,1,,5,S,0,S,15,0.785691,0.009341,0.007339
2,59,8,9,0,0,1,,1,S,0,S,24,0.030184,0.775555,0.02341
2,60,5,7,0,0,1,,2,S,0,S,18,0.024056,0.777718,0.018709
2,61,3,5,0,0,1,,2,S,0,S,18,0.043613,0.752467,0.032817
2,62,5,6,0,0,1,,1,S,0,S,20,0.041365,0.757273,0.031325
2,63,6,5,0,0,1,,1,S,0,S,20,0.780419,0.023191,0.018099
2,64,6,1,0,0,1,,5,S,0,S,15,0.751226,0.035951,0.027007
2,65,2,1,0,0,1,,1,S,0,S,21,0.789346,0.014791,0.011675
2,66,7,6,0,0,1,,1,S,0,S,24,0.792086,0.012566,0.009953
2,67,6,4,0,0,1,,2,S,0,S,17,0.76835,0.028744,0.022085
2,68,3,1,0,0,1,,2,S,0,S,19,0.784759,0.018073,0.014183
2,69,2,3,0,0,1,,1,S,0,S,24,0.011517,0.794776,0.009153
2,70,6,9,0,0,1,,3,S,0,S,16,0.028593,0.767014,0.021931
2,71,8,7,0,0,1,,1,S,0,S,17,0.771415,0.026618,0.020534
2,72,8,3,0,0,1,,5,S,0,S,14,0.752671,0.03122,0.023499
3,1,9,8,0,0,1,,1,S,0,S,25,0.754053,0.048565,0.036621
3,2,2,5,0,0,1,,3,S,0,S,15,0.02846,0.760548,0.021645
3,3,8,3,0,0,1,,5,S,0,S,15,0.783081,0.014281,0.011183
3,4,3,7,0,0,1,,4,S,0,S,18,0.012642,0.793683,0.010034
3,5,4,7,0,0,1,,3,S,0,S,19,0.023682,0.777599,0.018415
3,6,7,1,0,0,1,,6,S,0,S,16,0.778927,0.020981,0.016343
3,7,4,8,0,0,1,,4,S,0,S,18,0.012779,0.789881,0.010094
3,8,6,1,0,0,1,,5,S,0,S,15,0.799513,0.002767,0.002212
3,9,8,7,0,0,0,,1,S,0,S,27,0.047983,0.755333,0.036243
3,10,5,1,0,0,1,,4,S,0,S,15,0.758858,0.033752,0.025613
3,11,8,4,0,0,1,,4,S,0,S,15,0.762774,0.029549,0.022539
3,12,7,3,0,0,1,,4,S,0,S,16,0.757446,0.037224,0.028195
3,13,4,5,0,0,1,,1,S,0,S,21,0.03163,0.768957,0.024322
3,14,5,7,0,0,1,,2,S,0,S,19,0.034831,0.76743,0.02673
3,15,8,9,0,0,1,,1,S,0,S,21,0.013121,0.793261,0.010408
3,16,6,7,0,0,1,,1,S,0,S,28,0.051278,0.752548,0.038589
3,17,3,4,0,0,0,,1,S,0,S,17,0.770808,0.028517,0.021981
3,18,1,8,0,0,1,,7,L,0,S,13,0.029151,0.751128,0.021896
3,19,5,8,0,0,1,,3,S,0,S,18,0.019145,0.785605,0.01504
3,20,8,5,0,0,1,,3,S,0,S,22,0.775673,0.029931,0.023216
3,21,6,3,0,0,1,,3,S,0,S,15,0.786105,0.012713,0.009994
3,22,5,3,0,0,1,,2,S,0,S,16,0.791539,0.010528,0.008333
3,23,2,8,0,0,1,,6,S,0,S,14,0.032525,0.750857,0.024421
3,24,4,6,0,0,1,,2,S,0,S,26,0.025543,0.782019,0.019975
3,25,2,7,0,0,1,,5,S,0,S,15,0.011084,0.783578,0.008685
3,26,5,6,0,0,1,,1,S,0,S,35,0.040143,0.768499,0.030849
3,27,9,1,0,0,1,,8,L,0,S,14,0.770598,0.020512,0.015807
3,28,5,4,0,0,1,,1,S,0,S,16,0.764745,0.03103,0.02373
3,29,2,6,0,0,1,,4,S,0,S,16,0.006892,0.794969,0.005479
3,30,9,6,0,0,1,,3,S,0,S,17,0.757509,0.04157,0.03149
3,31,5,9,0,0,1,,4,S,0,S,18,0.016149,0.786093,0.012694
3,32,9,4,0,0,1,,5,S,0,S,15,0.793657,0.005337,0.004236
3,33,3,5,0,0,1,,2,S,0,S,19,0.026906,0.776741,0.020899
3,34,2,3,0,0,1,,1,S,0,S,27,0.035039,0.767117,0.026879
3,35,8,1,0,0,1,,7,L,0,S,15,0.796643,0.004239,0.003377
3,36,7,8,0,0,1,,1,S,0,S,17,0.01591,0.787489,0.012529
3,37,2,1,0,0,1,,1,S,0,S,25,0.787719,0.018911,0.014897
3,38,9,2,0,0,1,,7,L,0,S,14,0.793239,0.001817,0.001441
3,39,7,9,0,0,1,,2,S,0,S,17,0.014289,0.786329,0.011236
3,40,5,2,0,0,1,,3,S,0,S,15,0.793232,0.005649,0.004481
3,41,3,1,0,0,1,,2,S,0,S,16,0.777693,0.022035,0.017137
3,42,4,2,0,0,1,,2,S,0,S,15,0.781249,0.012298,0.009608
3,43,7,2,0,0,1,,5,S,0,S,15,0.770148,0.023557,0.018143
3,44,6,2,0,0,1,,4,S,0,S,14,0.774754,0.016974,0.01315
3,45,1,6,0,0,1,,5,S,0,S,14,0.0239,0.767192,0.018336
3,46,1,5,0,0,1,,4,S,0,S,14,0.014897,0.775899,0.011559
3,47,1,7,0,0,1,,6,S,0,S,14,0.00324,0.791584,0.002565
3,48,4,1,0,0,1,,3,S,0,S,16,0.794871,0.00572,0.004546
3,49,6,8,0,0,1,,2,S,0,S,21,0.027941,0.779362,0.021776
3,50,9,3,0,0,1,,6,S,0,S,14,0.75889,0.028962,0.021979
3,51,2,4,0,0,1,,2,S,0,S,21,0.044701,0.752013,0.033616
3,52,1,4,0,0,1,,3,S,0,S,17,0.008058,0.795592,0.006411
3,53,9,7,0,0,1,,2,S,0,S,20,0.752173,0.047723,0.035896
3,54,4,9,0,0,1,,5,S,0,S,18,0.010408,0.789588,0.008218
3,55,4,3,0,0,1,,1,S,0,S,16,0.776572,0.019483,0.01513
3,56,3,6,0,0,1,,3,S,0,S,21,0.019663,0.791206,0.015557
3,57,1,2,0,0,1,,1,S,0,S,21,0.029456,0.77401,0.022799
3,58,6,5,0,0,1,,1,S,0,S,22,0.788121,0.020852,0.016434
3,59,7,6,0,0,0,,1,S,0,S,21,0.025095,0.784361,0.019683
3,60,9,5,0,0,1,,4,S,0,S,19,0.794522,0.012499,0.00993
3,61,3,2,0,0,1,,1,S,0,S,15,0.769258,0.024329,0.018715
3,62,8,6,0,0,1,,2,S,0,S,19,0.758005,0.044502,0.033733
3,63,3,9,0,0,1,,6,S,0,S,17,0.012775,0.788351,0.010071
3,64,8,2,0,0,1,,6,S,0,S,14,0.77214,0.018218,0.014067
3,65,2,9,0,0,1,,7,L,0,S,15,0,0.7989,0
3,66,1,3,0,0,1,,2,S,0,S,17,0.034097,0.763374,0.026029
3,67,6,4,0,0,1,,2,S,0,S,15,0.766038,0.027832,0.02132
3,68,6,9,0,0,1,,3,S,0,S,21,0.016052,0.790757,0.012693
3,69,3,8,0,0,1,,5,S,0,S,17,0.014344,0.789567,0.011326
3,70,1,9,0,0,1,,8,L,0,S,14,0,0.801418,0
3,71,7,5,0,0,0,,2,S,0,S,19,0.030026,0.772712,0.023202
3,72,7,4,0,0,1,,3,S,0,S,17,0.772624,0.026999,0.02086
4,1,2,7,0,0,1,,5,S,0,S,15,0.011492,0.784875,0.00902
4,2,1,9,0,0,1,,8,L,0,S,14,0,0.802231,0
4,3,6,4,0,0,1,,2,S,0,S,16,0.781528,0.01739,0.013591
4,4,2,3,0,0,1,,1,S,0,S,22,0.018392,0.790976,0.014548
4,5,6,8,0,0,0,,2,S,0,S,24,0.782835,0.024825,0.019434
4,6,9,7,0,0,1,,2,S,0,S,16,0.764796,0.029094,0.022251
4,7,9,6,0,0,1,,3,S,0,S,17,0.793724,0.009866,0.007831
4,8,8,5,0,0,1,,3,S,0,S,15,0.772146,0.01992,0.015381
4,9,7,8,0,0,1,,1,S,0,S,25,0.040503,0.76137,0.030838
4,10,5,2,0,0,1,,3,S,0,S,19,0.78126,0.024024,0.018769
4,11,4,6,0,0,1,,2,S,0,S,18,0.016147,0.786175,0.012694
4,12,5,4,0,0,1,,1,S,0,S,18,0.78999,0.015079,0.011912
4,13,8,3,0,0,1,,5,S,0,S,13,0.75176,0.028653,0.02154
4,14,5,6,0,0,1,,1,S,0,S,18,0.023365,0.779191,0.018206
4,15,7,3,0,0,1,,4,S,0,S,16,0.797271,0.003569,0.002846
4,16,3,7,0,0,1,,4,S,0,S,17,0.016674,0.782243,0.013043
4,17,5,1,0,0,1,,4,S,0,S,14,0.794055,0.001082,0.000859
4,18,2,9,0,0,1,,7,L,0,S,14,0.028074,0.761457,0.021377
4,19,5,3,0,0,1,,2,S,0,S,16,0.758474,0.036129,0.027403
4,20,2,8,0,0,1,,6,S,0,S,15,0.013864,0.78453,0.010877
4,21,9,5,0,0,1,,4,S,0,S,15,0.763313,0.026815,0.020468
4,22,6,5,0,0,1,,1,S,0,S,19,0.76834,0.030566,0.023485
4,23,2,1,0,0,1,,1,S,0,S,16,0.793896,0.008236,0.006538
4,24,7,1,0,0,1,,6,S,0,S,13,0.75566,0.023547,0.017794
4,25,6,7,0,0,0,,1,S,0,S,27,0.77548,0.028717,0.022269
4,26,3,1,0,0,1,,2,S,0,S,14,0.761694,0.024867,0.018941
4,27,9,3,0,0,1,,6,S,0,S,14,0.800271,0,0
4,28,8,4,0,0,1,,4,S,0,S,14,0.784118,0.008951,0.007019
4,29,7,9,0,0,1,,2,S,0,S,19,0.044153,0.753139,0.033253
4,30,6,2,0,0,1,,4,S,0,S,16,0.753234,0.040252,0.030319
4,31,4,8,0,0,1,,4,S,0,S,19,0.02617,0.776244,0.020314
4,32,9,4,0,0,1,,5,S,0,S,14,0.778301,0.013488,0.010498
4,33,8,7,0,0,1,,1,S,0,S,16,0.776873,0.019593,0.015221
4,34,6,3,0,0,1,,3,S,0,S,15,0.771418,0.022465,0.01733
4,35,1,2,0,0,1,,1,S,0,S,15,0.036511,0.75614,0.027607
4,36,5,8,0,0,1,,3,S,0,S,19,0.038004,0.763519,0.029017
4,37,7,2,0,0,1,,5,S,0,S,17,0.765273,0.031503,0.024109
4,38,6,9,0,0,1,,3,S,0,S,21,0.045368,0.75594,0.034295
4,39,5,7,0,0,1,,2,S,0,S,19,0.024368,0.777658,0.01895
4,40,4,1,0,0,1,,3,S,0,S,14,0.787544,0.004683,0.003688
4,41,3,2,0,0,1,,1,S,0,S,30,0.791944,0.017633,0.013965
4,42,8,6,0,0,1,,2,S,0,S,16,0.758838,0.035069,0.026611
4,43,2,6,0,0,1,,4,S,0,S,15,0,0.801313,0
4,44,1,6,0,0,1,,5,S,0,S,14,0.002951,0.793157,0.00234
4,45,6,1,0,0,1,,5,S,0,S,13,0.768473,0.015224,0.011699
4,46,9,2,0,0,1,,7,L,0,S,14,0.764775,0.024538,0.018766
4,47,7,6,0,0,0,,1,S,0,S,21,0.015504,0.789667,0.012243
4,48,2,4,0,0,1,,2,S,0,S,18,0.038883,0.760847,0.029584
4,49,4,3,0,0,1,,1,S,0,S,17,0.794685,0.008203,0.006519
4,50,4,9,0,0,1,,5,S,0,S,17,0.03158,0.766034,0.024191
4,51,9,1,0,0,1,,8,L,0,S,12,0.757965,0.016761,0.012704
4,52,8,9,0,0,0,,1,S,0,S,17,0.792734,0.011702,0.009276
4,53,2,5,0,0,1,,3,S,0,S,16,0.009655,0.790157,0.007629
4,54,9,8,0,0,1,,1,S,0,S,16,0.779439,0.019852,0.015473
4,55,3,8,0,0,1,,5,S,0,S,17,0.02231,0.777988,0.017357
4,56,3,4,0,0,0,,1,S,0,S,21,0.757527,0.042524,0.032213
4,57,5,9,0,0,1,,4,S,0,S,17,0.037693,0.76038,0.028661
4,58,1,4,0,0,1,,3,S,0,S,16,0.021181,0.778728,0.016494
4,59,3,6,0,0,1,,3,S,0,S,16,0.031865,0.761881,0.024277
4,60,7,4,0,0,1,,3,S,0,S,16,0.750751,0.03988,0.02994
4,61,1,5,0,0,1,,4,S,0,S,15,0,0.799816,0
4,62,4,5,0,0,1,,1,S,0,S,24,0.029591,0.77162,0.022833
4,63,3,5,0,0,1,,2,S,0,S,19,0.020071,0.780743,0.01567
4,64,8,1,0,0,1,,7,L,0,S,12,0.76115,0.014349,0.010922
4,65,1,8,0,0,1,,7,L,0,S,14,0.013147,0.780962,0.010268
4,66,3,9,0,0,1,,6,S,0,S,16,0.018238,0.780695,0.014238
4,67,1,3,0,0,1,,2,S,0,S,17,0.029272,0.771431,0.022582
4,68,4,7,0,0,1,,3,S,0,S,19,0.014451,0.787972,0.011387
4,69,8,2,0,0,1,,6,S,0,S,14,0.771262,0.019488,0.01503
4,70,1,7,0,0,1,,6,S,0,S,14,0.011606,0.780361,0.009057
4,71,7,5,0,0,1,,2,S,0,S,21,0.772912,0.026815,0.020726
4,72,4,2,0,0,1,,2,S,0,S,19,0.757134,0.041477,0.031403
5,1,7,3,0,0,1,,4,S,0,S,15,0.765569,0.027522,0.02107
5,2,7,8,0,0,1,,1,S,0,S,18,0.017558,0.787043,0.013819
5,3,4,8,0,0,1,,4,S,0,S,14,0.007365,0.786331,0.005791
5,4,3,6,0,0,1,,3,S,0,S,15,0.017771,0.776209,0.013794
5,5,6,9,0,0,1,,3,S,0,S,27,0.047111,0.753528,0.0355
5,6,7,9,0,0,0,,2,S,0,S,20,0.78222,0.02223,0.017389
5,7,3,1,0,0,1,,2,S,0,S,22,0.783146,0.021997,0.017227
5,8,9,2,0,0,1,,7,L,0,S,13,0.784733,0.001164,0.000913
5,9,6,4,0,0,1,,2,S,0,S,15,0.789779,0.008199,0.006476
5,10,3,7,0,0,1,,4,S,0,S,14,9.7E-05,0.79403,7.7E-05
5,11,4,5,0,0,1,,1,S,0,S,24,0.048527,0.75346,0.036563
5,12,2,3,0,0,1,,1,S,0,S,24,0.030347,0.775425,0.023532
5,13,4,6,0,0,1,,2,S,0,S,16,0.041333,0.750949,0.031039
5,14,9,7,0,0,1,,2,S,0,S,18,0.757142,0.039117,0.029617
5,15,6,1,0,0,1,,5,S,0,S,14,0.770267,0.019219,0.014804
5,16,1,6,0,0,1,,5,S,0,S,14,0.010984,0.783108,0.008602
5,17,4,1,0,0,1,,3,S,0,S,17,0.774611,0.024819,0.019225
5,18,3,5,0,0,1,,2,S,0,S,17,0.043193,0.751192,0.032446
5,19,1,4,0,0,1,,3,S,0,S,17,0.01862,0.784938,0.014616
5,20,9,8,0,0,1,,1,S,0,S,24,0.776411,0.028539,0.022158
5,21,8,7,0,0,0,,1,S,0,S,16,0.032457,0.76226,0.024741
5,22,5,7,0,0,1,,2,S,0,S,15,0.002373,0.797036,0.001892
5,23,8,1,0,0,1,,7,L,0,S,15,0.785397,0.011495,0.009028
5,24,6,3,0,0,1,,3,S,0,S,16,0.765312,0.030314,0.0232
5,25,5,8,0,0,1,,3,S,0,S,14,0.011402,0.78129,0.008908
5,26,9,4,0,0,1,,5,S,0,S,13,0.761491,0.020232,0.015407
5,27,8,9,0,0,1,,1,S,0,S,19,0.018317,0.785727,0.014393
5,28,6,7,0,0,1,,1,S,0,S,18,0.030171,0.769895,0.023229
5,29,4,3,0,0,0,,1,S,0,S,21,0.037682,0.764797,0.028819
5,30,1,8,0,0,1,,7,L,0,S,13,0,0.801754,0
5,31,1,5,0,0,1,,4,S,0,S,15,0.033584,0.759901,0.02552
5,32,8,5,0,0,1,,3,S,0,S,17,0.762708,0.035346,0.026958
5,33,9,3,0,0,1,,6,S,0,S,14,0.775376,0.014735,0.011425
5,34,2,6,0,0,1,,4,S,0,S,17,0.022546,0.777695,0.017534
5,35,6,8,0,0,1,,2,S,0,S,16,0.031993,0.763306,0.02442
5,36,8,3,0,0,1,,5,S,0,S,18,0.776221,0.025858,0.020071
5,37,1,9,0,0,1,,8,L,0,S,13,0.030274,0.750083,0.022708
5,38,4,2,0,0,1,,2,S,0,S,17,0.794821,0.007349,0.005841
5,39,5,1,0,0,1,,4,S,0,S,17,0.789671,0.01308,0.010329
5,40,6,5,0,0,1,,1,S,0,S,16,0.786367,0.014265,0.011217
5,41,4,9,0,0,1,,5,S,0,S,16,0.003694,0.797804,0.002947
5,42,4,7,0,0,1,,3,S,0,S,14,0.033295,0.751922,0.025035
5,43,9,6,0,0,1,,3,S,0,S,15,0.763397,0.02759,0.021063
5,44,7,1,0,0,1,,6,S,0,S,14,0.797186,0,0
5,45,2,9,0,0,1,,7,L,0,S,16,0.016012,0.782063,0.012522
5,46,5,3,0,0,0,,2,S,0,S,23,0.018959,0.78953,0.014968
5,47,2,1,0,0,1,,1,S,0,S,17,0.796741,0.007236,0.005766
5,48,7,6,0,0,1,,1,S,0,S,17,0.753536,0.042017,0.031661
5,49,5,4,0,0,1,,1,S,0,S,19,0.793418,0.013254,0.010516
5,50,9,5,0,0,1,,4,S,0,S,14,0.786042,0.006967,0.005476
5,51,1,2,0,0,1,,1,S,0,S,20,0.040318,0.760133,0.030647
5,52,2,5,0,0,0,,3,S,0,S,27,0.758182,0.045228,0.034291
5,53,3,8,0,0,1,,5,S,0,S,13,0.016248,0.767129,0.012464
5,54,8,6,0,0,0,,2,S,0,S,23,0.039563,0.763588,0.03021
5,55,3,4,0,0,1,,1,S,0,S,22,0.021198,0.784612,0.016632
5,56,9,1,0,0,1,,8,L,0,S,13,0.781082,0.005139,0.004014
5,57,7,5,0,0,1,,2,S,0,S,15,0.781314,0.015725,0.012286
5,58,8,4,0,0,1,,4,S,0,S,16,0.793054,0.008638,0.006851
5,59,2,8,0,0,1,,6,S,0,S,14,0.014064,0.777566,0.010935
5,60,2,7,0,0,1,,5,S,0,S,15,0.005719,0.792479,0.004532
5,61,5,9,0,0,1,,4,S,0,S,16,0.011102,0.788602,0.008755
5,62,5,2,0,0,1,,3,S,0,S,16,0.759408,0.033192,0.025207
5,63,5,6,0,0,1,,1,S,0,S,17,0.015565,0.786815,0.012246
5,64,7,4,0,0,1,,3,S,0,S,14,0.771153,0.019216,0.014818
5,65,8,2,0,0,1,,6,S,0,S,15,0.794352,0.003142,0.002496
5,66,2,4,0,0,0,,2,S,0,S,18,0.759411,0.038798,0.029464
5,67,1,7,0,0,1,,6,S,0,S,13,0.00754,0.780831,0.005887
5,68,1,3,0,0,1,,2,S,0,S,15,0.021942,0.774239,0.016988
5,69,3,9,0,0,1,,6,S,0,S,14,0.030068,0.754124,0.022675
5,70,7,2,0,0,1,,5,S,0,S,14,0.802372,0,0
5,71,3,2,0,0,1,,1,S,0,S,20,0.769484,0.030101,0.023162
5,72,6,2,0,0,1,,4,S,0,S,14,0.777033,0.01269,0.009861
6,1,2,7,0,0,1,,5,S,0,S,15,0.003709,0.795499,0.00295
6,2,3,4,0,0,1,,1,S,0,S,22,0.027911,0.778265,0.021722
6,3,5,1,0,0,1,,4,S,0,S,14,0.793358,0.001682,0.001335
6,4,9,7,0,0,1,,2,S,0,S,19,0.774333,0.0304,0.02354
6,5,7,9,0,0,1,,2,S,0,S,33,0.035167,0.767301,0.026984
6,6,3,7,0,0,1,,4,S,0,S,17,0.030132,0.771016,0.023232
6,7,6,7,0,0,0,,1,S,0,S,22,0.773943,0.030357,0.023494
6,8,4,7,0,0,1,,3,S,0,S,16,0.033877,0.760999,0.02578
6,9,1,9,0,0,1,,8,L,0,S,14,0.018591,0.773103,0.014372
6,10,5,6,0,0,1,,1,S,0,S,19,0.022369,0.782653,0.017507
6,11,7,3,0,0,1,,4,S,0,S,15,0.752163,0.037027,0.027851
6,12,2,9,0,0,1,,7,L,0,S,14,0.020826,0.767758,0.015989
6,13,1,7,0,0,1,,6,S,0,S,15,0.001114,0.801231,0.000892
6,14,8,7,0,0,1,,1,S,0,S,23,0.7526,0.05014,0.037735
6,15,6,4,0,0,1,,2,S,0,S,17,0.75877,0.035596,0.027009
6,16,1,6,0,0,1,,5,S,0,S,15,0.002639,0.797804,0.002105
6,17,8,2,0,0,1,,6,S,0,S,15,0.785727,0.012329,0.009687
6,18,3,8,0,0,1,,5,S,0,S,15,0.023609,0.769397,0.018165
6,19,8,3,0,0,1,,5,S,0,S,16,0.786963,0.015913,0.012523
6,20,3,6,0,0,1,,3,S,0,S,17,0.032776,0.766017,0.025107
6,21,6,9,0,0,1,,3,S,0,S,23,0.042948,0.757723,0.032543
6,22,4,5,0,0,1,,1,S,0,S,18,0.010009,0.79201,0.007927
6,23,9,3,0,0,1,,6,S,0,S,15,0.774083,0.023317,0.018049
6,24,4,9,0,0,1,,5,S,0,S,15,0.038138,0.750762,0.028632
6,25,2,8,0,0,1,,6,S,0,S,14,0.00055,0.791957,0.000435
6,26,7,6,0,0,1,,1,S,0,S,20,0.754185,0.042235,0.031853
6,27,8,9,0,0,1,,1,S,0,S,22,0.018284,0.790899,0.014461
6,28,7,5,0,0,1,,2,S,0,S,18,0.761671,0.032134,0.024476
6,29,5,2,0,0,1,,3,S,0,S,16,0.768121,0.029289,0.022497
6,30,4,3,0,0,1,,1,S,0,S,29,0.754999,0.048849,0.036881
6,31,8,6,0,0,1,,2,S,0,S,23,0.755064,0.046748,0.035297
6,32,2,1,0,0,1,,1,S,0,S,16,0.772034,0.022934,0.017706
6,33,1,2,0,0,1,,1,S,0,S,21,0.018973,0.789854,0.014986
6,34,8,4,0,0,1,,4,S,0,S,18,0.797706,0.008573,0.006839
6,35,8,1,0,0,1,,7,L,0,S,13,0.772148,0.012811,0.009892
6,36,4,1,0,0,1,,3,S,0,S,14,0.750119,0.033369,0.025031
6,37,7,8,0,0,1,,1,S,0,S,19,0.039573,0.75455,0.02986
6,38,1,4,0,0,1,,3,S,0,S,16,0.013992,0.78659,0.011006
6,39,3,1,0,0,1,,2,S,0,S,14,0.773712,0.01696,0.013122
6,40,3,9,0,0,1,,6,S,0,S,16,0.02541,0.77326,0.019649
6,41,7,1,0,0,1,,6,S,0,S,13,0.775393,0.007696,0.005967
6,42,2,6,0,0,1,,4,S,0,S,15,0.005275,0.791989,0.004178
6,43,1,8,0,0,1,,7,L,0,S,14,0,0.796981,0
6,44,9,6,0,0,1,,3,S,0,S,19,0.772172,0.030771,0.02376
6,45,5,9,0,0,1,,4,S,0,S,17,0.029059,0.771297,0.022413
6,46,7,2,0,0,1,,5,S,0,S,15,0.795069,0.002097,0.001667
6,47,5,4,0,0,1,,1,S,0,S,24,0.791795,0.017514,0.013868
6,48,3,5,0,0,1,,2,S,0,S,19,0.025332,0.776621,0.019674
6,49,9,8,0,0,0,,1,S,0,S,20,0.038637,0.761695,0.02943
6,50,6,5,0,0,1,,1,S,0,S,19,0.777578,0.021925,0.017048
6,51,3,2,0,0,1,,1,S,0,S,17,0.76517,0.034062,0.026063
6,52,4,6,0,0,1,,2,S,0,S,16,0.036083,0.756533,0.027298
6,53,5,3,0,0,1,,2,S,0,S,18,0.776324,0.028573,0.022182
6,54,8,5,0,0,1,,3,S,0,S,19,0.760227,0.037908,0.028819
6,55,5,8,0,0,1,,3,S,0,S,16,0.014673,0.784329,0.011508
6,56,6,3,0,0,1,,3,S,0,S,16,0.790655,0.010968,0.008672
6,57,1,3,0,0,1,,2,S,0,S,17,0.033574,0.767955,0.025783
6,58,2,3,0,0,1,,1,S,0,S,17,0.038209,0.759378,0.029015
6,59,4,2,0,0,1,,2,S,0,S,19,0.790448,0.015024,0.011876
6,60,6,2,0,0,1,,4,S,0,S,15,0.787272,0.009171,0.00722
6,61,7,4,0,0,1,,3,S,0,S,17,0.778405,0.01907,0.014844
6,62,9,2,0,0,1,,7,L,0,S,14,0.761472,0.027498,0.020939
6,63,4,8,0,0,1,,4,S,0,S,15,0.006701,0.788957,0.005286
6,64,6,1,0,0,1,,5,S,0,S,13,0.771671,0.011406,0.008802
6,65,5,7,0,0,1,,2,S,0,S,19,0.018643,0.788975,0.014709
6,66,1,5,0,0,1,,4,S,0,S,15,0.026614,0.764726,0.020352
6,67,6,8,0,0,1,,2,S,0,S,18,0.042782,0.750363,0.032102
6,68,9,4,0,0,1,,5,S,0,S,16,0.75948,0.035204,0.026737
6,69,2,4,0,0,1,,2,S,0,S,16,0.017452,0.779612,0.013606
6,70,2,5,0,0,1,,3,S,0,S,15,0.029588,0.758288,0.022436
6,71,9,1,0,0,1,,8,L,0,S,13,0.787514,0.001396,0.0011
6,72,9,5,0,0,1,,4,S,0,S,17,0.753459,0.040546,0.03055
7,1,5,3,0,0,1,,2,S,0,S,21,0.767933,0.035329,0.02713
7,2,3,9,0,0,1,,6,S,0,S,14,0.030855,0.757556,0.023374
7,3,1,4,0,0,1,,3,S,0,S,16,0.032113,0.763567,0.02452
7,4,8,9,0,0,0,,1,S,0,S,18,0.772228,0.030655,0.023672
7,5,2,8,0,0,1,,6,S,0,S,13,0.019801,0.761927,0.015087
7,6,1,8,0,0,1,,7,L,0,S,14,0.000414,0.794779,0.000329
7,7,5,9,0,0,1,,4,S,0,S,17,0.026169,0.776563,0.020322
7,8,3,4,0,0,1,,1,S,0,S,17,0.021397,0.779898,0.016688
7,9,8,7,0,0,1,,1,S,0,S,18,0.780438,0.02011,0.015695
7,10,4,8,0,0,1,,4,S,0,S,15,0.038391,0.750027,0.028794
7,11,7,4,0,0,1,,3,S,0,S,17,0.76465,0.031547,0.024123
7,12,5,1,0,0,1,,4,S,0,S,14,0.757426,0.030733,0.023278
7,13,1,9,0,0,1,,8,L,0,S,14,0.019136,0.772886,0.01479
7,14,5,4,0,0,1,,1,S,0,S,21,0.78554,0.022322,0.017535
7,15,4,1,0,0,1,,3,S,0,S,15,0.793419,0.00561,0.004451
7,16,6,1,0,0,1,,5,S,0,S,14,0.789983,0.00521,0.004116
7,17,9,4,0,0,1,,5,S,0,S,14,0.764548,0.024071,0.018403
7,18,2,1,0,0,1,,1,S,0,S,22,0.795568,0.013185,0.01049
7,19,2,4,0,0,1,,2,S,0,S,15,0.030299,0.760905,0.023055
7,20,3,7,0,0,1,,4,S,0,S,15,0.0033,0.793474,0.002618
7,21,9,7,0,0,1,,2,S,0,S,16,0.757865,0.033572,0.025443
7,22,5,6,0,0,1,,1,S,0,S,32,0.042017,0.762692,0.032046
7,23,3,1,0,0,1,,2,S,0,S,17,0.771918,0.027893,0.021531
7,24,1,6,0,0,1,,5,S,0,S,16,0.00494,0.797358,0.003939
7,25,9,5,0,0,1,,4,S,0,S,15,0.761937,0.029467,0.022452
7,26,2,5,0,0,1,,3,S,0,S,14,0.02554,0.761312,0.019444
7,27,9,8,0,0,1,,1,S,0,S,18,0.765997,0.032963,0.025249
7,28,4,6,0,0,1,,2,S,0,S,22,0.047561,0.752142,0.035773
7,29,9,1,0,0,1,,8,L,0,S,13,0.801639,0,0
7,30,8,1,0,0,1,,7,L,0,S,13,0.785198,0.003828,0.003006
7,31,6,5,0,0,1,,1,S,0,S,23,0.77231,0.032738,0.025284
7,32,2,9,0,0,1,,7,L,0,S,14,0,0.797033,0
7,33,8,4,0,0,1,,4,S,0,S,15,0.783257,0.01385,0.010848
7,34,3,8,0,0,1,,5,S,0,S,14,0.01003,0.782179,0.007845
7,35,1,7,0,0,1,,6,S,0,S,14,0.026839,0.758249,0.020351
7,36,9,2,0,0,1,,7,L,0,S,14,0.790997,0.004162,0.003292
7,37,6,8,0,0,1,,2,S,0,S,17,0.041103,0.754325,0.031005
7,38,2,7,0,0,1,,5,S,0,S,14,0.006428,0.783863,0.005038
7,39,1,5,0,0,1,,4,S,0,S,15,0.014525,0.781615,0.011353
7,40,7,9,0,0,1,,2,S,0,S,21,0.02456,0.780862,0.019178
7,41,4,3,0,0,1,,1,S,0,S,25,0.778888,0.026693,0.020791
7,42,7,1,0,0,1,,6,S,0,S,14,0.789815,0.003411,0.002694
7,43,7,6,0,0,1,,1,S,0,S,19,0.792484,0.011672,0.00925
7,44,8,3,0,0,1,,5,S,0,S,15,0.778805,0.016371,0.01275
7,45,7,8,0,0,1,,1,S,0,S,18,0.020769,0.779342,0.016186
7,46,3,5,0,0,1,,2,S,0,S,15,0.030038,0.761528,0.022875
7,47,6,3,0,0,1,,3,S,0,S,18,0.796662,0.009042,0.007203
7,48,5,2,0,0,1,,3,S,0,S,18,0.78454,0.020763,0.01629
7,49,4,2,0,0,1,,2,S,0,S,19,0.783635,0.021518,0.016862
7,50,2,3,0,0,1,,1,S,0,S,15,0.029474,0.760711,0.022421
7,51,6,7,0,0,1,,1,S,0,S,21,0.03316,0.767809,0.025461
7,52,6,4,0,0,1,,2,S,0,S,17,0.756511,0.040219,0.030426
7,53,5,7,0,0,1,,2,S,0,S,18,0.008524,0.795865,0.006784
7,54,4,9,0,0,1,,5,S,0,S,16,0.042427,0.751441,0.031882
7,55,1,2,0,0,1,,1,S,0,S,18,0.012032,0.79453,0.00956
7,56,3,6,0,0,1,,3,S,0,S,16,0.024627,0.772196,0.019017
7,57,9,6,0,0,1,,3,S,0,S,15,0.792763,0.005436,0.004309
7,58,5,8,0,0,1,,3,S,0,S,16,0.015737,0.784348,0.012343
7,59,8,5,0,0,1,,3,S,0,S,16,0.762378,0.032549,0.024815
7,60,7,2,0,0,1,,5,S,0,S,16,0.776713,0.020412,0.015855
7,61,8,2,0,0,1,,6,S,0,S,14,0.763889,0.025461,0.019449
7,62,2,6,0,0,1,,4,S,0,S,15,0.010212,0.785999,0.008026
7,63,7,5,0,0,1,,2,S,0,S,22,0.783083,0.021285,0.016668
7,64,6,9,0,0,1,,3,S,0,S,20,0.026406,0.780635,0.020613
7,65,7,3,0,0,1,,4,S,0,S,17,0.757219,0.036327,0.027508
7,66,8,6,0,0,1,,2,S,0,S,15,0.753743,0.03619,0.027278
7,67,1,3,0,0,1,,2,S,0,S,16,0.030758,0.764009,0.023499
7,68,6,2,0,0,1,,4,S,0,S,16,0.772832,0.025631,0.019809
7,69,3,2,0,0,0,,1,S,0,S,19,0.018094,0.788352,0.014264
7,70,4,5,0,0,1,,1,S,0,S,19,0.019605,0.784594,0.015382
7,71,4,7,0,0,1,,3,S,0,S,17,0.02187,0.775515,0.016961
7,72,9,3,0,0,1,,6,S,0,S,14,0.760661,0.026127,0.019874
8,1,8,5,0,0,1,,3,S,0,S,16,0.786272,0.013777,0.010833
8,2,3,5,0,0,1,,2,S,0,S,20,0.020819,0.787446,0.016394
8,3,9,8,0,0,1,,1,S,0,S,22,0.77295,0.033651,0.026011
8,4,2,7,0,0,1,,5,S,0,S,15,0.004717,0.794013,0.003745
8,5,7,1,0,0,1,,6,S,0,S,14,0.766269,0.020171,0.015457
8,6,8,4,0,0,1,,4,S,0,S,15,0.769579,0.023265,0.017904
8,7,7,6,0,0,1,,1,S,0,S,32,0.781885,0.024305,0.019003
8,8,4,3,0,0,1,,1,S,0,S,24,0.793133,0.014151,0.011223
8,9,2,9,0,0,1,,7,L,0,S,14,0.013279,0.776629,0.010313
8,10,9,2,0,0,1,,7,L,0,S,14,0.792413,0.003076,0.002438
8,11,8,7,0,0,1,,1,S,0,S,18,0.791565,0.011879,0.009403
8,12,3,7,0,0,1,,4,S,0,S,17,0.018547,0.783633,0.014534
8,13,1,9,0,0,1,,8,L,0,S,13,0.00102,0.787143,0.000803
8,14,8,2,0,0,1,,6,S,0,S,13,0.785042,0.001812,0.001423
8,15,1,5,0,0,1,,4,S,0,S,14,0.003658,0.793041,0.002901
8,16,5,1,0,0,1,,4,S,0,S,14,0.757431,0.028309,0.021442
8,17,5,6,0,0,1,,1,S,0,S,23,0.021635,0.785988,0.017005
8,18,4,6,0,0,1,,2,S,0,S,15,0.036248,0.752889,0.027291
8,19,5,7,0,0,1,,2,S,0,S,21,0.045265,0.753879,0.034124
8,20,7,3,0,0,1,,4,S,0,S,15,0.763248,0.026504,0.020229
8,21,6,4,0,0,1,,2,S,0,S,25,0.750886,0.049377,0.037077
8,22,4,2,0,0,1,,2,S,0,S,16,0.784093,0.01351,0.010593
8,23,8,9,0,0,0,,1,S,0,S,22,0.787895,0.016584,0.013067
8,24,9,4,0,0,1,,5,S,0,S,18,0.768277,0.033721,0.025907
8,25,4,9,0,0,1,,5,S,0,S,15,0,0.799923,0
8,26,6,7,0,0,1,,1,S,0,S,17,0.03752,0.757081,0.028406
8,27,1,2,0,0,1,,1,S,0,S,21,0.042705,0.758456,0.03239
8,28,5,2,0,0,1,,3,S,0,S,14,0.790858,0.00257,0.002032
8,29,7,8,0,0,0,,1,S,0,S,20,0.787578,0.016963,0.01336
8,30,2,4,0,0,1,,2,S,0,S,17,0.007812,0.797155,0.006228
8,31,7,2,0,0,1,,5,S,0,S,14,0.797284,0,0
8,32,6,9,0,0,1,,3,S,0,S,16,0.014735,0.781693,0.011518
8,33,5,4,0,0,1,,1,S,0,S,18,0.773038,0.027903,0.02157
8,34,9,3,0,0,1,,6,S,0,S,16,0.799411,0.004393,0.003512
8,35,4,5,0,0,1,,1,S,0,S,17,0.011425,0.791678,0.009045
8,36,2,1,0,0,1,,1,S,0,S,19,0.766302,0.034153,0.026172
8,37,1,6,0,0,1,,5,S,0,S,13,0.020188,0.764433,0.015432
8,38,3,6,0,0,1,,3,S,0,S,17,0.028357,0.772511,0.021906
8,39,2,3,0,0,1,,1,S,0,S,22,0.018693,0.788661,0.014742
8,40,9,7,0,0,0,,2,S,0,S,21,0.019907,0.788302,0.015693
8,41,2,6,0,0,1,,4,S,0,S,15,0.008921,0.789808,0.007046
8,42,6,2,0,0,1,,4,S,0,S,14,0.751897,0.031983,0.024048
8,43,6,8,0,0,1,,2,S,0,S,20,0.036102,0.764934,0.027615
8,44,3,2,0,0,1,,1,S,0,S,15,0.798824,0.001254,0.001002
8,45,3,1,0,0,1,,2,S,0,S,15,0.751397,0.038257,0.028746
8,46,8,1,0,0,1,,7,L,0,S,13,0.761693,0.019517,0.014866
8,47,2,8,0,0,1,,6,S,0,S,15,0.038347,0.751761,0.028828
8,48,2,5,0,0,1,,3,S,0,S,16,0.008869,0.793999,0.007042
8,49,6,5,0,0,0,,1,S,0,S,21,0.034895,0.768197,0.026806
8,50,4,8,0,0,1,,4,S,0,S,16,0.038208,0.754008,0.028809
8,51,5,8,0,0,0,,3,S,0,S,21,0.751453,0.04808,0.03613
8,52,4,1,0,0,1,,3,S,0,S,17,0.755678,0.038039,0.028745
8,53,1,7,0,0,1,,6,S,0,S,13,0.017773,0.766494,0.013623
8,54,7,9,0,0,1,,2,S,0,S,19,0.0111,0.791011,0.00878
8,55,7,5,0,0,1,,2,S,0,S,19,0.773661,0.027812,0.021517
8,56,9,5,0,0,1,,4,S,0,S,21,0.788013,0.021667,0.017074
8,57,8,3,0,0,1,,5,S,0,S,14,0.777622,0.012555,0.009763
8,58,9,1,0,0,1,,8,L,0,S,14,0.758542,0.029263,0.022197
8,59,6,1,0,0,1,,5,S,0,S,15,0.758833,0.030653,0.02326
8,60,1,8,0,0,1,,7,L,0,S,14,0.000288,0.7967,0.00023
8,61,9,6,0,0,0,,3,S,0,S,22,0.022899,0.786578,0.018012
8,62,5,9,0,0,1,,4,S,0,S,18,0.012051,0.79034,0.009525
8,63,3,9,0,0,1,,6,S,0,S,16,0.002559,0.79953,0.002046
8,64,3,4,0,0,1,,1,S,0,S,27,0.043867,0.760884,0.033378
8,65,1,3,0,0,1,,2,S,0,S,15,0.037588,0.752513,0.028286
8,66,8,6,0,0,1,,2,S,0,S,17,0.762823,0.033999,0.025935
8,67,1,4,0,0,1,,3,S,0,S,14,0.020371,0.770601,0.015698
8,68,5,3,0,0,1,,2,S,0,S,16,0.799073,0.002795,0.002233
8,69,6,3,0,0,1,,3,S,0,S,17,0.767327,0.029421,0.022575
8,70,4,7,0,0,1,,3,S,0,S,15,0.030744,0.758758,0.023327
8,71,3,8,0,0,1,,5,S,0,S,19,0.032518,0.770801,0.025065
8,72,7,4,0,0,1,,3,S,0,S,17,0.757502,0.036897,0.02795
9,1,9,8,0,0,1,,1,S,0,S,19,0.78499,0.017089,0.013415
9,2,7,1,0,0,1,,6,S,0,S,16,0.793843,0.007783,0.006179
9,3,7,8,0,0,1,,1,S,0,S,18,0.04041,0.758877,0.030666
9,4,4,8,0,0,1,,4,S,0,S,17,0.012963,0.79232,0.010271
9,5,3,2,0,0,1,,1,S,0,S,22,0.777342,0.027522,0.021394
9,6,6,2,0,0,1,,4,S,0,S,15,0.757828,0.033828,0.025636
9,7,4,3,0,0,1,,1,S,0,S,21,0.77149,0.03252,0.025089
9,8,4,2,0,0,1,,2,S,0,S,17,0.779476,0.023877,0.018611
9,9,7,5,0,0,0,,2,S,0,S,25,0.023813,0.786327,0.018725
9,10,6,3,0,0,1,,3,S,0,S,17,0.767663,0.029125,0.022358
9,11,2,4,0,0,1,,2,S,0,S,21,0.032086,0.76672,0.024601
9,12,2,7,0,0,1,,5,S,0,S,14,0,0.800759,0
9,13,9,4,0,0,1,,5,S,0,S,15,0.771789,0.017851,0.013778
9,14,1,3,0,0,1,,2,S,0,S,15,0.024601,0.764806,0.018815
9,15,7,4,0,0,1,,3,S,0,S,18,0.769095,0.030208,0.023233
9,16,6,9,0,0,0,,3,S,0,S,31,0.756228,0.047245,0.035728
9,17,8,7,0,0,0,,1,S,0,S,22,0.018448,0.788529,0.014546
9,18,4,7,0,0,1,,3,S,0,S,14,0.016533,0.776046,0.01283
9,19,9,6,0,0,1,,3,S,0,S,16,0.778001,0.016702,0.012994
9,20,8,2,0,0,1,,6,S,0,S,13,0.757641,0.024371,0.018465
9,21,1,2,0,0,1,,1,S,0,S,17,0.006715,0.796759,0.00535
9,22,8,5,0,0,1,,3,S,0,S,15,0.77043,0.023706,0.018264
9,23,8,4,0,0,1,,4,S,0,S,14,0.769955,0.017635,0.013579
9,24,1,7,0,0,1,,6,S,0,S,12,0.020501,0.751453,0.015405
9,25,2,6,0,0,1,,4,S,0,S,18,0.017561,0.782844,0.013748
9,26,9,7,0,0,0,,2,S,0,S,18,0.005914,0.797281,0.004715
9,27,8,3,0,0,1,,5,S,0,S,14,0.770995,0.017253,0.013302
9,28,9,1,0,0,1,,8,L,0,S,14,0.776861,0.011166,0.008674
9,29,4,1,0,0,1,,3,S,0,S,17,0.794035,0.010491,0.00833
9,30,2,3,0,0,1,,1,S,0,S,21,0.031296,0.768349,0.024047
9,31,1,6,0,0,1,,5,S,0,S,14,0.031106,0.751946,0.02339
9,32,2,1,0,0,1,,1,S,0,S,19,0.754675,0.040987,0.030932
9,33,9,5,0,0,1,,4,S,0,S,17,0.794069,0.007978,0.006335
9,34,5,7,0,0,1,,2,S,0,S,14,0.019655,0.771141,0.015157
9,35,8,6,0,0,1,,2,S,0,S,15,0.790621,0.006237,0.004931
9,36,6,1,0,0,1,,5,S,0,S,15,0.765456,0.026159,0.020023
9,37,7,6,0,0,1,,1,S,0,S,22,0.771123,0.03306,0.025493
9,38,3,4,0,0,1,,1,S,0,S,20,0.019668,0.781991,0.01538
9,39,5,9,0,0,1,,4,S,0,S,18,0.045931,0.752738,0.034574
9,40,1,8,0,0,1,,7,L,0,S,14,0,0.802581,0
9,41,2,5,0,0,1,,3,S,0,S,17,0.010523,0.79213,0.008336
9,42,3,9,0,0,1,,6,S,0,S,16,0.018434,0.77962,0.014371
9,43,1,5,0,0,1,,4,S,0,S,14,0.014649,0.77568,0.011363
9,44,1,9,0,0,1,,8,L,0,S,14,0.008487,0.783482,0.00665
9,45,5,1,0,0,1,,4,S,0,S,16,0.750564,0.041731,0.031322
9,46,6,7,0,0,1,,1,S,0,S,15,0.01858,0.776299,0.014424
9,47,3,8,0,0,1,,5,S,0,S,15,0.024567,0.767288,0.01885
9,48,5,4,0,0,1,,1,S,0,S,21,0.793826,0.013319,0.010573
9,49,4,9,0,0,1,,5,S,0,S,18,0.033974,0.768818,0.02612
9,50,1,4,0,0,1,,3,S,0,S,15,0.025019,0.763695,0.019107
9,51,8,1,0,0,1,,7,L,0,S,13,0.760182,0.02088,0.015872
9,52,7,3,0,0,1,,4,S,0,S,18,0.770693,0.029424,0.022676
9,53,6,5,0,0,1,,1,S,0,S,23,0.772505,0.033325,0.025744
9,54,3,5,0,0,1,,2,S,0,S,16,0.031605,0.763035,0.024116
9,55,3,6,0,0,1,,3,S,0,S,17,0.032933,0.761759,0.025087
9,56,7,2,0,0,1,,5,S,0,S,16,0.784657,0.016788,0.013173
9,57,4,5,0,0,1,,1,S,0,S,19,0.027686,0.778594,0.021556
9,58,6,4,0,0,1,,2,S,0,S,17,0.766199,0.029805,0.022836
9,59,4,6,0,0,1,,2,S,0,S,22,0.036863,0.767408,0.028289
9,60,7,9,0,0,1,,2,S,0,S,22,0.016594,0.793877,0.013174
9,61,3,1,0,0,1,,2,S,0,S,20,0.750022,0.046002,0.034502
9,62,5,3,0,0,1,,2,S,0,S,21,0.79583,0.012196,0.009706
9,63,3,7,0,0,1,,4,S,0,S,13,0.024867,0.75493,0.018773
9,64,2,9,0,0,1,,7,L,0,S,16,0.031844,0.762026,0.024266
9,65,9,2,0,0,1,,7,L,0,S,14,0.773284,0.015532,0.012011
9,66,5,8,0,0,1,,3,S,0,S,17,0.020367,0.782075,0.015929
9,67,5,2,0,0,1,,3,S,0,S,17,0.78592,0.018024,0.014166
9,68,9,3,0,0,1,,6,S,0,S,15,0.772974,0.017371,0.013427
9,69,6,8,0,0,1,,2,S,0,S,20,0.032442,0.770445,0.024995
9,70,2,8,0,0,1,,6,S,0,S,15,0.034842,0.753551,0.026255
9,71,5,6,0,0,1,,1,S,0,S,23,0.041227,0.761434,0.031392
9,72,8,9,0,0,0,,1,S,0,S,15,0.756772,0.034132,0.02583
10,1,4,2,0,0,0,,2,S,0,S,20,0.024883,0.778724,0.019377
10,2,4,7,0,0,1,,3,S,0,S,15,0.031607,0.760744,0.024045
10,3,9,7,0,0,1,,2,S,0,S,20,0.796988,0.013239,0.010551
10,4,3,5,0,0,1,,2,S,0,S,18,0.044379,0.755564,0.033531
10,5,3,8,0,0,1,,5,S,0,S,17,0.018812,0.784729,0.014763
10,6,5,6,0,0,1,,1,S,0,S,24,0.04286,0.762133,0.032665
10,7,3,2,0,0,1,,1,S,0,S,22,0.770395,0.035238,0.027147
10,8,7,6,0,0,1,,1,S,0,S,21,0.793304,0.01447,0.011479
10,9,7,2,0,0,1,,5,S,0,S,17,0.780089,0.019557,0.015256
10,10,2,4,0,0,1,,2,S,0,S,17,0.025135,0.773984,0.019454
10,11,6,7,0,0,1,,1,S,0,S,31,0.041579,0.766437,0.031868
10,12,9,2,0,0,1,,7,L,0,S,15,0.761712,0.030439,0.023186
10,13,6,4,0,0,1,,2,S,0,S,16,0.758955,0.035235,0.026742
10,14,4,3,0,0,1,,1,S,0,S,20,0.763027,0.036491,0.027844
10,15,3,6,0,0,1,,3,S,0,S,19,0.032885,0.771879,0.025383
10,16,7,5,0,0,1,,2,S,0,S,22,0.77434,0.030078,0.023291
10,17,6,1,0,0,1,,5,S,0,S,14,0.777334,0.013839,0.010758
10,18,1,8,0,0,1,,7,L,0,S,14,0.013638,0.778864,0.010622
10,19,3,7,0,0,1,,4,S,0,S,17,0.012982,0.793866,0.010306
10,20,9,1,0,0,1,,8,L,0,S,14,0.799441,0,0
10,21,3,1,0,0,1,,2,S,0,S,15,0.752267,0.03725,0.028022
10,22,8,3,0,0,1,,5,S,0,S,15,0.767041,0.025125,0.019272
10,23,7,8,0,0,1,,1,S,0,S,23,0.021336,0.784747,0.016743
10,24,9,8,0,0,1,,1,S,0,S,19,0.756698,0.042936,0.03249
10,25,2,3,0,0,1,,1,S,0,S,23,0.036247,0.767517,0.02782
10,26,4,1,0,0,1,,3,S,0,S,17,0.768301,0.027701,0.021283
10,27,5,8,0,0,1,,3,S,0,S,18,0.043342,0.754903,0.032719
10,28,8,1,0,0,1,,7,L,0,S,14,0.758781,0.026904,0.020414
10,29,8,5,0,0,1,,3,S,0,S,23,0.782696,0.025139,0.019677
10,30,6,2,0,0,1,,4,S,0,S,16,0.766025,0.030947,0.023706
10,31,7,4,0,0,1,,3,S,0,S,17,0.772009,0.024656,0.019035
10,32,1,3,0,0,1,,2,S,0,S,19,0.012414,0.793953,0.009856
10,33,6,3,0,0,1,,3,S,0,S,15,0.790723,0.007898,0.006245
10,34,8,4,0,0,1,,4,S,0,S,17,0.767264,0.029667,0.022762
10,35,2,5,0,0,1,,3,S,0,S,15,0.023572,0.772051,0.018199
10,36,4,5,0,0,1,,1,S,0,S,16,0.033207,0.761633,0.025292
10,37,9,4,0,0,1,,5,S,0,S,15,0.755922,0.03372,0.02549
10,38,5,9,0,0,1,,4,S,0,S,17,0.031893,0.762846,0.02433
10,39,1,2,0,0,1,,1,S,0,S,16,0.016444,0.783641,0.012886
10,40,1,4,0,0,1,,3,S,0,S,16,0.015373,0.783461,0.012044
10,41,2,1,0,0,1,,1,S,0,S,20,0.788766,0.016805,0.013255
10,42,5,7,0,0,1,,2,S,0,S,18,0.034519,0.767976,0.02651
10,43,1,6,0,0,1,,5,S,0,S,15,0.002833,0.79856,0.002262
10,44,7,3,0,0,1,,4,S,0,S,15,0.768522,0.02278,0.017507
10,45,8,2,0,0,1,,6,S,0,S,17,0.775593,0.024375,0.018905
10,46,5,1,0,0,1,,4,S,0,S,15,0.784181,0.011751,0.009215
10,47,1,9,0,0,1,,8,L,0,S,14,0.002374,0.789673,0.001875
10,48,8,6,0,0,1,,2,S,0,S,21,0.771283,0.033496,0.025835
10,49,6,8,0,0,0,,2,S,0,S,30,0.766546,0.039816,0.03052
10,50,5,4,0,0,1,,1,S,0,S,19,0.782008,0.021605,0.016895
10,51,2,7,0,0,1,,5,S,0,S,14,0.032892,0.755743,0.024858
10,52,2,9,0,0,1,,7,L,0,S,14,0.021748,0.764528,0.016627
10,53,2,8,0,0,1,,6,S,0,S,14,0.035879,0.750107,0.026913
10,54,6,5,0,0,1,,1,S,0,S,20,0.792998,0.016599,0.013163
10,55,3,9,0,0,1,,6,S,0,S,16,0.024748,0.770171,0.01906
10,56,6,9,0,0,1,,3,S,0,S,21,0.028809,0.773208,0.022275
10,57,4,8,0,0,1,,4,S,0,S,15,0.035511,0.753898,0.026771
10,58,9,3,0,0,1,,6,S,0,S,14,0.768037,0.020882,0.016038
10,59,9,5,0,0,1,,4,S,0,S,17,0.760672,0.03748,0.02851
10,60,1,5,0,0,1,,4,S,0,S,14,0.032991,0.754566,0.024894
10,61,7,1,0,0,1,,6,S,0,S,14,0.759401,0.025277,0.019196
10,62,3,4,0,0,0,,1,S,0,S,23,0.787442,0.020571,0.016199
10,63,4,6,0,0,1,,2,S,0,S,17,0.00861,0.795782,0.006851
10,64,1,7,0,0,1,,6,S,0,S,14,0.011058,0.783867,0.008668
10,65,4,9,0,0,1,,5,S,0,S,15,0.016596,0.774217,0.012849
10,66,2,6,0,0,1,,4,S,0,S,15,0.03141,0.76214,0.023939
10,67,5,3,0,0,1,,2,S,0,S,16,0.780364,0.018308,0.014287
10,68,5,2,0,0,1,,3,S,0,S,19,0.793862,0.013426,0.010659
10,69,8,9,0,0,1,,1,S,0,S,19,0.027103,0.771612,0.020913
10,70,7,9,0,0,1,,2,S,0,S,19,0.041891,0.751139,0.031466
10,71,9,6,0,0,1,,3,S,0,S,17,0.780022,0.022321,0.017411
10,72,8,7,0,0,0,,1,S,0,S,21,0.038435,0.765943,0.029439
11,1,7,1,0,0,1,,6,S,0,S,15,0.781794,0.014357,0.011224
11,2,6,5,0,0,1,,1,S,0,S,16,0.769393,0.028242,0.021729
11,3,2,5,0,0,1,,3,S,0,S,19,0.018664,0.787153,0.014691
11,4,7,3,0,0,1,,4,S,0,S,16,0.759931,0.036858,0.02801
11,5,4,8,0,0,1,,4,S,0,S,14,0.026867,0.761348,0.020455
11,6,4,2,0,0,1,,2,S,0,S,18,0.750756,0.045948,0.034496
11,7,9,8,0,0,1,,1,S,0,S,17,0.771931,0.026094,0.020143
11,8,4,9,0,0,1,,5,S,0,S,16,0.022046,0.77872,0.017168
11,9,9,5,0,0,1,,4,S,0,S,13,0.757577,0.024372,0.018464
11,10,6,8,0,0,1,,2,S,0,S,17,0.020982,0.779592,0.016357
11,11,8,7,0,0,1,,1,S,0,S,24,0.784601,0.020827,0.016341
11,12,9,7,0,0,1,,2,S,0,S,15,0.771691,0.021883,0.016887
11,13,7,2,0,0,1,,5,S,0,S,15,0.759307,0.031429,0.023864
11,14,5,1,0,0,1,,4,S,0,S,16,0.773468,0.021623,0.016725
11,15,5,3,0,0,1,,2,S,0,S,19,0.79709,0.010372,0.008267
11,16,2,1,0,0,1,,1,S,0,S,20,0.75833,0.041178,0.031226
11,17,2,4,0,0,1,,2,S,0,S,18,0.037474,0.758897,0.028439
11,18,9,2,0,0,1,,7,L,0,S,13,0.783433,0.003368,0.002638
11,19,8,9,0,0,0,,1,S,0,S,21,0.788586,0.017718,0.013972
11,20,3,4,0,0,1,,1,S,0,S,21,0.033105,0.768205,0.025432
11,21,7,4,0,0,1,,3,S,0,S,17,0.757894,0.037247,0.028229
11,22,1,7,0,0,1,,6,S,0,S,14,0.008478,0.786637,0.006669
11,23,5,8,0,0,1,,3,S,0,S,15,0.023058,0.767751,0.017703
11,24,7,9,0,0,1,,2,S,0,S,21,0.048283,0.753556,0.036384
11,25,5,6,0,0,1,,1,S,0,S,16,0.006546,0.793186,0.005192
11,26,8,1,0,0,1,,7,L,0,S,14,0.765286,0.021142,0.01618
11,27,3,1,0,0,1,,2,S,0,S,18,0.777653,0.023749,0.018469
11,28,8,3,0,0,1,,5,S,0,S,15,0.766038,0.026741,0.020485
11,29,4,5,0,0,1,,1,S,0,S,26,0.027378,0.782255,0.021417
11,30,4,7,0,0,1,,3,S,0,S,16,0.007043,0.796326,0.005609
11,31,7,8,0,0,1,,1,S,0,S,16,0.02871,0.766944,0.022019
11,32,6,3,0,0,1,,3,S,0,S,16,0.791597,0.011921,0.009436
11,33,1,2,0,0,1,,1,S,0,S,19,0.012387,0.795265,0.009851
11,34,2,3,0,0,1,,1,S,0,S,20,0.023189,0.78426,0.018186
11,35,5,7,0,0,1,,2,S,0,S,17,0.025449,0.772054,0.019648
11,36,3,2,0,0,1,,1,S,0,S,19,0.758968,0.039361,0.029874
11,37,1,4,0,0,1,,3,S,0,S,16,0.018159,0.781008,0.014183
11,38,2,7,0,0,1,,5,S,0,S,15,0.00996,0.787325,0.007842
11,39,6,2,0,0,1,,4,S,0,S,15,0.782031,0.01379,0.010784
11,40,3,7,0,0,1,,4,S,0,S,15,0.035199,0.754962,0.026574
11,41,1,5,0,0,1,,4,S,0,S,16,0.025258,0.774784,0.019569
11,42,3,5,0,0,1,,2,S,0,S,22,0.047431,0.753999,0.035763
11,43,9,6,0,0,1,,3,S,0,S,16,0.763612,0.030953,0.023636
11,44,1,8,0,0,1,,7,L,0,S,13,0.013694,0.772484,0.010578
11,45,8,5,0,0,1,,3,S,0,S,16,0.797176,0.004089,0.003259
11,46,5,9,0,0,1,,4,S,0,S,18,0.01398,0.790052,0.011045
11,47,6,9,0,0,0,,3,S,0,S,31,0.782566,0.027117,0.021221
11,48,1,9,0,0,1,,8,L,0,S,14,0.016115,0.778076,0.012538
11,49,4,3,0,0,1,,1,S,0,S,24,0.752644,0.052082,0.039199
11,50,7,6,0,0,0,,1,S,0,S,17,0.021837,0.7792,0.017015
11,51,6,4,0,0,1,,2,S,0,S,17,0.798298,0.005375,0.004291
11,52,5,2,0,0,1,,3,S,0,S,17,0.789425,0.010773,0.008504
11,53,3,8,0,0,1,,5,S,0,S,14,0.021854,0.76631,0.016747
11,54,1,3,0,0,1,,2,S,0,S,16,0.041003,0.756284,0.03101
11,55,9,3,0,0,1,,6,S,0,S,13,0.767529,0.017857,0.013705
11,56,9,1,0,0,1,,8,L,0,S,13,0.793424,0,0
11,57,7,5,0,0,1,,2,S,0,S,17,0.78191,0.020606,0.016112
11,58,8,2,0,0,1,,6,S,0,S,15,0.799119,0,0
11,59,2,6,0,0,1,,4,S,0,S,14,0.016674,0.773589,0.012899
11,60,4,1,0,0,1,,3,S,0,S,17,0.7574,0.039408,0.029848
11,61,8,6,0,0,0,,2,S,0,S,20,0.024251,0.777819,0.018863
11,62,2,8,0,0,1,,6,S,0,S,14,0.005036,0.788089,0.003969
11,63,9,4,0,0,1,,5,S,0,S,14,0.801375,0,0
11,64,3,9,0,0,1,,6,S,0,S,16,0.012739,0.788896,0.01005
11,65,1,6,0,0,1,,5,S,0,S,13,0.02277,0.761147,0.017332
11,66,6,7,0,0,1,,1,S,0,S,23,0.023445,0.784241,0.018386
11,67,5,4,0,0,1,,1,S,0,S,21,0.784792,0.018109,0.014212
11,68,6,1,0,0,1,,5,S,0,S,15,0.801323,0,0
11,69,2,9,0,0,1,,7,L,0,S,15,0.020777,0.77482,0.016098
11,70,4,6,0,0,1,,2,S,0,S,15,0.00524,0.794829,0.004165
11,71,3,6,0,0,1,,3,S,0,S,15,0,0.800431,0
11,72,8,4,0,0,1,,4,S,0,S,16,0.780647,0.014889,0.011623
12,1,9,7,0,0,1,,2,S,0,S,17,0.781409,0.019836,0.0155
12,2,1,3,0,0,1,,2,S,0,S,16,0.031424,0.762759,0.023969
12,3,2,4,0,0,1,,2,S,0,S,17,0.039282,0.75719,0.029744
12,4,2,1,0,0,1,,1,S,0,S,18,0.786993,0.016075,0.012651
12,5,8,9,0,0,1,,1,S,0,S,16,0.038248,0.755624,0.028901
12,6,9,2,0,0,1,,7,L,0,S,13,0.777947,0.007311,0.005687
12,7,9,3,0,0,1,,6,S,0,S,14,0.771326,0.016649,0.012842
12,8,6,9,0,0,1,,3,S,0,S,16,0.023776,0.773662,0.018394
12,9,8,5,0,0,1,,3,S,0,S,20,0.788562,0.017814,0.014047
12,10,6,1,0,0,1,,5,S,0,S,15,0.792634,0.005395,0.004277
12,11,2,8,0,0,1,,6,S,0,S,15,0.01147,0.785478,0.009009
12,12,6,8,0,0,1,,2,S,0,S,18,0.033496,0.766391,0.025671
12,13,1,5,0,0,1,,4,S,0,S,15,5.4E-05,0.799688,4.3E-05
12,14,4,5,0,0,0,,1,S,0,S,25,0.773133,0.0303,0.023426
12,15,2,9,0,0,1,,7,L,0,S,14,0.014,0.777278,0.010882
12,16,1,4,0,0,1,,3,S,0,S,15,0.007554,0.791327,0.005978
12,17,8,7,0,0,0,,1,S,0,S,22,0.025211,0.783559,0.019754
12,18,5,4,0,0,0,,1,S,0,S,21,0.01719,0.791899,0.013613
12,19,9,4,0,0,1,,5,S,0,S,15,0.770755,0.022171,0.017088
12,20,2,5,0,0,1,,3,S,0,S,17,0.020823,0.779261,0.016226
12,21,3,9,0,0,1,,6,S,0,S,14,0.026124,0.761334,0.019889
12,22,3,8,0,0,1,,5,S,0,S,15,0.028046,0.763996,0.021427
12,23,3,7,0,0,1,,4,S,0,S,16,0.014167,0.787273,0.011153
12,24,6,5,0,0,1,,1,S,0,S,21,0.765945,0.036208,0.027734
12,25,4,8,0,0,1,,4,S,0,S,17,0.041981,0.75152,0.03155
12,26,5,8,0,0,1,,3,S,0,S,16,0.013648,0.787361,0.010746
12,27,9,6,0,0,1,,3,S,0,S,17,0.770272,0.027449,0.021144
12,28,2,3,0,0,1,,1,S,0,S,25,0.04101,0.760906,0.031205
12,29,5,1,0,0,1,,4,S,0,S,16,0.775204,0.022441,0.017397
12,30,3,6,0,0,1,,3,S,0,S,16,0.011316,0.789469,0.008934
12,31,1,7,0,0,1,,6,S,0,S,14,0.003519,0.792823,0.00279
12,32,3,2,0,0,1,,1,S,0,S,16,0.777858,0.019911,0.015488
12,33,7,4,0,0,1,,3,S,0,S,17,0.773977,0.026833,0.020768
12,34,3,5,0,0,1,,2,S,0,S,18,0.020163,0.78197,0.015767
12,35,3,4,0,0,1,,1,S,0,S,18,0.04597,0.750722,0.034511
12,36,7,5,0,0,1,,2,S,0,S,18,0.791788,0.013271,0.010508
12,37,5,2,0,0,1,,3,S,0,S,15,0.760583,0.031395,0.023878
12,38,4,6,0,0,1,,2,S,0,S,19,0.013625,0.791422,0.010783
12,39,7,2,0,0,1,,5,S,0,S,14,0.795771,0.000242,0.000193
12,40,7,6,0,0,1,,1,S,0,S,25,0.788763,0.020822,0.016423
12,41,5,3,0,0,1,,2,S,0,S,19,0.751244,0.046427,0.034878
12,42,5,9,0,0,1,,4,S,0,S,15,0.005125,0.794526,0.004072
12,43,7,9,0,0,1,,2,S,0,S,18,0.011822,0.794227,0.009389
12,44,6,7,0,0,1,,1,S,0,S,20,0.033698,0.770913,0.025978
12,45,5,6,0,0,1,,1,S,0,S,16,0.037791,0.756973,0.028607
12,46,4,1,0,0,1,,3,S,0,S,15,0.774973,0.017792,0.013788
12,47,7,3,0,0,1,,4,S,0,S,15,0.764325,0.027785,0.021236
12,48,5,7,0,0,1,,2,S,0,S,16,0.041772,0.753376,0.03147
12,49,6,3,0,0,1,,3,S,0,S,16,0.757373,0.035677,0.027021
12,50,4,7,0,0,1,,3,S,0,S,19,0.022178,0.782237,0.017348
12,51,2,7,0,0,1,,5,S,0,S,15,0.030529,0.762765,0.023286
12,52,6,4,0,0,1,,2,S,0,S,20,0.79096,0.016625,0.01315
12,53,8,2,0,0,1,,6,S,0,S,14,0.775116,0.016038,0.012431
12,54,4,9,0,0,1,,5,S,0,S,16,0.009509,0.790048,0.007513
12,55,8,1,0,0,1,,7,L,0,S,14,0.752626,0.032826,0.024706
12,56,3,1,0,0,1,,2,S,0,S,17,0.782196,0.018131,0.014182
12,57,6,2,0,0,1,,4,S,0,S,14,0.765013,0.023483,0.017965
12,58,4,2,0,0,1,,2,S,0,S,15,0.800717,0,0
12,59,8,3,0,0,1,,5,S,0,S,16,0.776783,0.020852,0.016198
12,60,7,8,0,0,1,,1,S,0,S,23,0.031851,0.77403,0.024653
12,61,7,1,0,0,1,,6,S,0,S,14,0.776572,0.014579,0.011322
12,62,9,8,0,0,1,,1,S,0,S,18,0.768249,0.030401,0.023356
12,63,9,5,0,0,1,,4,S,0,S,15,0.754583,0.033673,0.025409
12,64,2,6,0,0,1,,4,S,0,S,15,0.028111,0.764444,0.021489
12,65,8,4,0,0,1,,4,S,0,S,19,0.792311,0.014998,0.011883
12,66,4,3,0,0,1,,1,S,0,S,17,0.776182,0.021697,0.016841
12,67,9,1,0,0,1,,8,L,0,S,13,0.763035,0.018115,0.013822
12,68,1,6,0,0,1,,5,S,0,S,14,0.002364,0.793013,0.001874
12,69,1,8,0,0,1,,7,L,0,S,13,0.028515,0.751877,0.021439
12,70,1,2,0,0,1,,1,S,0,S,27,0.050283,0.750859,0.037756
12,71,8,6,0,0,0,,2,S,0,S,21,0.039029,0.764059,0.029821
12,72,1,9,0,0,1,,8,L,0,S,13,0.006921,0.780315,0.005401
13,1,7,9,0,0,1,,2,S,0,S,17,0.034405,0.763504,0.026268
13,2,4,3,0,0,1,,1,S,0,S,29,0.795478,0.016503,0.013128
13,3,3,5,0,0,1,,2,S,0,S,30,0.045752,0.756559,0.034614
13,4,4,8,0,0,1,,4,S,0,S,15,0.015461,0.780171,0.012062
13,5,7,3,0,0,1,,4,S,0,S,19,0.756487,0.04327,0.032733
13,6,8,6,0,0,1,,2,S,0,S,18,0.760012,0.036169,0.027489
13,7,6,1,0,0,1,,5,S,0,S,15,0.800367,0.000179,0.000144
13,8,1,2,0,0,1,,1,S,0,S,16,0.003048,0.797531,0.002431
13,9,2,8,0,0,1,,6,S,0,S,14,0,0.80289,0
13,10,1,4,0,0,1,,3,S,0,S,15,0.014599,0.780939,0.011401
13,11,4,9,0,0,1,,5,S,0,S,16,0.021361,0.778251,0.016624
13,12,9,5,0,0,1,,4,S,0,S,15,0.751133,0.036646,0.027526
13,13,3,1,0,0,1,,2,S,0,S,15,0.755265,0.035256,0.026628
13,14,9,8,0,0,0,,1,S,0,S,23,0.013172,0.793946,0.010458
13,15,8,5,0,0,1,,3,S,0,S,18,0.794011,0.007676,0.006095
13,16,8,4,0,0,1,,4,S,0,S,18,0.790539,0.013685,0.010818
13,17,6,2,0,0,1,,4,S,0,S,18,0.793843,0.013025,0.01034
13,18,6,4,0,0,1,,2,S,0,S,19,0.760115,0.042687,0.032447
13,19,1,5,0,0,1,,4,S,0,S,15,0.022296,0.767134,0.017104
13,20,8,3,0,0,1,,5,S,0,S,17,0.773003,0.024457,0.018905
13,21,8,1,0,0,1,,7,L,0,S,14,0.764534,0.021137,0.01616
13,22,2,5,0,0,1,,3,S,0,S,16,0.028951,0.767428,0.022218
13,23,4,2,0,0,1,,2,S,0,S,23,0.784246,0.024697,0.019369
13,24,5,6,0,0,1,,1,S,0,S,25,0.050994,0.750401,0.038266
13,25,5,7,0,0,1,,2,S,0,S,21,0.046075,0.755525,0.034811
13,26,9,2,0,0,1,,7,L,0,S,15,0.778766,0.016914,0.013172
13,27,3,4,0,0,1,,1,S,0,S,25,0.021934,0.78995,0.017327
13,28,8,9,0,0,1,,1,S,0,S,20,0.043044,0.753932,0.032452
13,29,3,8,0,0,1,,5,S,0,S,15,0.020359,0.773626,0.01575
13,30,9,7,0,0,1,,2,S,0,S,16,0.766904,0.029511,0.022632
13,31,1,6,0,0,1,,5,S,0,S,15,0.008949,0.786257,0.007036
13,32,9,4,0,0,1,,5,S,0,S,15,0.751844,0.039198,0.029471
13,33,7,6,0,0,1,,1,S,0,S,23,0.761312,0.04196,0.031945
13,34,6,5,0,0,1,,1,S,0,S,19,0.77272,0.029283,0.022627
13,35,4,7,0,0,1,,3,S,0,S,19,0.042299,0.759443,0.032124
13,36,5,2,0,0,1,,3,S,0,S,20,0.76857,0.034519,0.02653
13,37,7,1,0,0,1,,6,S,0,S,15,0.785093,0.011498,0.009027
13,38,6,3,0,0,1,,3,S,0,S,18,0.764318,0.036462,0.027869
13,39,2,9,0,0,1,,7,L,0,S,14,0.017807,0.774636,0.013794
13,40,8,7,0,0,1,,1,S,0,S,19,0.762169,0.03638,0.027727
13,41,7,4,0,0,1,,3,S,0,S,21,0.768637,0.03693,0.028386
13,42,5,8,0,0,1,,3,S,0,S,15,0.030285,0.759844,0.023012
13,43,1,3,0,0,1,,2,S,0,S,15,0.029098,0.76044,0.022127
13,44,9,6,0,0,1,,3,S,0,S,16,0.785631,0.014207,0.011161
13,45,4,6,0,0,1,,2,S,0,S,21,0.030415,0.775678,0.023592
13,46,9,1,0,0,1,,8,L,0,S,13,0.755486,0.02476,0.018706
13,47,2,6,0,0,1,,4,S,0,S,16,0.010028,0.793391,0.007956
13,48,5,3,0,0,1,,2,S,0,S,22,0.790205,0.018348,0.014499
13,49,1,8,0,0,1,,7,L,0,S,13,0.012553,0.76857,0.009648
13,50,6,9,0,0,1,,3,S,0,S,18,0.02593,0.777236,0.020154
13,51,5,9,0,0,1,,4,S,0,S,17,0.006982,0.797924,0.005571
13,52,7,8,0,0,1,,1,S,0,S,16,0.011399,0.787985,0.008982
13,53,8,2,0,0,1,,6,S,0,S,17,0.792911,0.008805,0.006981
13,54,3,7,0,0,1,,4,S,0,S,20,0.027664,0.778758,0.021544
13,55,2,3,0,0,1,,1,S,0,S,16,0.039875,0.755654,0.030132
13,56,1,9,0,0,1,,8,L,0,S,14,0,0.798386,0
13,57,4,1,0,0,1,,3,S,0,S,16,0.798581,0.004484,0.003581
13,58,7,2,0,0,1,,5,S,0,S,19,0.796655,0.011306,0.009007
13,59,3,2,0,0,1,,1,S,0,S,22,0.794545,0.015764,0.012526
13,60,1,7,0,0,1,,6,S,0,S,15,0,0.800249,0
13,61,5,4,0,0,1,,1,S,0,S,28,0.792816,0.01912,0.015159
13,62,5,1,0,0,1,,4,S,0,S,15,0.765779,0.02634,0.020171
13,63,9,3,0,0,1,,6,S,0,S,15,0.76707,0.025955,0.01991
13,64,7,5,0,0,1,,2,S,0,S,21,0.793996,0.013152,0.010442
13,65,2,7,0,0,1,,5,S,0,S,15,0.032072,0.762259,0.024447
13,66,3,6,0,0,1,,3,S,0,S,22,0.031786,0.774364,0.024614
13,67,4,5,0,0,1,,1,S,0,S,25,0.030114,0.775741,0.023361
13,68,6,8,0,0,1,,2,S,0,S,16,0.027137,0.768748,0.020862
13,69,2,1,0,0,1,,1,S,0,S,20,0.770092,0.033636,0.025903
13,70,2,4,0,0,1,,2,S,0,S,16,0.018606,0.78453,0.014597
13,71,3,9,0,0,1,,6,S,0,S,16,0.02851,0.768895,0.021921
13,72,6,7,0,0,0,,1,S,0,S,23,0.778638,0.029488,0.02296
14,1,1,8,0,0,1,,7,L,0,S,15,0.008711,0.790085,0.006882
14,2,1,3,0,0,1,,2,S,0,S,17,0.039824,0.753018,0.029988
14,3,5,6,0,0,1,,1,S,0,S,25,0.035053,0.772362,0.027074
14,4,2,9,0,0,1,,7,L,0,S,16,0.017695,0.779319,0.01379
14,5,5,4,0,0,1,,1,S,0,S,18,0.790376,0.013455,0.010635
14,6,2,8,0,0,1,,6,S,0,S,16,0.025445,0.773409,0.019679
14,7,5,3,0,0,1,,2,S,0,S,18,0.789297,0.015079,0.011902
14,8,2,1,0,0,1,,1,S,0,S,16,0.771075,0.023104,0.017815
14,9,3,9,0,0,1,,6,S,0,S,14,0.027825,0.75905,0.02112
14,10,7,6,0,0,1,,1,S,0,S,24,0.752057,0.047296,0.035569
14,11,9,2,0,0,1,,7,L,0,S,15,0.785046,0.014503,0.011385
14,12,4,2,0,0,1,,2,S,0,S,17,0.763836,0.032902,0.025131
14,13,8,3,0,0,1,,5,S,0,S,17,0.797982,0.004134,0.003299
14,14,7,9,0,0,1,,2,S,0,S,22,0.017687,0.785451,0.013892
14,15,7,3,0,0,1,,4,S,0,S,17,0.76646,0.028088,0.021529
14,16,5,8,0,0,1,,3,S,0,S,20,0.045214,0.758316,0.034287
14,17,4,9,0,0,1,,5,S,0,S,17,0.034733,0.759475,0.026379
14,18,8,2,0,0,1,,6,S,0,S,15,0.767567,0.024423,0.018746
14,19,6,9,0,0,1,,3,S,0,S,16,0.040421,0.751395,0.030372
14,20,1,2,0,0,1,,1,S,0,S,21,0.034805,0.767126,0.0267
14,21,9,1,0,0,1,,8,L,0,S,14,0.788914,0.005357,0.004226
14,22,6,2,0,0,1,,4,S,0,S,18,0.769739,0.031599,0.024323
14,23,3,4,0,0,1,,1,S,0,S,17,0.014719,0.786583,0.011578
14,24,1,4,0,0,1,,3,S,0,S,18,0.007498,0.795087,0.005961
14,25,2,7,0,0,1,,5,S,0,S,16,0.024378,0.774374,0.018878
14,26,2,4,0,0,1,,2,S,0,S,24,0.013864,0.792817,0.010992
14,27,1,9,0,0,1,,8,L,0,S,15,0.00445,0.7918,0.003524
14,28,5,9,0,0,1,,4,S,0,S,20,0.011141,0.796653,0.008876
14,29,3,2,0,0,0,,1,S,0,S,19,0.036576,0.765509,0.027999
14,30,7,4,0,0,1,,3,S,0,S,17,0.766997,0.026903,0.020634
14,31,1,7,0,0,1,,6,S,0,S,15,0.008111,0.790483,0.006412
14,32,1,6,0,0,1,,5,S,0,S,15,0.025449,0.767268,0.019527
14,33,4,8,0,0,1,,4,S,0,S,18,0.012064,0.794313,0.009583
14,34,8,4,0,0,1,,4,S,0,S,17,0.798094,0.003308,0.00264
14,35,4,1,0,0,1,,3,S,0,S,15,0.767449,0.022423,0.017209
14,36,5,1,0,0,1,,4,S,0,S,14,0.755912,0.029398,0.022222
14,37,3,8,0,0,1,,5,S,0,S,14,0.031933,0.75751,0.02419
14,38,9,6,0,0,1,,3,S,0,S,20,0.792246,0.018406,0.014582
14,39,9,3,0,0,1,,6,S,0,S,16,0.77257,0.025917,0.020022
14,40,9,5,0,0,1,,4,S,0,S,17,0.778638,0.023939,0.01864
14,41,2,3,0,0,1,,1,S,0,S,23,0.033504,0.769037,0.025766
14,42,4,3,0,0,1,,1,S,0,S,21,0.780302,0.022864,0.017841
14,43,8,1,0,0,1,,7,L,0,S,14,0.775171,0.012433,0.009638
14,44,8,6,0,0,1,,2,S,0,S,21,0.782076,0.023095,0.018062
14,45,2,6,0,0,1,,4,S,0,S,17,0.016441,0.786236,0.012927
14,46,9,4,0,0,1,,5,S,0,S,16,0.772704,0.025076,0.019376
14,47,6,8,0,0,1,,2,S,0,S,17,0.014083,0.791743,0.01115
14,48,7,5,0,0,1,,2,S,0,S,18,0.753676,0.040336,0.0304
14,49,7,2,0,0,1,,5,S,0,S,16,0.796382,0.0039,0.003106
14,50,5,2,0,0,1,,3,S,0,S,16,0.784712,0.016309,0.012798
14,51,6,4,0,0,1,,2,S,0,S,25,0.780982,0.024625,0.019232
14,52,8,7,0,0,1,,1,S,0,S,27,0.775042,0.031318,0.024273
14,53,6,5,0,0,0,,1,S,0,S,22,0.020339,0.786997,0.016007
14,54,4,5,0,0,0,,1,S,0,S,39,0.764935,0.037781,0.0289
14,55,3,6,0,0,1,,3,S,0,S,15,0.01055,0.788804,0.008322
14,56,3,1,0,0,1,,2,S,0,S,20,0.786491,0.018017,0.01417
14,57,1,5,0,0,1,,4,S,0,S,16,0.037034,0.754439,0.02794
14,58,4,7,0,0,1,,3,S,0,S,18,0.010248,0.796187,0.00816
14,59,9,7,0,0,1,,2,S,0,S,23,0.776038,0.034028,0.026407
14,60,6,3,0,0,1,,3,S,0,S,25,0.753788,0.047221,0.035595
14,61,5,7,0,0,1,,2,S,0,S,20,0.040216,0.764164,0.030732
14,62,7,8,0,0,1,,1,S,0,S,24,0.020915,0.786569,0.016451
14,63,3,5,0,0,1,,2,S,0,S,16,0.01576,0.78417,0.012359
14,64,7,1,0,0,1,,6,S,0,S,14,0.761206,0.02229,0.016967
14,65,2,5,0,0,1,,3,S,0,S,19,0.040944,0.75718,0.031002
14,66,8,9,0,0,1,,1,S,0,S,27,0.027152,0.776225,0.021076
14,67,9,8,0,0,1,,1,S,0,S,23,0.792385,0.021149,0.016758
14,68,6,1,0,0,1,,5,S,0,S,16,0.799374,0.001813,0.00145
14,69,3,7,0,0,1,,4,S,0,S,14,0.031365,0.757872,0.023771
14,70,8,5,0,0,1,,3,S,0,S,17,0.750332,0.042181,0.03165
14,71,6,7,0,0,1,,1,S,0,S,17,0.012733,0.793048,0.010098
14,72,4,6,0,0,1,,2,S,0,S,19,0.023218,0.780448,0.018121
15,1,3,7,0,0,1,,4,S,0,S,18,0.033121,0.766838,0.025398
15,2,7,6,0,0,1,,1,S,0,S,24,0.774884,0.030445,0.023591
15,3,2,5,0,0,1,,3,S,0,S,17,0.005051,0.797827,0.00403
15,4,7,8,0,0,1,,1,S,0,S,22,0.035423,0.770306,0.027287
15,5,9,5,0,0,1,,4,S,0,S,18,0.762329,0.039095,0.029803
15,6,5,8,0,0,1,,3,S,0,S,19,0.026744,0.777832,0.020803
15,7,5,1,0,0,1,,4,S,0,S,15,0.763189,0.027709,0.021148
15,8,1,5,0,0,1,,4,S,0,S,16,0.004381,0.799764,0.003503
15,9,7,9,0,0,1,,2,S,0,S,21,0.028852,0.776541,0.022405
15,10,6,2,0,0,1,,4,S,0,S,16,0.758598,0.035167,0.026677
15,11,8,6,0,0,1,,2,S,0,S,20,0.762312,0.036439,0.027778
15,12,2,8,0,0,1,,6,S,0,S,15,0.03252,0.756316,0.024596
15,13,6,1,0,0,1,,5,S,0,S,15,0.775647,0.017452,0.013537
15,14,8,5,0,0,1,,3,S,0,S,19,0.784136,0.020136,0.015789
15,15,1,8,0,0,1,,7,L,0,S,15,0.005965,0.794142,0.004737
15,16,4,9,0,0,1,,5,S,0,S,16,0.031483,0.762045,0.023991
15,17,9,6,0,0,1,,3,S,0,S,20,0.796512,0.012076,0.009619
15,18,9,3,0,0,1,,6,S,0,S,16,0.776372,0.021814,0.016936
15,19,3,5,0,0,1,,2,S,0,S,22,0.021688,0.78836,0.017098
15,20,6,9,0,0,1,,3,S,0,S,20,0.012593,0.794567,0.010006
15,21,2,1,0,0,1,,1,S,0,S,19,0.776306,0.022314,0.017323
15,22,7,4,0,0,1,,3,S,0,S,20,0.783305,0.020165,0.015795
15,23,8,1,0,0,1,,7,L,0,S,14,0.753025,0.030205,0.022745
15,24,3,1,0,0,1,,2,S,0,S,16,0.795767,0.006156,0.004899
15,25,2,9,0,0,1,,7,L,0,S,15,0.027225,0.761986,0.020745
15,26,1,2,0,0,1,,1,S,0,S,19,0.041713,0.758013,0.031619
15,27,1,3,0,0,1,,2,S,0,S,18,0.010767,0.793678,0.008546
15,28,5,9,0,0,1,,4,S,0,S,18,0.045551,0.751195,0.034217
15,29,9,8,0,0,1,,1,S,0,S,24,0.780196,0.029106,0.022709
15,30,3,8,0,0,1,,5,S,0,S,18,0.019885,0.786254,0.015635
15,31,4,3,0,0,1,,1,S,0,S,27,0.763233,0.037754,0.028815
15,32,8,3,0,0,1,,5,S,0,S,16,0.761244,0.030907,0.023528
15,33,9,4,0,0,1,,5,S,0,S,18,0.780328,0.021298,0.016619
15,34,8,7,0,0,1,,1,S,0,S,25,0.793851,0.01291,0.010249
15,35,5,4,0,0,1,,1,S,0,S,25,0.793453,0.013561,0.01076
15,36,1,9,0,0,1,,8,L,0,S,15,0.001828,0.798316,0.001459
15,37,6,5,0,0,1,,1,S,0,S,23,0.760768,0.042347,0.032216
15,38,2,3,0,0,1,,1,S,0,S,20,0.017364,0.783978,0.013613
15,39,9,1,0,0,1,,8,L,0,S,14,0.763427,0.024787,0.018923
15,40,4,5,0,0,1,,1,S,0,S,18,0.03833,0.759634,0.029117
15,41,8,9,0,0,1,,1,S,0,S,29,0.022932,0.783561,0.017969
15,42,7,2,0,0,1,,5,S,0,S,16,0.780809,0.018786,0.014668
15,43,3,9,0,0,1,,6,S,0,S,17,0.043889,0.752522,0.033027
15,44,6,3,0,0,1,,3,S,0,S,18,0.797361,0.007077,0.005643
15,45,4,2,0,0,1,,2,S,0,S,20,0.774138,0.028117,0.021766
15,46,9,2,0,0,1,,7,L,0,S,15,0.765569,0.028544,0.021852
15,47,5,2,0,0,1,,3,S,0,S,17,0.786635,0.015971,0.012564
15,48,4,1,0,0,1,,3,S,0,S,17,0.785583,0.013715,0.010774
15,49,9,7,0,0,1,,2,S,0,S,23,0.786943,0.021041,0.016558
15,50,8,2,0,0,1,,6,S,0,S,15,0.752717,0.035843,0.026979
15,51,2,4,0,0,1,,2,S,0,S,17,0.023642,0.769909,0.018202
15,52,5,3,0,0,1,,2,S,0,S,18,0.766372,0.032328,0.024775
15,53,7,1,0,0,1,,6,S,0,S,15,0.790527,0.006847,0.005413
15,54,4,8,0,0,1,,4,S,0,S,16,0.03937,0.753154,0.029652
15,55,6,4,0,0,1,,2,S,0,S,21,0.752489,0.044214,0.033271
15,56,6,7,0,0,1,,1,S,0,S,21,0.027588,0.775125,0.021384
15,57,3,2,0,0,1,,1,S,0,S,17,0.754621,0.042352,0.03196
15,58,1,4,0,0,1,,3,S,0,S,16,0.018515,0.777654,0.014399
15,59,1,7,0,0,1,,6,S,0,S,15,0.01129,0.784812,0.00886
15,60,4,6,0,0,1,,2,S,0,S,18,0.010437,0.792421,0.00827
15,61,1,6,0,0,1,,5,S,0,S,15,0.028711,0.762751,0.021899
15,62,4,7,0,0,1,,3,S,0,S,17,0.012091,0.788002,0.009528
15,63,3,4,0,0,1,,1,S,0,S,25,0.025915,0.779627,0.020204
15,64,5,6,0,0,1,,1,S,0,S,22,0.04435,0.756036,0.03353
15,65,3,6,0,0,1,,3,S,0,S,20,0.023568,0.782015,0.018431
15,66,8,4,0,0,1,,4,S,0,S,18,0.757435,0.036471,0.027625
15,67,5,7,0,0,1,,2,S,0,S,19,0.044951,0.752023,0.033804
15,68,7,5,0,0,1,,2,S,0,S,21,0.788144,0.020589,0.016227
15,69,2,6,0,0,1,,4,S,0,S,16,0.025158,0.767244,0.019303
15,70,2,7,0,0,1,,5,S,0,S,16,0.003219,0.794958,0.002559
15,71,6,8,0,0,1,,2,S,0,S,20,0.037943,0.764133,0.028994
15,72,7,3,0,0,1,,4,S,0,S,17,0.779767,0.020503,0.015987
16,1,8,3,0,0,1,,5,S,0,S,14,0.757004,0.030964,0.02344
16,2,6,3,0,0,1,,3,S,0,S,19,0.760389,0.040774,0.031004
16,3,4,3,0,0,1,,1,S,0,S,22,0.766077,0.039147,0.029989
16,4,6,5,0,0,1,,1,S,0,S,28,0.785015,0.024447,0.019191
16,5,6,9,0,0,1,,3,S,0,S,16,0.022463,0.773401,0.017373
16,6,9,7,0,0,1,,2,S,0,S,16,0.777872,0.019817,0.015415
16,7,2,7,0,0,1,,5,S,0,S,17,0.02391,0.774539,0.018519
16,8,7,2,0,0,1,,5,S,0,S,15,0.79577,0.001893,0.001507
16,9,4,6,0,0,1,,2,S,0,S,22,0.016376,0.791629,0.012964
16,10,4,7,0,0,1,,3,S,0,S,21,0.03463,0.770071,0.026667
16,11,7,4,0,0,1,,3,S,0,S,18,0.795492,0.012028,0.009568
16,12,7,9,0,0,1,,2,S,0,S,22,0.012354,0.795283,0.009825
16,13,8,1,0,0,1,,7,L,0,S,13,0.80469,0,0
16,14,1,4,0,0,1,,3,S,0,S,15,0.029513,0.762397,0.022501
16,15,7,1,0,0,1,,6,S,0,S,13,0.780322,0.007112,0.005549
16,16,5,8,0,0,1,,3,S,0,S,16,0.040288,0.750561,0.030239
16,17,8,2,0,0,1,,6,S,0,S,14,0.786247,0.005462,0.004294
16,18,1,9,0,0,1,,8,L,0,S,14,0.010403,0.778697,0.008101
16,19,6,2,0,0,1,,4,S,0,S,17,0.783607,0.01598,0.012522
16,20,1,5,0,0,1,,4,S,0,S,16,0.021319,0.776208,0.016548
16,21,8,9,0,0,0,,1,S,0,S,20,0.780057,0.023152,0.01806
16,22,6,8,0,0,1,,2,S,0,S,17,0.013908,0.78709,0.010947
16,23,9,8,0,0,1,,1,S,0,S,21,0.76465,0.034866,0.026661
16,24,4,8,0,0,1,,4,S,0,S,16,0.021629,0.775269,0.016768
16,25,3,2,0,0,1,,1,S,0,S,24,0.791214,0.012446,0.009847
16,26,3,1,0,0,1,,2,S,0,S,15,0.761546,0.027684,0.021083
16,27,2,5,0,0,1,,3,S,0,S,17,0.028755,0.769092,0.022115
16,28,1,3,0,0,1,,2,S,0,S,17,0.032099,0.765517,0.024572
16,29,4,1,0,0,1,,3,S,0,S,14,0.76559,0.023653,0.018109
16,30,8,6,0,0,1,,2,S,0,S,15,0.770023,0.022909,0.017641
16,31,7,6,0,0,1,,1,S,0,S,17,0.795418,0.0082,0.006522
16,32,3,4,0,0,1,,1,S,0,S,16,0.034952,0.757898,0.02649
16,33,5,7,0,0,1,,2,S,0,S,25,0.027632,0.77976,0.021546
16,34,9,5,0,0,1,,4,S,0,S,16,0.784185,0.01539,0.012069
16,35,8,4,0,0,1,,4,S,0,S,16,0.79411,0.009102,0.007228
16,36,2,4,0,0,1,,2,S,0,S,16,0.026438,0.769698,0.02035
16,37,1,7,0,0,1,,6,S,0,S,16,0.018044,0.779702,0.014069
16,38,3,7,0,0,1,,4,S,0,S,17,0.035075,0.759404,0.026636
16,39,5,6,0,0,1,,1,S,0,S,26,0.047402,0.75337,0.035711
16,40,2,3,0,0,1,,1,S,0,S,19,0.031123,0.770012,0.023965
16,41,5,1,0,0,1,,4,S,0,S,14,0.775594,0.015393,0.011939
16,42,5,4,0,0,0,,1,S,0,S,20,0.02601,0.780339,0.020297
16,43,8,5,0,0,1,,3,S,0,S,15,0.775698,0.020296,0.015744
16,44,1,2,0,0,1,,1,S,0,S,21,0.02578,0.774664,0.019971
16,45,9,6,0,0,1,,3,S,0,S,16,0.777744,0.018588,0.014457
16,46,5,2,0,0,1,,3,S,0,S,17,0.769685,0.02688,0.020689
16,47,7,3,0,0,1,,4,S,0,S,15,0.753634,0.037844,0.028521
16,48,6,4,0,0,0,,2,S,0,S,21,0.021817,0.786528,0.01716
16,49,1,8,0,0,1,,7,L,0,S,14,0.022731,0.762656,0.017336
16,50,2,1,0,0,1,,1,S,0,S,15,0.756106,0.032568,0.024625
16,51,8,7,0,0,1,,1,S,0,S,15,0.770601,0.023749,0.018301
16,52,5,9,0,0,1,,4,S,0,S,16,0.014691,0.783245,0.011507
16,53,3,8,0,0,1,,5,S,0,S,15,0.013773,0.777851,0.010713
16,54,7,8,0,0,0,,1,S,0,S,32,0.781497,0.024939,0.01949
16,55,9,3,0,0,1,,6,S,0,S,15,0.775823,0.019202,0.014898
16,56,4,2,0,0,1,,2,S,0,S,18,0.786733,0.01566,0.01232
16,57,1,6,0,0,1,,5,S,0,S,16,0.022352,0.772496,0.017267
16,58,2,6,0,0,1,,4,S,0,S,17,0.02969,0.765422,0.022726
16,59,9,4,0,0,1,,5,S,0,S,17,0.79053,0.0129,0.010198
16,60,3,5,0,0,1,,2,S,0,S,17,0.040454,0.753256,0.030472
16,61,2,9,0,0,1,,7,L,0,S,14,0.029476,0.753288,0.022204
16,62,3,6,0,0,1,,3,S,0,S,18,0.00552,0.797098,0.0044
16,63,9,2,0,0,1,,7,L,0,S,14,0.760161,0.024331,0.018495
16,64,7,5,0,0,1,,2,S,0,S,16,0.753515,0.040877,0.030802
16,65,4,5,0,0,1,,1,S,0,S,22,0.018615,0.791402,0.014732
16,66,4,9,0,0,1,,5,S,0,S,15,0.035577,0.753459,0.026806
16,67,2,8,0,0,1,,6,S,0,S,15,0.008461,0.785565,0.006647
16,68,6,7,0,0,1,,1,S,0,S,36,0.035725,0.770575,0.027529
16,69,9,1,0,0,1,,8,L,0,S,13,0.78847,0,0
16,70,6,1,0,0,1,,5,S,0,S,14,0.780965,0.011313,0.008835
16,71,3,9,0,0,1,,6,S,0,S,15,0,0.797373,0
16,72,5,3,0,0,1,,2,S,0,S,20,0.773999,0.030852,0.023879
17,1,7,8,0,0,1,,1,S,0,S,21,0.027105,0.778058,0.02109
17,2,3,2,0,0,1,,1,S,0,S,31,0.786158,0.022093,0.017368
17,3,5,4,0,0,1,,1,S,0,S,20,0.776057,0.029631,0.022995
17,4,5,7,0,0,1,,2,S,0,S,16,0.027405,0.766644,0.02101
17,5,2,6,0,0,1,,4,S,0,S,16,0.029208,0.768648,0.022451
17,6,6,8,0,0,1,,2,S,0,S,18,0.01956,0.784575,0.015346
17,7,3,9,0,0,1,,6,S,0,S,14,0.031574,0.753265,0.023783
17,8,8,6,0,0,1,,2,S,0,S,17,0.752546,0.041127,0.03095
17,9,4,3,0,0,1,,1,S,0,S,16,0.799449,0.004835,0.003865
17,10,6,1,0,0,1,,5,S,0,S,16,0.79519,0.008887,0.007067
17,11,8,4,0,0,1,,4,S,0,S,15,0.769307,0.023568,0.018131
17,12,2,7,0,0,1,,5,S,0,S,15,0.010247,0.785837,0.008052
17,13,4,1,0,0,1,,3,S,0,S,14,0.769944,0.022272,0.017148
17,14,1,5,0,0,1,,4,S,0,S,14,0.024177,0.763169,0.018451
17,15,1,3,0,0,1,,2,S,0,S,18,0.042164,0.754579,0.031816
17,16,9,8,0,0,1,,1,S,0,S,20,0.750536,0.050307,0.037757
17,17,7,5,0,0,0,,2,S,0,S,18,0.025043,0.776935,0.019457
17,18,5,9,0,0,1,,4,S,0,S,16,0.016241,0.783206,0.01272
17,19,9,3,0,0,1,,6,S,0,S,15,0.765649,0.029225,0.022376
17,20,6,9,0,0,1,,3,S,0,S,16,0.038462,0.753954,0.028999
17,21,9,7,0,0,0,,2,S,0,S,38,0.04582,0.755493,0.034617
17,22,8,3,0,0,1,,5,S,0,S,15,0.768212,0.02445,0.018783
17,23,7,1,0,0,1,,6,S,0,S,15,0.785502,0.013142,0.010323
17,24,6,5,0,0,0,,1,S,0,S,16,0.03699,0.757393,0.028016
17,25,1,2,0,0,1,,1,S,0,S,24,0.034864,0.767954,0.026774
17,26,7,4,0,0,1,,3,S,0,S,17,0.789577,0.013767,0.01087
17,27,5,1,0,0,1,,4,S,0,S,16,0.771302,0.028412,0.021914
17,28,9,5,0,0,0,,4,S,0,S,24,0.047665,0.756383,0.036053
17,29,9,4,0,0,1,,5,S,0,S,15,0.766815,0.028283,0.021688
17,30,2,5,0,0,1,,3,S,0,S,15,0.00166,0.800403,0.001328
17,31,8,2,0,0,1,,6,S,0,S,14,0.75414,0.030639,0.023106
17,32,8,9,0,0,0,,1,S,0,S,36,0.758994,0.041788,0.031717
17,33,5,6,0,0,1,,1,S,0,S,19,0.023992,0.780961,0.018737
17,34,8,7,0,0,1,,1,S,0,S,25,0.774123,0.02702,0.020917
17,35,3,8,0,0,1,,5,S,0,S,15,0.019296,0.775758,0.014969
17,36,9,1,0,0,1,,8,L,0,S,14,0.78076,0.014631,0.011424
17,37,2,9,0,0,1,,7,L,0,S,15,0.002766,0.797594,0.002206
17,38,9,2,0,0,1,,7,L,0,S,14,0.753186,0.034071,0.025662
17,39,1,9,0,0,1,,8,L,0,S,14,0.02517,0.760433,0.01914
17,40,2,4,0,0,1,,2,S,0,S,20,0.050047,0.751356,0.037603
17,41,7,3,0,0,1,,4,S,0,S,17,0.787708,0.015284,0.012039
17,42,3,1,0,0,1,,2,S,0,S,20,0.772702,0.032443,0.025069
17,43,8,1,0,0,1,,7,L,0,S,14,0.780915,0.011926,0.009313
17,44,7,6,0,0,1,,1,S,0,S,24,0.792371,0.01635,0.012955
17,45,6,3,0,0,1,,3,S,0,S,19,0.795718,0.01225,0.009748
17,46,3,4,0,0,1,,1,S,0,S,19,0.038844,0.761731,0.029589
17,47,6,2,0,0,1,,4,S,0,S,17,0.795448,0.008844,0.007035
17,48,4,5,0,0,1,,1,S,0,S,21,0.047577,0.75371,0.035859
17,49,2,1,0,0,1,,1,S,0,S,19,0.788018,0.021126,0.016648
17,50,3,6,0,0,1,,3,S,0,S,16,0.016375,0.782704,0.012817
17,51,6,7,0,0,1,,1,S,0,S,17,0.015614,0.783535,0.012234
17,52,9,6,0,0,1,,3,S,0,S,18,0.789053,0.016956,0.013379
17,53,3,7,0,0,1,,4,S,0,S,15,0.002748,0.793314,0.00218
17,54,1,4,0,0,1,,3,S,0,S,18,0.044917,0.751032,0.033734
17,55,4,7,0,0,1,,3,S,0,S,23,0.047915,0.750212,0.035947
17,56,2,8,0,0,1,,6,S,0,S,15,0.028642,0.765983,0.021939
17,57,5,8,0,0,1,,3,S,0,S,17,0.02269,0.779411,0.017685
17,58,4,2,0,0,1,,2,S,0,S,15,0.792398,0.006815,0.0054
17,59,8,5,0,0,1,,3,S,0,S,37,0.777785,0.028106,0.021861
17,60,5,2,0,0,1,,3,S,0,S,17,0.76211,0.035903,0.027362
17,61,5,3,0,0,1,,2,S,0,S,20,0.77053,0.034085,0.026264
17,62,4,8,0,0,0,,4,S,0,S,23,0.791037,0.018691,0.014785
17,63,7,2,0,0,1,,5,S,0,S,16,0.798647,0.003726,0.002976
17,64,7,9,0,0,1,,2,S,0,S,18,0.026995,0.772894,0.020864
17,65,1,7,0,0,1,,6,S,0,S,15,0,0.800512,0
17,66,1,6,0,0,1,,5,S,0,S,16,0.005959,0.794718,0.004736
17,67,4,6,0,0,0,,2,S,0,S,18,0.75269,0.044952,0.033835
17,68,3,5,0,0,1,,2,S,0,S,14,0.030575,0.756023,0.023116
17,69,6,4,0,0,1,,2,S,0,S,18,0.751615,0.046015,0.034585
17,70,4,9,0,0,1,,5,S,0,S,22,0.014161,0.794471,0.01125
17,71,1,8,0,0,1,,7,L,0,S,15,0.01141,0.784683,0.008953
17,72,2,3,0,0,1,,1,S,0,S,20,0.044763,0.758054,0.033933
18,1,1,3,0,0,1,,2,S,0,S,20,0.011577,0.79529,0.009207
18,2,3,4,0,0,1,,1,S,0,S,21,0.049456,0.753012,0.037241
18,3,8,2,0,0,1,,6,S,0,S,13,0.772108,0.01331,0.010277
18,4,8,3,0,0,1,,5,S,0,S,13,0.753417,0.02631,0.019822
18,5,1,5,0,0,1,,4,S,0,S,17,0.011717,0.789915,0.009255
18,6,3,8,0,0,1,,5,S,0,S,15,0.018154,0.778665,0.014136
18,7,9,7,0,0,1,,2,S,0,S,22,0.773534,0.027603,0.021352
18,8,7,1,0,0,1,,6,S,0,S,15,0.759684,0.029989,0.022782
18,9,1,2,0,0,1,,1,S,0,S,25,0.014874,0.795489,0.011832
18,10,5,6,0,0,1,,1,S,0,S,20,0.043822,0.754781,0.033076
18,11,6,3,0,0,1,,3,S,0,S,17,0.787099,0.012865,0.010126
18,12,9,2,0,0,1,,7,L,0,S,14,0.764191,0.022546,0.017229
18,13,1,9,0,0,1,,8,L,0,S,13,0.024465,0.757208,0.018525
18,14,3,6,0,0,1,,3,S,0,S,18,0.031724,0.770749,0.024451
18,15,1,7,0,0,1,,6,S,0,S,14,0.028479,0.757576,0.021575
18,16,5,8,0,0,1,,3,S,0,S,16,0.007684,0.792449,0.006089
18,17,8,7,0,0,1,,1,S,0,S,16,0.773674,0.022563,0.017457
18,18,8,4,0,0,1,,4,S,0,S,14,0.780584,0.011938,0.009319
18,19,9,1,0,0,1,,8,L,0,S,14,0.778046,0.011464,0.00892
18,20,1,6,0,0,1,,5,S,0,S,16,0.011938,0.788757,0.009416
18,21,8,5,0,0,1,,3,S,0,S,14,0.771741,0.016972,0.013098
18,22,5,7,0,0,1,,2,S,0,S,16,0.035038,0.756746,0.026515
18,23,6,8,0,0,1,,2,S,0,S,17,0.016514,0.783174,0.012933
18,24,1,8,0,0,1,,7,L,0,S,14,0.01363,0.777622,0.010599
18,25,6,9,0,0,1,,3,S,0,S,15,0.031821,0.757555,0.024106
18,26,8,1,0,0,1,,7,L,0,S,13,0.7814,0.005831,0.004556
18,27,5,2,0,0,1,,3,S,0,S,17,0.776808,0.022913,0.017799
18,28,2,5,0,0,1,,3,S,0,S,18,0.011637,0.78986,0.009192
18,29,5,4,0,0,1,,1,S,0,S,26,0.789486,0.018944,0.014956
18,30,2,3,0,0,1,,1,S,0,S,23,0.013493,0.792554,0.010694
18,31,7,9,0,0,1,,2,S,0,S,15,0.032331,0.756793,0.024468
18,32,6,7,0,0,1,,1,S,0,S,18,0.02231,0.77709,0.017337
18,33,4,1,0,0,1,,3,S,0,S,18,0.755988,0.041911,0.031684
18,34,2,6,0,0,1,,4,S,0,S,16,0.038064,0.753288,0.028673
18,35,8,6,0,0,1,,2,S,0,S,14,0.751879,0.033519,0.025202
18,36,9,4,0,0,1,,5,S,0,S,16,0.79293,0.006922,0.005488
18,37,3,2,0,0,1,,1,S,0,S,18,0.772559,0.030683,0.023705
18,38,7,4,0,0,1,,3,S,0,S,19,0.775377,0.026387,0.02046
18,39,4,2,0,0,1,,2,S,0,S,20,0.773125,0.031142,0.024077
18,40,4,6,0,0,1,,2,S,0,S,17,0.025027,0.775398,0.019406
18,41,3,9,0,0,1,,6,S,0,S,14,0.019502,0.772345,0.015063
18,42,3,5,0,0,1,,2,S,0,S,21,0.018215,0.789388,0.014378
18,43,7,6,0,0,1,,1,S,0,S,24,0.753007,0.046465,0.034988
18,44,9,5,0,0,1,,4,S,0,S,16,0.779631,0.015432,0.012031
18,45,4,9,0,0,1,,5,S,0,S,14,0.007166,0.786859,0.005639
18,46,5,3,0,0,1,,2,S,0,S,18,0.750925,0.043583,0.032728
18,47,4,8,0,0,1,,4,S,0,S,15,0.001662,0.798258,0.001326
18,48,5,1,0,0,1,,4,S,0,S,16,0.761531,0.032159,0.02449
18,49,2,9,0,0,1,,7,L,0,S,14,0,0.794482,0
18,50,2,7,0,0,1,,5,S,0,S,15,0.008254,0.786709,0.006494
18,51,6,5,0,0,1,,1,S,0,S,20,0.788413,0.014878,0.01173
18,52,6,2,0,0,1,,4,S,0,S,16,0.785919,0.01301,0.010225
18,53,4,7,0,0,1,,3,S,0,S,15,0.020192,0.773786,0.015625
18,54,7,2,0,0,1,,5,S,0,S,16,0.786334,0.012606,0.009912
18,55,6,1,0,0,1,,5,S,0,S,15,0.759338,0.030335,0.023034
18,56,7,3,0,0,1,,4,S,0,S,17,0.787698,0.012312,0.009698
18,57,3,7,0,0,1,,4,S,0,S,16,0.003911,0.799726,0.003128
18,58,2,4,0,0,1,,2,S,0,S,18,0.020733,0.78096,0.016191
18,59,2,1,0,0,1,,1,S,0,S,20,0.773681,0.027953,0.021627
18,60,7,5,0,0,1,,2,S,0,S,20,0.790112,0.013433,0.010614
18,61,8,9,0,0,0,,1,S,0,S,20,0.786943,0.018972,0.01493
18,62,3,1,0,0,1,,2,S,0,S,17,0.771806,0.029017,0.022396
18,63,4,5,0,0,1,,1,S,0,S,19,0.011299,0.794365,0.008976
18,64,6,4,0,0,1,,2,S,0,S,19,0.773926,0.027626,0.021381
18,65,4,3,0,0,1,,1,S,0,S,29,0.760814,0.042159,0.032075
18,66,9,3,0,0,1,,6,S,0,S,15,0.788164,0.006549,0.005162
18,67,9,8,0,0,0,,1,S,0,S,27,0.018404,0.787197,0.014487
18,68,7,8,0,0,1,,1,S,0,S,17,0.017308,0.782065,0.013536
18,69,9,6,0,0,1,,3,S,0,S,17,0.788598,0.011888,0.009374
18,70,1,4,0,0,1,,3,S,0,S,17,0.018179,0.784246,0.014257
18,71,2,8,0,0,1,,6,S,0,S,14,0.027384,0.757725,0.02075
18,72,5,9,0,0,1,,4,S,0,S,15,0.002131,0.796486,0.001698
19,1,5,7,0,0,1,,2,S,0,S,18,0.034189,0.765452,0.02617
19,2,1,8,0,0,1,,7,L,0,S,14,0.02085,0.771522,0.016087
19,3,9,1,0,0,1,,8,L,0,S,15,0.793971,0.004937,0.00392
19,4,8,3,0,0,1,,5,S,0,S,14,0.7922,0.002432,0.001927
19,5,8,1,0,0,1,,7,L,0,S,14,0.782046,0.010002,0.007822
19,6,4,5,0,0,0,,1,S,0,S,21,0.75953,0.0427,0.032432
19,7,3,5,0,0,1,,2,S,0,S,17,0.012635,0.792949,0.010019
19,8,6,8,0,0,1,,2,S,0,S,17,0.007741,0.797887,0.006177
19,9,3,9,0,0,1,,6,S,0,S,14,0.01906,0.768672,0.014651
19,10,1,2,0,0,1,,1,S,0,S,19,0.026419,0.780535,0.020621
19,11,2,4,0,0,1,,2,S,0,S,21,0.038938,0.764797,0.02978
19,12,2,3,0,0,0,,1,S,0,S,21,0.751562,0.049873,0.037483
19,13,8,7,0,0,1,,1,S,0,S,21,0.776427,0.026199,0.020341
19,14,9,4,0,0,1,,5,S,0,S,15,0.766733,0.026081,0.019997
19,15,4,9,0,0,1,,5,S,0,S,16,0.037311,0.752312,0.028069
19,16,3,8,0,0,1,,5,S,0,S,15,0.017144,0.780455,0.01338
19,17,1,4,0,0,1,,3,S,0,S,18,0.029944,0.772151,0.023121
19,18,5,3,0,0,1,,2,S,0,S,15,0.78428,0.014147,0.011095
19,19,9,6,0,0,1,,3,S,0,S,26,0.765066,0.040296,0.030829
19,20,1,7,0,0,1,,6,S,0,S,14,0.007925,0.785153,0.006222
19,21,4,3,0,0,1,,1,S,0,S,15,0.762527,0.029021,0.022129
19,22,8,6,0,0,1,,2,S,0,S,18,0.771249,0.030138,0.023244
19,23,9,2,0,0,1,,7,L,0,S,15,0.785563,0.013092,0.010284
19,24,9,8,0,0,1,,1,S,0,S,33,0.791674,0.019459,0.015405
19,25,3,6,0,0,1,,3,S,0,S,15,0.020769,0.775613,0.016109
19,26,6,1,0,0,1,,5,S,0,S,17,0.772268,0.026718,0.020633
19,27,7,5,0,0,1,,2,S,0,S,22,0.750576,0.051651,0.038768
19,28,8,4,0,0,1,,4,S,0,S,14,0.761498,0.025716,0.019583
19,29,4,8,0,0,1,,4,S,0,S,19,0.025014,0.779287,0.019493
19,30,1,5,0,0,1,,4,S,0,S,15,0.03211,0.76247,0.024483
19,31,6,7,0,0,1,,1,S,0,S,16,0.015383,0.782182,0.012032
19,32,7,2,0,0,1,,5,S,0,S,16,0.775407,0.024438,0.018949
19,33,2,7,0,0,1,,5,S,0,S,14,0.027521,0.759823,0.020911
19,34,9,3,0,0,1,,6,S,0,S,14,0.755537,0.031119,0.023512
19,35,7,9,0,0,1,,2,S,0,S,16,0.027868,0.76592,0.021345
19,36,7,1,0,0,1,,6,S,0,S,16,0.789285,0.01184,0.009345
19,37,2,1,0,0,1,,1,S,0,S,26,0.778967,0.029318,0.022838
19,38,5,8,0,0,1,,3,S,0,S,20,0.039869,0.764806,0.030492
19,39,5,9,0,0,1,,4,S,0,S,17,0.019688,0.780438,0.015366
19,40,5,4,0,0,1,,1,S,0,S,16,0.78521,0.015983,0.01255
19,41,1,9,0,0,1,,8,L,0,S,14,0,0.801311,0
19,42,7,8,0,0,1,,1,S,0,S,18,0.04201,0.757769,0.031834
19,43,5,6,0,0,1,,1,S,0,S,21,0.024179,0.785081,0.018982
19,44,2,6,0,0,1,,4,S,0,S,15,0.010416,0.789897,0.008228
19,45,2,9,0,0,1,,7,L,0,S,14,0.011581,0.779448,0.009027
19,46,3,4,0,0,1,,1,S,0,S,24,0.035601,0.769335,0.027389
19,47,3,7,0,0,1,,4,S,0,S,15,0.000219,0.798928,0.000175
19,48,6,3,0,0,1,,3,S,0,S,16,0.750173,0.042054,0.031548
19,49,2,8,0,0,1,,6,S,0,S,15,0.007098,0.79432,0.005638
19,50,4,7,0,0,1,,3,S,0,S,18,0.006399,0.79762,0.005104
19,51,3,1,0,0,1,,2,S,0,S,22,0.775505,0.030041,0.023297
19,52,4,2,0,0,1,,2,S,0,S,16,0.782001,0.01813,0.014178
19,53,7,4,0,0,1,,3,S,0,S,17,0.79694,0.007831,0.006241
19,54,4,6,0,0,1,,2,S,0,S,19,0.038269,0.762402,0.029176
19,55,6,9,0,0,1,,3,S,0,S,15,0.025681,0.764097,0.019623
19,56,3,2,0,0,1,,1,S,0,S,27,0.795015,0.017376,0.013814
19,57,8,2,0,0,1,,6,S,0,S,14,0.776213,0.016019,0.012434
19,58,8,5,0,0,1,,3,S,0,S,16,0.789479,0.012242,0.009665
19,59,6,4,0,0,1,,2,S,0,S,18,0.752555,0.043869,0.033014
19,60,1,6,0,0,1,,5,S,0,S,14,0.023588,0.767783,0.018111
19,61,8,9,0,0,1,,1,S,0,S,28,0.038661,0.761661,0.029446
19,62,4,1,0,0,1,,3,S,0,S,16,0.794771,0.006419,0.005102
19,63,6,5,0,0,0,,1,S,0,S,21,0.020478,0.787855,0.016134
19,64,9,7,0,0,0,,2,S,0,S,21,0.022569,0.781698,0.017642
19,65,2,5,0,0,1,,3,S,0,S,16,0.031885,0.766864,0.024451
19,66,5,1,0,0,1,,4,S,0,S,15,0.768635,0.026088,0.020052
19,67,6,2,0,0,1,,4,S,0,S,18,0.79632,0.010994,0.008755
19,68,7,6,0,0,0,,1,S,0,S,19,0.016748,0.790896,0.013246
19,69,1,3,0,0,1,,2,S,0,S,23,0.016795,0.793832,0.013333
19,70,5,2,0,0,1,,3,S,0,S,15,0.757329,0.036541,0.027673
19,71,7,3,0,0,1,,4,S,0,S,15,0.757592,0.03395,0.02572
19,72,9,5,0,0,1,,4,S,0,S,17,0.750252,0.045936,0.034464
20,1,1,6,0,0,1,,5,S,0,S,15,0.024917,0.765097,0.019064
20,2,2,7,0,0,1,,5,S,0,S,16,0.031113,0.761506,0.023693
20,3,5,7,0,0,0,,2,S,0,S,26,0.750832,0.048979,0.036775
20,4,7,4,0,0,1,,3,S,0,S,16,0.76778,0.02597,0.019939
20,5,8,7,0,0,0,,1,S,0,S,41,0.04229,0.762855,0.032261
20,6,8,2,0,0,1,,6,S,0,S,16,0.76832,0.028721,0.022067
20,7,3,9,0,0,1,,6,S,0,S,14,0.017649,0.770717,0.013603
20,8,8,9,0,0,1,,1,S,0,S,15,0.034256,0.755841,0.025892
20,9,4,8,0,0,1,,4,S,0,S,15,0.033593,0.754441,0.025344
20,10,9,4,0,0,1,,5,S,0,S,16,0.771107,0.023525,0.018141
20,11,4,2,0,0,1,,2,S,0,S,19,0.795158,0.009627,0.007655
20,12,1,8,0,0,1,,7,L,0,S,14,0.01297,0.777607,0.010085
20,13,7,8,0,0,1,,1,S,0,S,19,0.032943,0.767757,0.025292
20,14,7,1,0,0,1,,6,S,0,S,14,0.757724,0.030575,0.023168
20,15,5,1,0,0,1,,4,S,0,S,15,0.771773,0.022826,0.017617
20,16,1,3,0,0,1,,2,S,0,S,17,0.028017,0.770784,0.021595
20,17,8,6,0,0,0,,2,S,0,S,23,0.015041,0.79277,0.011924
20,18,8,1,0,0,1,,7,L,0,S,15,0.771286,0.025211,0.019445
20,19,1,4,0,0,1,,3,S,0,S,18,0.01534,0.785399,0.012048
20,20,5,8,0,0,1,,3,S,0,S,17,0.026222,0.771392,0.020227
20,21,8,5,0,0,1,,3,S,0,S,18,0.754948,0.044751,0.033785
20,22,2,6,0,0,1,,4,S,0,S,16,0.016236,0.778274,0.012636
20,23,6,5,0,0,1,,1,S,0,S,19,0.762553,0.037701,0.028749
20,24,9,8,0,0,0,,1,S,0,S,19,0.038902,0.760444,0.029583
20,25,4,3,0,0,1,,1,S,0,S,29,0.775889,0.02916,0.022625
20,26,1,9,0,0,1,,8,L,0,S,13,0.025761,0.753035,0.019399
20,27,4,1,0,0,1,,3,S,0,S,17,0.792648,0.0108,0.00856
20,28,1,2,0,0,1,,1,S,0,S,20,0.045017,0.753322,0.033912
20,29,9,5,0,0,1,,4,S,0,S,16,0.755975,0.038723,0.029274
20,30,6,7,0,0,1,,1,S,0,S,24,0.043845,0.756653,0.033175
20,31,4,6,0,0,1,,2,S,0,S,18,0.016128,0.783239,0.012632
20,32,9,3,0,0,1,,6,S,0,S,16,0.761329,0.033829,0.025755
20,33,3,8,0,0,1,,5,S,0,S,15,0.012403,0.78357,0.009718
20,34,7,9,0,0,1,,2,S,0,S,17,0.011106,0.790392,0.008778
20,35,9,6,0,0,1,,3,S,0,S,20,0.754596,0.042774,0.032277
20,36,9,7,0,0,1,,2,S,0,S,19,0.780571,0.023171,0.018087
20,37,5,3,0,0,1,,2,S,0,S,18,0.774023,0.026703,0.020668
20,38,5,4,0,0,1,,1,S,0,S,18,0.792947,0.008927,0.007078
20,39,6,8,0,0,1,,2,S,0,S,17,0.006023,0.796838,0.0048
20,40,2,8,0,0,1,,6,S,0,S,14,0.030475,0.753198,0.022953
20,41,7,5,0,0,1,,2,S,0,S,16,0.752129,0.041573,0.031269
20,42,8,3,0,0,1,,5,S,0,S,18,0.766406,0.034941,0.026779
20,43,7,6,0,0,1,,1,S,0,S,21,0.788999,0.015901,0.012545
20,44,3,5,0,0,1,,2,S,0,S,21,0.017017,0.791642,0.013472
20,45,7,2,0,0,1,,5,S,0,S,15,0.769602,0.023577,0.018145
20,46,6,3,0,0,1,,3,S,0,S,19,0.776793,0.025642,0.019919
20,47,2,5,0,0,1,,3,S,0,S,18,0.037432,0.760202,0.028456
20,48,4,5,0,0,1,,1,S,0,S,30,0.025706,0.781228,0.020083
20,49,5,9,0,0,1,,4,S,0,S,16,0.005234,0.794124,0.004157
20,50,2,9,0,0,1,,7,L,0,S,14,0.004054,0.786563,0.003189
20,51,7,3,0,0,1,,4,S,0,S,16,0.757651,0.036549,0.027692
20,52,1,7,0,0,1,,6,S,0,S,15,0.036615,0.752238,0.027543
20,53,9,2,0,0,1,,7,L,0,S,15,0.772114,0.021771,0.01681
20,54,3,7,0,0,1,,4,S,0,S,17,0.031966,0.765384,0.024466
20,55,9,1,0,0,1,,8,L,0,S,14,0.75976,0.02915,0.022147
20,56,6,4,0,0,1,,2,S,0,S,18,0.756412,0.037673,0.028496
20,57,4,7,0,0,1,,3,S,0,S,19,0.01008,0.794665,0.00801
20,58,8,4,0,0,1,,4,S,0,S,18,0.787859,0.015134,0.011923
20,59,2,3,0,0,1,,1,S,0,S,19,0.013149,0.791413,0.010406
20,60,2,1,0,0,1,,1,S,0,S,20,0.795723,0.011826,0.00941
20,61,3,1,0,0,1,,2,S,0,S,18,0.795642,0.011482,0.009135
20,62,5,6,0,0,1,,1,S,0,S,24,0.036081,0.76396,0.027565
20,63,1,5,0,0,1,,4,S,0,S,17,0.020218,0.78156,0.015802
20,64,3,6,0,0,1,,3,S,0,S,17,0.011516,0.788982,0.009086
20,65,6,9,0,0,1,,3,S,0,S,15,0.028234,0.760868,0.021482
20,66,3,4,0,0,1,,1,S,0,S,24,0.034136,0.767152,0.026188
20,67,4,9,0,0,1,,5,S,0,S,15,0,0.799312,0
20,68,6,1,0,0,1,,5,S,0,S,15,0.755248,0.035568,0.026863
20,69,3,2,0,0,1,,1,S,0,S,21,0.793202,0.014264,0.011314
20,70,5,2,0,0,1,,3,S,0,S,16,0.770256,0.025114,0.019344
20,71,6,2,0,0,1,,4,S,0,S,17,0.796033,0.006847,0.00545
20,72,2,4,0,0,1,,2,S,0,S,20,0.014628,0.787099,0.011514
21,1,8,1,0,0,1,,7,L,0,S,14,0.761394,0.025215,0.019199
21,2,8,4,0,0,0,,4,S,0,S,24,0.049351,0.754741,0.037247
21,3,8,9,0,0,1,,1,S,0,S,16,0.025359,0.773872,0.019625
21,4,2,5,0,0,1,,3,S,0,S,15,0.021667,0.770261,0.016689
21,5,5,9,0,0,1,,4,S,0,S,18,0.045008,0.751513,0.033824
21,6,4,9,0,0,1,,5,S,0,S,15,0.035602,0.757838,0.026981
21,7,8,3,0,0,1,,5,S,0,S,15,0.755612,0.03634,0.027459
21,8,9,4,0,0,1,,5,S,0,S,17,0.78989,0.012262,0.009686
21,9,5,2,0,0,1,,3,S,0,S,13,0.763864,0.018286,0.013968
21,10,3,4,0,0,1,,1,S,0,S,23,0.051462,0.750775,0.038636
21,11,9,8,0,0,1,,1,S,0,S,27,0.785029,0.020981,0.01647
21,12,7,8,0,0,1,,1,S,0,S,25,0.027854,0.777126,0.021646
21,13,6,7,0,0,1,,1,S,0,S,19,0.04869,0.7507,0.036551
21,14,1,2,0,0,1,,1,S,0,S,19,0.023499,0.778793,0.018301
21,15,5,3,0,0,1,,2,S,0,S,14,0.753407,0.032193,0.024254
21,16,7,1,0,0,1,,6,S,0,S,13,0.758507,0.02032,0.015413
21,17,6,3,0,0,1,,3,S,0,S,15,0.788097,0.011906,0.009383
21,18,2,3,0,0,1,,1,S,0,S,22,0.031084,0.773085,0.024031
21,19,7,2,0,0,1,,5,S,0,S,13,0.778766,0.006681,0.005203
21,20,7,6,0,0,1,,1,S,0,S,21,0.790008,0.015438,0.012196
21,21,9,6,0,0,1,,3,S,0,S,19,0.754928,0.04098,0.030937
21,22,5,7,0,0,1,,2,S,0,S,24,0.037637,0.764368,0.028768
21,23,7,4,0,0,1,,3,S,0,S,17,0.767772,0.030443,0.023373
21,24,5,4,0,0,1,,1,S,0,S,19,0.784504,0.020522,0.0161
21,25,4,1,0,0,1,,3,S,0,S,15,0.793904,0.00455,0.003612
21,26,3,2,0,0,1,,1,S,0,S,14,0.785458,0.007868,0.00618
21,27,2,7,0,0,1,,5,S,0,S,14,0.016258,0.772896,0.012566
21,28,2,9,0,0,1,,7,L,0,S,14,0,0.802485,0
21,29,2,6,0,0,1,,4,S,0,S,14,0.020334,0.767538,0.015607
21,30,6,8,0,0,1,,2,S,0,S,18,0.011512,0.796579,0.00917
21,31,9,2,0,0,1,,7,L,0,S,13,0.78354,0.002499,0.001958
21,32,8,6,0,0,0,,2,S,0,S,18,0.029645,0.771757,0.022879
21,33,2,4,0,0,1,,2,S,0,S,15,0.015283,0.781025,0.011936
21,34,4,5,0,0,1,,1,S,0,S,20,0.04868,0.751127,0.036565
21,35,8,7,0,0,0,,1,S,0,S,18,0.015039,0.790166,0.011883
21,36,1,6,0,0,1,,5,S,0,S,13,7.2E-05,0.787887,5.7E-05
21,37,1,4,0,0,1,,3,S,0,S,13,0.017359,0.766927,0.013313
21,38,6,5,0,0,1,,1,S,0,S,21,0.786629,0.021281,0.01674
21,39,9,7,0,0,1,,2,S,0,S,20,0.771162,0.029103,0.022443
21,40,5,6,0,0,1,,1,S,0,S,29,0.020301,0.786717,0.015971
21,41,7,3,0,0,1,,4,S,0,S,14,0.776307,0.014242,0.011056
21,42,1,9,0,0,1,,8,L,0,S,12,0.019709,0.754517,0.014871
21,43,1,8,0,0,1,,7,L,0,S,13,0,0.804367,0
21,44,4,3,0,0,1,,1,S,0,S,16,0.775602,0.024508,0.019008
21,45,5,1,0,0,1,,4,S,0,S,14,0.794794,0,0
21,46,2,8,0,0,1,,6,S,0,S,14,0.000909,0.793565,0.000722
21,47,6,4,0,0,1,,2,S,0,S,21,0.755227,0.048701,0.036781
21,48,3,1,0,0,1,,2,S,0,S,14,0.757728,0.027423,0.020779
21,49,9,3,0,0,1,,6,S,0,S,14,0.783693,0.007942,0.006224
21,50,6,2,0,0,1,,4,S,0,S,13,0.754427,0.02792,0.021063
21,51,1,5,0,0,1,,4,S,0,S,13,0.020983,0.75976,0.015942
21,52,7,9,0,0,1,,2,S,0,S,22,0.01597,0.791744,0.012644
21,53,7,5,0,0,1,,2,S,0,S,17,0.772662,0.024453,0.018894
21,54,9,1,0,0,1,,8,L,0,S,13,0.764038,0.015568,0.011895
21,55,8,5,0,0,0,,3,S,0,S,29,0.015917,0.794242,0.012642
21,56,4,7,0,0,1,,3,S,0,S,17,0.010389,0.794937,0.008259
21,57,4,8,0,0,1,,4,S,0,S,16,0.011903,0.791044,0.009416
21,58,5,8,0,0,1,,3,S,0,S,19,0.044677,0.752663,0.033627
21,59,3,7,0,0,1,,4,S,0,S,18,0.010818,0.794625,0.008596
21,60,4,2,0,0,1,,2,S,0,S,14,0.772936,0.018786,0.014521
21,61,1,7,0,0,1,,6,S,0,S,13,0,0.791147,0
21,62,4,6,0,0,1,,2,S,0,S,17,0.020635,0.781994,0.016136
21,63,3,5,0,0,1,,2,S,0,S,26,0.037644,0.766028,0.028837
21,64,8,2,0,0,1,,6,S,0,S,14,0.788661,0.005966,0.004705
21,65,6,1,0,0,1,,5,S,0,S,14,0.784035,0.008694,0.006817
21,66,6,9,0,0,1,,3,S,0,S,17,0.025606,0.777658,0.019912
21,67,3,8,0,0,1,,5,S,0,S,16,0.038629,0.755248,0.029175
21,68,3,6,0,0,1,,3,S,0,S,18,0.024737,0.777094,0.019223
21,69,1,3,0,0,1,,2,S,0,S,15,0.025399,0.767399,0.019491
21,70,9,5,0,0,1,,4,S,0,S,17,0.79321,0.007544,0.005984
21,71,3,9,0,0,1,,6,S,0,S,16,0.022912,0.776172,0.017784
21,72,2,1,0,0,1,,1,S,0,S,19,0.780912,0.019667,0.015359
22,1,2,8,0,0,1,,6,S,0,S,14,0.02182,0.767411,0.016745
22,2,3,6,0,0,1,,3,S,0,S,16,0.018374,0.782716,0.014382
22,3,1,2,0,0,1,,1,S,0,S,18,0.034161,0.76242,0.026045
22,4,4,7,0,0,1,,3,S,0,S,15,0.022835,0.767465,0.017525
22,5,4,1,0,0,1,,3,S,0,S,15,0.784707,0.009735,0.007639
22,6,7,5,0,0,1,,2,S,0,S,16,0.768926,0.027245,0.020949
22,7,3,2,0,0,1,,1,S,0,S,21,0.770755,0.032355,0.024938
22,8,5,7,0,0,1,,2,S,0,S,18,0.040019,0.757704,0.030322
22,9,7,1,0,0,1,,6,S,0,S,13,0.763785,0.017802,0.013597
22,10,1,9,0,0,1,,8,L,0,S,13,0.014939,0.766697,0.011454
22,11,9,1,0,0,1,,8,L,0,S,13,0.787562,0,0
22,12,1,5,0,0,1,,4,S,0,S,16,0.0293,0.765596,0.022432
22,13,3,9,0,0,1,,6,S,0,S,14,0.0156,0.774342,0.01208
22,14,6,9,0,0,1,,3,S,0,S,18,0.016559,0.786435,0.013023
22,15,2,3,0,0,1,,1,S,0,S,22,0.023594,0.783943,0.018496
22,16,3,8,0,0,1,,5,S,0,S,14,0.02897,0.759259,0.021995
22,17,2,4,0,0,1,,2,S,0,S,16,0.009974,0.791751,0.007897
22,18,6,4,0,0,1,,2,S,0,S,19,0.767533,0.035352,0.027134
22,19,2,5,0,0,1,,3,S,0,S,20,0.013672,0.793907,0.010855
22,20,5,4,0,0,1,,1,S,0,S,31,0.761684,0.044646,0.034006
22,21,7,3,0,0,1,,4,S,0,S,16,0.794732,0.007595,0.006036
22,22,4,5,0,0,1,,1,S,0,S,23,0.047289,0.752536,0.035587
22,23,5,9,0,0,1,,4,S,0,S,16,0.029558,0.766001,0.022642
22,24,2,1,0,0,1,,1,S,0,S,15,0.762516,0.027855,0.02124
22,25,1,7,0,0,1,,6,S,0,S,14,0.001405,0.790752,0.001111
22,26,9,8,0,0,0,,1,S,0,S,25,0.045304,0.755486,0.034227
22,27,8,1,0,0,1,,7,L,0,S,13,0.776402,0.007774,0.006036
22,28,4,6,0,0,1,,2,S,0,S,16,0.034027,0.760326,0.025871
22,29,7,9,0,0,1,,2,S,0,S,17,0.022312,0.775488,0.017303
22,30,3,5,0,0,1,,2,S,0,S,21,0.029842,0.775917,0.023155
22,31,9,2,0,0,1,,7,L,0,S,14,0.76472,0.021519,0.016456
22,32,5,2,0,0,1,,3,S,0,S,15,0.755918,0.034876,0.026364
22,33,9,6,0,0,1,,3,S,0,S,17,0.751581,0.043013,0.032328
22,34,1,6,0,0,1,,5,S,0,S,14,0.026969,0.760674,0.020515
22,35,2,6,0,0,1,,4,S,0,S,16,0.006245,0.7969,0.004977
22,36,6,1,0,0,1,,5,S,0,S,13,0.776152,0.009534,0.0074
22,37,8,9,0,0,1,,1,S,0,S,18,0.035417,0.760099,0.02692
22,38,9,5,0,0,1,,4,S,0,S,15,0.778689,0.015893,0.012376
22,39,6,3,0,0,1,,3,S,0,S,15,0.770147,0.025188,0.019398
22,40,4,8,0,0,1,,4,S,0,S,15,0.00217,0.796471,0.001728
22,41,1,4,0,0,1,,3,S,0,S,14,0.029393,0.757093,0.022253
22,42,6,5,0,0,1,,1,S,0,S,16,0.797879,0.0057,0.004548
22,43,8,4,0,0,1,,4,S,0,S,19,0.788687,0.016488,0.013004
22,44,7,6,0,0,1,,1,S,0,S,22,0.774959,0.030659,0.023759
22,45,9,4,0,0,1,,5,S,0,S,17,0.758198,0.037462,0.028404
22,46,5,3,0,0,1,,2,S,0,S,16,0.772677,0.026916,0.020797
22,47,1,8,0,0,1,,7,L,0,S,13,0.024097,0.756775,0.018236
22,48,7,4,0,0,1,,3,S,0,S,21,0.754946,0.045693,0.034495
22,49,3,7,0,0,1,,4,S,0,S,15,0.012027,0.783768,0.009426
22,50,4,2,0,0,1,,2,S,0,S,20,0.780006,0.022183,0.017303
22,51,9,7,0,0,1,,2,S,0,S,22,0.766974,0.033023,0.025328
22,52,6,7,0,0,1,,1,S,0,S,23,0.028424,0.776179,0.022062
22,53,9,3,0,0,1,,6,S,0,S,15,0.796653,0.002503,0.001994
22,54,4,9,0,0,1,,5,S,0,S,14,0.023811,0.761317,0.018128
22,55,5,6,0,0,1,,1,S,0,S,29,0.029201,0.781237,0.022813
22,56,6,2,0,0,1,,4,S,0,S,15,0.794091,0.004505,0.003577
22,57,3,4,0,0,1,,1,S,0,S,16,0.022547,0.776983,0.017519
22,58,5,8,0,0,1,,3,S,0,S,17,0.024767,0.77744,0.019255
22,59,4,3,0,0,1,,1,S,0,S,26,0.775425,0.030433,0.023598
22,60,6,8,0,0,1,,2,S,0,S,19,0.038339,0.763192,0.02926
22,61,2,9,0,0,1,,7,L,0,S,14,0.009421,0.781271,0.00736
22,62,8,2,0,0,1,,6,S,0,S,15,0.796367,0.001,0.000797
22,63,8,5,0,0,1,,3,S,0,S,15,0.752407,0.036505,0.027466
22,64,7,2,0,0,1,,5,S,0,S,15,0.772973,0.019747,0.015264
22,65,8,3,0,0,1,,5,S,0,S,15,0.773805,0.020546,0.015899
22,66,5,1,0,0,1,,4,S,0,S,13,0.756441,0.025059,0.018956
22,67,7,8,0,0,1,,1,S,0,S,18,0.027545,0.773487,0.021306
22,68,3,1,0,0,1,,2,S,0,S,15,0.778301,0.01653,0.012865
22,69,1,3,0,0,1,,2,S,0,S,17,0.015269,0.787042,0.012017
22,70,8,7,0,0,0,,1,S,0,S,26,0.029099,0.773519,0.022508
22,71,2,7,0,0,1,,5,S,0,S,15,0.003831,0.793149,0.003039
22,72,8,6,0,0,1,,2,S,0,S,19,0.778361,0.025101,0.019537
23,1,1,2,0,0,0,,1,S,0,S,21,0.773133,0.030338,0.023456
23,2,1,7,0,0,1,,6,S,0,S,14,0.024252,0.763092,0.018507
23,3,9,7,0,0,1,,2,S,0,S,27,0.793395,0.011997,0.009518
23,4,6,5,0,0,1,,1,S,0,S,19,0.77907,0.022806,0.017768
23,5,6,7,0,0,1,,1,S,0,S,32,0.047328,0.753514,0.035662
23,6,5,9,0,0,1,,4,S,0,S,17,0.036175,0.756805,0.027377
23,7,7,5,0,0,1,,2,S,0,S,21,0.784193,0.021173,0.016604
23,8,7,9,0,0,1,,2,S,0,S,19,0.04042,0.758529,0.03066
23,9,1,8,0,0,1,,7,L,0,S,14,0.021002,0.768462,0.016139
23,10,4,9,0,0,1,,5,S,0,S,17,0.030009,0.766881,0.023013
23,11,7,3,0,0,1,,4,S,0,S,18,0.784509,0.019508,0.015304
23,12,3,7,0,0,1,,4,S,0,S,14,0.012021,0.777299,0.009344
23,13,3,8,0,0,1,,5,S,0,S,14,0.009069,0.782256,0.007094
23,14,1,4,0,0,0,,3,S,0,S,28,0.795412,0.015446,0.012286
23,15,2,9,0,0,1,,7,L,0,S,13,0.019669,0.760371,0.014956
23,16,3,2,0,0,1,,1,S,0,S,34,0.758226,0.042603,0.032303
23,17,4,1,0,0,1,,3,S,0,S,14,0.778552,0.012167,0.009473
23,18,5,3,0,0,1,,2,S,0,S,21,0.780176,0.023141,0.018054
23,19,5,7,0,0,1,,2,S,0,S,18,0.035171,0.760293,0.02674
23,20,8,9,0,0,1,,1,S,0,S,22,0.031841,0.771059,0.024551
23,21,2,8,0,0,1,,6,S,0,S,13,0.025089,0.75435,0.018926
23,22,9,1,0,0,1,,8,L,0,S,13,0.759419,0.019421,0.014748
23,23,1,6,0,0,1,,5,S,0,S,15,0.010119,0.787896,0.007973
23,24,8,6,0,0,1,,2,S,0,S,20,0.78842,0.01827,0.014405
23,25,6,3,0,0,1,,3,S,0,S,17,0.778363,0.021904,0.017049
23,26,3,6,0,0,1,,3,S,0,S,14,0.031312,0.75371,0.0236
23,27,3,5,0,0,1,,2,S,0,S,15,0.005384,0.790019,0.004253
23,28,3,9,0,0,1,,6,S,0,S,14,0.002665,0.789423,0.002104
23,29,5,2,0,0,1,,3,S,0,S,15,0.782753,0.011378,0.008906
23,30,9,5,0,0,1,,4,S,0,S,19,0.789997,0.011251,0.008888
23,31,9,2,0,0,1,,7,L,0,S,14,0.778989,0.009712,0.007565
23,32,6,8,0,0,1,,2,S,0,S,26,0.044546,0.757855,0.033759
23,33,8,4,0,0,1,,4,S,0,S,14,0.768977,0.020921,0.016088
23,34,7,1,0,0,1,,6,S,0,S,13,0.751108,0.02874,0.021587
23,35,6,1,0,0,1,,5,S,0,S,13,0.76123,0.020386,0.015519
23,36,9,8,0,0,1,,1,S,0,S,32,0.793025,0.013606,0.01079
23,37,1,3,0,0,1,,2,S,0,S,16,0.016996,0.78216,0.013294
23,38,3,1,0,0,1,,2,S,0,S,18,0.762802,0.033703,0.025709
23,39,7,4,0,0,1,,3,S,0,S,14,0.753095,0.033819,0.025469
23,40,5,4,0,0,1,,1,S,0,S,15,0.764815,0.026375,0.020172
23,41,1,9,0,0,1,,8,L,0,S,14,0.01371,0.776748,0.010649
23,42,9,4,0,0,1,,5,S,0,S,14,0.766807,0.020062,0.015384
23,43,5,6,0,0,1,,1,S,0,S,21,0.043503,0.755283,0.032857
23,44,9,6,0,0,1,,3,S,0,S,19,0.753415,0.042178,0.031777
23,45,7,6,0,0,1,,1,S,0,S,23,0.780369,0.027163,0.021197
23,46,2,4,0,0,1,,2,S,0,S,18,0.021905,0.779326,0.017071
23,47,8,3,0,0,1,,5,S,0,S,17,0.780915,0.019954,0.015583
23,48,5,8,0,0,1,,3,S,0,S,18,0.024764,0.774763,0.019186
23,49,2,5,0,0,1,,3,S,0,S,14,0.015534,0.771809,0.011989
23,50,1,5,0,0,1,,4,S,0,S,15,0.021478,0.771076,0.016561
23,51,3,4,0,0,1,,1,S,0,S,22,0.018686,0.787857,0.014722
23,52,6,4,0,0,1,,2,S,0,S,14,0.767869,0.021714,0.016673
23,53,2,3,0,0,1,,1,S,0,S,15,0.000282,0.797835,0.000225
23,54,4,6,0,0,1,,2,S,0,S,21,0.026935,0.778389,0.020966
23,55,8,1,0,0,1,,7,L,0,S,13,0.762056,0.01982,0.015104
23,56,9,3,0,0,1,,6,S,0,S,17,0.782154,0.016172,0.012649
23,57,4,7,0,0,1,,3,S,0,S,18,0.02743,0.772345,0.021186
23,58,4,5,0,0,1,,1,S,0,S,24,0.013751,0.793727,0.010915
23,59,6,9,0,0,1,,3,S,0,S,22,0.023535,0.781345,0.018389
23,60,4,2,0,0,1,,2,S,0,S,15,0.78455,0.011548,0.00906
23,61,6,2,0,0,1,,4,S,0,S,14,0.78044,0.011011,0.008593
23,62,4,3,0,0,1,,1,S,0,S,21,0.771847,0.031626,0.02441
23,63,8,7,0,0,1,,1,S,0,S,36,0.757263,0.044474,0.033678
23,64,4,8,0,0,1,,4,S,0,S,18,0.017495,0.786114,0.013753
23,65,5,1,0,0,1,,4,S,0,S,14,0.776571,0.012188,0.009465
23,66,7,2,0,0,1,,5,S,0,S,14,0.767403,0.021765,0.016703
23,67,8,5,0,0,1,,3,S,0,S,19,0.783479,0.019366,0.015173
23,68,2,7,0,0,1,,5,S,0,S,14,0,0.803129,0
23,69,2,1,0,0,1,,1,S,0,S,23,0.782817,0.021175,0.016576
23,70,2,6,0,0,1,,4,S,0,S,14,0.007431,0.784523,0.00583
23,71,7,8,0,0,1,,1,S,0,S,21,0.021732,0.785443,0.017069
23,72,8,2,0,0,1,,6,S,0,S,14,0.781447,0.010294,0.008045
24,1,6,1,0,0,1,,5,S,0,S,15,0.792845,0.002907,0.002305
24,2,3,5,0,0,1,,2,S,0,S,17,0.014856,0.786898,0.01169
24,3,9,4,0,0,1,,5,S,0,S,14,0.786017,0.004634,0.003643
24,4,5,2,0,0,1,,3,S,0,S,16,0.750128,0.040953,0.03072
24,5,7,4,0,0,1,,3,S,0,S,19,0.777809,0.023294,0.018118
24,6,7,8,0,0,1,,1,S,0,S,19,0.015763,0.789783,0.012449
24,7,2,7,0,0,1,,5,S,0,S,16,0.00521,0.797025,0.004153
24,8,7,9,0,0,1,,2,S,0,S,17,0.013436,0.789417,0.010606
24,9,6,2,0,0,1,,4,S,0,S,15,0.794049,0.003833,0.003044
24,10,4,2,0,0,1,,2,S,0,S,15,0.763459,0.029887,0.022818
24,11,2,8,0,0,1,,6,S,0,S,15,0.022255,0.769751,0.017131
24,12,6,8,0,0,1,,2,S,0,S,26,0.034724,0.767176,0.026639
24,13,4,5,0,0,0,,1,S,0,S,26,0.794619,0.015912,0.012644
24,14,9,8,0,0,1,,1,S,0,S,15,0.762657,0.028114,0.021441
24,15,4,6,0,0,0,,2,S,0,S,21,0.774802,0.030641,0.023741
24,16,3,8,0,0,1,,5,S,0,S,15,0.033582,0.755718,0.025378
24,17,6,4,0,0,1,,2,S,0,S,17,0.77886,0.017553,0.013671
24,18,6,3,0,0,1,,3,S,0,S,16,0.788474,0.009057,0.007141
24,19,3,9,0,0,1,,6,S,0,S,15,0.002564,0.79589,0.00204
24,20,7,3,0,0,1,,4,S,0,S,17,0.778874,0.020765,0.016174
24,21,8,5,0,0,1,,3,S,0,S,21,0.794637,0.011322,0.008997
24,22,2,6,0,0,1,,4,S,0,S,17,0.019907,0.780308,0.015533
24,23,1,5,0,0,1,,4,S,0,S,15,0.021294,0.770743,0.016412
24,24,1,9,0,0,1,,8,L,0,S,14,0.002638,0.789722,0.002083
24,25,7,2,0,0,1,,5,S,0,S,15,0.755948,0.035438,0.02679
24,26,5,1,0,0,1,,4,S,0,S,16,0.751207,0.038057,0.028589
24,27,8,7,0,0,1,,1,S,0,S,28,0.78641,0.020685,0.016267
24,28,4,7,0,0,1,,3,S,0,S,22,0.019711,0.789921,0.01557
24,29,8,3,0,0,1,,5,S,0,S,16,0.769025,0.023805,0.018306
24,30,8,2,0,0,1,,6,S,0,S,15,0.780237,0.014161,0.011049
24,31,2,5,0,0,1,,3,S,0,S,16,0.033511,0.759747,0.02546
24,32,1,4,0,0,1,,3,S,0,S,16,0.032478,0.75688,0.024582
24,33,2,3,0,0,1,,1,S,0,S,22,0.035579,0.764568,0.027202
24,34,6,9,0,0,1,,3,S,0,S,19,0.025951,0.774503,0.020099
24,35,4,1,0,0,1,,3,S,0,S,15,0.763108,0.02821,0.021527
24,36,8,9,0,0,1,,1,S,0,S,18,0.029412,0.767982,0.022588
24,37,3,6,0,0,1,,3,S,0,S,17,0.041653,0.753302,0.031377
24,38,9,7,0,0,1,,2,S,0,S,15,0.78985,0.008409,0.006642
24,39,8,6,0,0,1,,2,S,0,S,19,0.777473,0.023846,0.018539
24,40,9,2,0,0,1,,7,L,0,S,13,0.785828,0.002629,0.002066
24,41,3,1,0,0,1,,2,S,0,S,19,0.783195,0.019111,0.014967
24,42,1,7,0,0,1,,6,S,0,S,15,0.001869,0.796878,0.001489
24,43,8,1,0,0,1,,7,L,0,S,15,0.779257,0.013019,0.010145
24,44,7,5,0,0,1,,2,S,0,S,35,0.794978,0.015728,0.012504
24,45,9,1,0,0,1,,8,L,0,S,13,0.78399,0.002361,0.001851
24,46,3,4,0,0,1,,1,S,0,S,19,0.039961,0.75546,0.030189
24,47,4,3,0,0,1,,1,S,0,S,17,0.790171,0.012125,0.009581
24,48,5,6,0,0,1,,1,S,0,S,22,0.028672,0.7747,0.022212
24,49,6,5,0,0,1,,1,S,0,S,19,0.765949,0.033125,0.025372
24,50,1,2,0,0,1,,1,S,0,S,22,0.019657,0.78613,0.015453
24,51,1,6,0,0,1,,5,S,0,S,15,0.035698,0.752521,0.026863
24,52,7,6,0,0,1,,1,S,0,S,22,0.774973,0.030722,0.023809
24,53,6,7,0,0,0,,1,S,0,S,22,0.766663,0.03578,0.027431
24,54,5,8,0,0,1,,3,S,0,S,17,0.021056,0.776896,0.016358
24,55,7,1,0,0,1,,6,S,0,S,15,0.755761,0.033614,0.025404
24,56,4,8,0,0,1,,4,S,0,S,19,0.031365,0.770605,0.02417
24,57,2,9,0,0,1,,7,L,0,S,14,0.029839,0.755122,0.022532
24,58,5,4,0,0,1,,1,S,0,S,24,0.754702,0.042125,0.031792
24,59,9,5,0,0,1,,4,S,0,S,14,0.758023,0.028311,0.021461
24,60,3,7,0,0,1,,4,S,0,S,16,0.018689,0.780508,0.014587
24,61,2,1,0,0,1,,1,S,0,S,20,0.774123,0.026712,0.020678
24,62,9,3,0,0,1,,6,S,0,S,13,0.757339,0.022511,0.017049
24,63,2,4,0,0,1,,2,S,0,S,18,0.040325,0.752745,0.030354
24,64,8,4,0,0,1,,4,S,0,S,17,0.750411,0.039326,0.029511
24,65,5,3,0,0,1,,2,S,0,S,19,0.776792,0.023083,0.017931
24,66,1,3,0,0,1,,2,S,0,S,18,0.013346,0.787423,0.010509
24,67,4,9,0,0,1,,5,S,0,S,17,0.021477,0.779634,0.016744
24,68,3,2,0,0,1,,1,S,0,S,19,0.776055,0.026937,0.020905
24,69,1,8,0,0,1,,7,L,0,S,14,0.024202,0.761342,0.018426
24,70,5,9,0,0,1,,4,S,0,S,16,0.009554,0.789101,0.007539
24,71,9,6,0,0,1,,3,S,0,S,14,0.77215,0.017767,0.013719
24,72,5,7,0,0,1,,2,S,0,S,18,0.022863,0.778638,0.017802
25,1,1,7,0,0,1,,6,S,0,S,13,0.025224,0.753421,0.019004
25,2,5,4,0,0,1,,1,S,0,S,32,0.791458,0.019356,0.01532
25,3,4,5,0,0,1,,1,S,0,S,16,0.039126,0.753645,0.029487
25,4,3,8,0,0,1,,5,S,0,S,17,0.015273,0.789219,0.012054
25,5,4,1,0,0,1,,3,S,0,S,16,0.794172,0.007678,0.006098
25,6,3,1,0,0,1,,2,S,0,S,16,0.775647,0.024228,0.018793
25,7,9,6,0,0,1,,3,S,0,S,16,0.770503,0.02607,0.020087
25,8,4,9,0,0,1,,5,S,0,S,15,0.011547,0.7874,0.009092
25,9,5,3,0,0,1,,2,S,0,S,17,0.781387,0.018142,0.014176
25,10,3,4,0,0,1,,1,S,0,S,19,0.018032,0.790153,0.014248
25,11,8,2,0,0,1,,6,S,0,S,14,0.773752,0.017238,0.013338
25,12,9,1,0,0,1,,8,L,0,S,13,0.751854,0.027932,0.021001
25,13,3,7,0,0,1,,4,S,0,S,17,0.022657,0.778795,0.017645
25,14,6,1,0,0,1,,5,S,0,S,14,0.752818,0.0325,0.024467
25,15,5,2,0,0,1,,3,S,0,S,18,0.769897,0.03247,0.024999
25,16,2,4,0,0,1,,2,S,0,S,16,0.017255,0.781365,0.013482
25,17,5,6,0,0,1,,1,S,0,S,36,0.032867,0.77532,0.025482
25,18,1,6,0,0,1,,5,S,0,S,14,0.003833,0.790083,0.003028
25,19,5,9,0,0,1,,4,S,0,S,15,0.035068,0.758285,0.026591
25,20,6,9,0,0,1,,3,S,0,S,16,0.033504,0.762413,0.025544
25,21,3,2,0,0,1,,1,S,0,S,24,0.754229,0.050611,0.038173
25,22,4,2,0,0,1,,2,S,0,S,21,0.789379,0.018945,0.014955
25,23,4,7,0,0,1,,3,S,0,S,18,0.019868,0.781798,0.015533
25,24,2,7,0,0,1,,5,S,0,S,15,0.022468,0.769192,0.017282
25,25,6,3,0,0,1,,3,S,0,S,16,0.777551,0.017618,0.013699
25,26,1,9,0,0,1,,8,L,0,S,13,0,0.805391,0
25,27,7,4,0,0,1,,3,S,0,S,23,0.758926,0.044733,0.033949
25,28,7,3,0,0,1,,4,S,0,S,16,0.751619,0.039542,0.029721
25,29,7,2,0,0,1,,5,S,0,S,18,0.798207,0.010176,0.008123
25,30,7,6,0,0,1,,1,S,0,S,24,0.786676,0.023152,0.018213
25,31,4,8,0,0,1,,4,S,0,S,18,0.010562,0.794625,0.008393
25,32,6,5,0,0,0,,1,S,0,S,20,0.018974,0.786103,0.014916
25,33,2,3,0,0,1,,1,S,0,S,20,0.045075,0.750056,0.033809
25,34,5,7,0,0,1,,2,S,0,S,20,0.023588,0.780921,0.01842
25,35,9,2,0,0,1,,7,L,0,S,15,0.786246,0.011224,0.008825
25,36,7,9,0,0,1,,2,S,0,S,16,0.008578,0.796184,0.006829
25,37,9,8,0,0,1,,1,S,0,S,18,0.79546,0.009175,0.007299
25,38,8,7,0,0,1,,1,S,0,S,16,0.783467,0.014259,0.011172
25,39,8,3,0,0,1,,5,S,0,S,14,0.787604,0.003516,0.002769
25,40,1,4,0,0,1,,3,S,0,S,14,0.004795,0.788428,0.00378
25,41,2,1,0,0,1,,1,S,0,S,20,0.79343,0.013395,0.010628
25,42,6,2,0,0,1,,4,S,0,S,17,0.787876,0.01506,0.011865
25,43,2,9,0,0,1,,7,L,0,S,14,0,0.800549,0
25,44,2,8,0,0,1,,6,S,0,S,15,0.018262,0.775691,0.014166
25,45,8,5,0,0,1,,3,S,0,S,17,0.784495,0.016557,0.012989
25,46,3,6,0,0,1,,3,S,0,S,19,0.013754,0.795938,0.010947
25,47,2,5,0,0,1,,3,S,0,S,14,0.033783,0.750657,0.02536
25,48,5,8,0,0,1,,3,S,0,S,19,0.043691,0.755627,0.033014
25,49,5,1,0,0,1,,4,S,0,S,15,0.779113,0.017432,0.013581
25,50,8,6,0,0,1,,2,S,0,S,15,0.776894,0.018292,0.014211
25,51,2,6,0,0,1,,4,S,0,S,16,0.015394,0.784175,0.012072
25,52,9,5,0,0,1,,4,S,0,S,19,0.758149,0.040151,0.030441
25,53,8,1,0,0,1,,7,L,0,S,13,0.77734,0.008777,0.006823
25,54,1,2,0,0,1,,1,S,0,S,15,0,0.8009,0
25,55,6,8,0,0,1,,2,S,0,S,25,0.047033,0.753469,0.035438
25,56,9,4,0,0,1,,5,S,0,S,16,0.771571,0.02488,0.019197
25,57,3,5,0,0,1,,2,S,0,S,16,0.016097,0.785541,0.012645
25,58,1,5,0,0,1,,4,S,0,S,13,0.011155,0.773207,0.008625
25,59,4,6,0,0,1,,2,S,0,S,20,0.039672,0.76207,0.030233
25,60,9,3,0,0,1,,6,S,0,S,14,0.753858,0.029173,0.021993
25,61,7,8,0,0,1,,1,S,0,S,20,0.047888,0.751971,0.03601
25,62,7,1,0,0,1,,6,S,0,S,15,0.790091,0.009119,0.007205
25,63,9,7,0,0,1,,2,S,0,S,17,0.754407,0.039061,0.029468
25,64,6,7,0,0,1,,1,S,0,S,29,0.028733,0.775669,0.022287
25,65,4,3,0,0,1,,1,S,0,S,18,0.761227,0.03479,0.026483
25,66,7,5,0,0,0,,2,S,0,S,18,0.03118,0.770316,0.024018
25,67,3,9,0,0,1,,6,S,0,S,14,0.033786,0.756065,0.025545
25,68,1,8,0,0,1,,7,L,0,S,13,0.022833,0.757609,0.017298
25,69,8,9,0,0,0,,1,S,0,S,21,0.767934,0.036189,0.027791
25,70,1,3,0,0,1,,2,S,0,S,15,0.025438,0.763179,0.019414
25,71,8,4,0,0,1,,4,S,0,S,15,0.777435,0.017534,0.013632
25,72,6,4,0,0,1,,2,S,0,S,20,0.773864,0.029256,0.02264
26,1,4,8,0,0,1,,4,S,0,S,15,0.015412,0.782123,0.012054
26,2,7,6,0,0,0,,1,S,0,S,24,0.032673,0.775078,0.025324
26,3,1,7,0,0,1,,6,S,0,S,15,0.033116,0.76052,0.025185
26,4,3,8,0,0,1,,5,S,0,S,14,0.015421,0.775242,0.011955
26,5,3,5,0,0,1,,2,S,0,S,17,0.021773,0.779454,0.016971
26,6,8,4,0,0,1,,4,S,0,S,17,0.752343,0.042801,0.032201
26,7,9,8,0,0,0,,1,S,0,S,20,0.011335,0.794308,0.009003
26,8,5,4,0,0,1,,1,S,0,S,20,0.768093,0.036837,0.028294
26,9,6,3,0,0,1,,3,S,0,S,19,0.787969,0.016899,0.013316
26,10,9,5,0,0,1,,4,S,0,S,17,0.794196,0.008616,0.006843
26,11,5,6,0,0,1,,1,S,0,S,18,0.013709,0.794131,0.010886
26,12,1,8,0,0,1,,7,L,0,S,13,0.025635,0.75744,0.019417
26,13,6,4,0,0,1,,2,S,0,S,18,0.754036,0.044828,0.033802
26,14,4,3,0,0,1,,1,S,0,S,21,0.764117,0.037274,0.028482
26,15,5,7,0,0,1,,2,S,0,S,21,0.0355,0.771393,0.027385
26,16,7,2,0,0,1,,5,S,0,S,14,0.75256,0.034366,0.025863
26,17,8,3,0,0,1,,5,S,0,S,18,0.78903,0.013292,0.010488
26,18,9,6,0,0,1,,3,S,0,S,19,0.78668,0.01658,0.013043
26,19,4,5,0,0,1,,1,S,0,S,21,0.024046,0.784504,0.018865
26,20,3,2,0,0,1,,1,S,0,S,18,0.784132,0.018362,0.014399
26,21,1,2,0,0,0,,1,S,0,S,23,0.787806,0.021236,0.01673
26,22,2,4,0,0,1,,2,S,0,S,17,0.035933,0.761272,0.027354
26,23,4,2,0,0,1,,2,S,0,S,16,0.792394,0.009703,0.007688
26,24,7,1,0,0,1,,6,S,0,S,14,0.756051,0.032958,0.024918
26,25,4,1,0,0,1,,3,S,0,S,16,0.79656,0.007727,0.006155
26,26,5,2,0,0,1,,3,S,0,S,15,0.750085,0.040825,0.030622
26,27,8,1,0,0,1,,7,L,0,S,15,0.79123,0.00789,0.006243
26,28,3,1,0,0,1,,2,S,0,S,18,0.789698,0.015342,0.012116
26,29,3,6,0,0,1,,3,S,0,S,16,0.006705,0.79488,0.00533
26,30,9,1,0,0,1,,8,L,0,S,14,0.791392,0.002421,0.001916
26,31,6,8,0,0,1,,2,S,0,S,15,0.036389,0.755504,0.027492
26,32,4,6,0,0,1,,2,S,0,S,17,0.043646,0.752874,0.03286
26,33,4,7,0,0,1,,3,S,0,S,21,0.015169,0.795273,0.012063
26,34,6,5,0,0,1,,1,S,0,S,34,0.787395,0.024077,0.018958
26,35,7,8,0,0,1,,1,S,0,S,16,0.03575,0.760652,0.027194
26,36,8,7,0,0,1,,1,S,0,S,22,0.777035,0.029017,0.022547
26,37,6,9,0,0,1,,3,S,0,S,20,0.020261,0.786809,0.015941
26,38,8,2,0,0,1,,6,S,0,S,15,0.787525,0.00951,0.00749
26,39,6,1,0,0,1,,5,S,0,S,15,0.775869,0.021317,0.016539
26,40,2,8,0,0,1,,6,S,0,S,14,0,0.802897,0
26,41,5,3,0,0,1,,2,S,0,S,21,0.795158,0.013533,0.010761
26,42,2,6,0,0,1,,4,S,0,S,15,0.008333,0.789866,0.006582
26,43,9,2,0,0,1,,7,L,0,S,14,0.78816,0.003705,0.00292
26,44,3,4,0,0,1,,1,S,0,S,20,0.029551,0.773601,0.022861
26,45,6,2,0,0,1,,4,S,0,S,15,0.77203,0.023009,0.017764
26,46,9,4,0,0,1,,5,S,0,S,15,0.760764,0.029108,0.022144
26,47,8,6,0,0,0,,2,S,0,S,21,0.031879,0.772023,0.024612
26,48,7,5,0,0,1,,2,S,0,S,20,0.791773,0.01807,0.014307
26,49,1,4,0,0,1,,3,S,0,S,17,0.0201,0.783176,0.015742
26,50,2,3,0,0,1,,1,S,0,S,17,0.035412,0.759116,0.026882
26,51,7,3,0,0,1,,4,S,0,S,17,0.776819,0.023209,0.018029
26,52,2,1,0,0,1,,1,S,0,S,21,0.774239,0.031137,0.024107
26,53,3,7,0,0,1,,4,S,0,S,17,0.019218,0.782452,0.015037
26,54,6,7,0,0,1,,1,S,0,S,31,0.027691,0.782598,0.021671
26,55,1,5,0,0,1,,4,S,0,S,15,0.034674,0.758743,0.026309
