ANN,trial,N1,N2,P1,P2,Succ.,,Ndist,Ndist,Pdist,Pdist,rt,a1,a2,x_acc
1,1,3,8,0,0,1,,5,S,0,S,13,0.016126,0.766784,0.012365
1,2,7,8,0,0,1,,1,S,0,S,16,0.014425,0.783815,0.011306
1,3,1,2,0,0,1,,1,S,0,S,21,0.04844,0.753804,0.036514
1,4,8,5,0,0,1,,3,S,0,S,16,0.759185,0.033391,0.02535
1,5,6,7,0,0,1,,1,S,0,S,18,0.026727,0.773673,0.020678
1,6,3,2,0,0,1,,1,S,0,S,25,0.773199,0.033679,0.026041
1,7,1,8,0,0,1,,7,L,0,S,13,0.005247,0.781944,0.004103
1,8,5,6,0,0,1,,1,S,0,S,15,0.033671,0.757982,0.025522
1,9,2,8,0,0,1,,6,S,0,S,14,0.011325,0.779789,0.008831
1,10,8,2,0,0,1,,6,S,0,S,14,0.781977,0.011161,0.008727
1,11,9,6,0,0,1,,3,S,0,S,19,0.76727,0.034874,0.026758
1,12,6,1,0,0,1,,5,S,0,S,14,0.786452,0.007299,0.00574
1,13,8,4,0,0,1,,4,S,0,S,16,0.770866,0.027151,0.02093
1,14,3,9,0,0,1,,6,S,0,S,14,0.011871,0.779894,0.009258
1,15,8,7,0,0,1,,1,S,0,S,21,0.762602,0.037583,0.028661
1,16,6,3,0,0,1,,3,S,0,S,18,0.775581,0.025226,0.019565
1,17,4,1,0,0,1,,3,S,0,S,15,0.786274,0.009941,0.007816
1,18,7,4,0,0,1,,3,S,0,S,18,0.789437,0.016749,0.013222
1,19,5,8,0,0,1,,3,S,0,S,15,0.027433,0.764362,0.020969
1,20,9,5,0,0,1,,4,S,0,S,14,0.774077,0.016301,0.012618
1,21,9,3,0,0,1,,6,S,0,S,14,0.801178,0,0
1,22,6,2,0,0,1,,4,S,0,S,15,0.762266,0.031039,0.02366
1,23,7,5,0,0,1,,2,S,0,S,18,0.774016,0.026013,0.020134
1,24,2,6,0,0,1,,4,S,0,S,14,0.014957,0.776617,0.011616
1,25,4,6,0,0,1,,2,S,0,S,14,0.015912,0.773885,0.012314
1,26,8,1,0,0,1,,7,L,0,S,13,0.778869,0.007559,0.005887
1,27,8,3,0,0,1,,5,S,0,S,15,0.762357,0.028045,0.02138
1,28,7,3,0,0,1,,4,S,0,S,16,0.75919,0.03384,0.025691
1,29,4,9,0,0,1,,5,S,0,S,15,0.020794,0.771946,0.016052
1,30,1,3,0,0,1,,2,S,0,S,16,0.039137,0.75347,0.029488
1,31,5,2,0,0,1,,3,S,0,S,15,0.781437,0.016443,0.012849
1,32,1,5,0,0,1,,4,S,0,S,15,0.031954,0.758753,0.024245
1,33,2,7,0,0,1,,5,S,0,S,16,0.011631,0.787954,0.009165
1,34,5,3,0,0,1,,2,S,0,S,17,0.767974,0.029953,0.023003
1,35,6,4,0,0,1,,2,S,0,S,21,0.765522,0.039226,0.030028
1,36,7,9,0,0,1,,2,S,0,S,19,0.013844,0.791888,0.010963
1,37,9,8,0,0,1,,1,S,0,S,20,0.772329,0.030372,0.023457
1,38,5,1,0,0,1,,4,S,0,S,14,0.798158,0,0
1,39,1,6,0,0,1,,5,S,0,S,13,0.007604,0.780292,0.005934
1,40,6,9,0,0,1,,3,S,0,S,17,0.010581,0.792959,0.00839
1,41,2,3,0,0,1,,1,S,0,S,31,0.047691,0.753447,0.035933
1,42,9,4,0,0,1,,5,S,0,S,14,0.782027,0.012764,0.009981
1,43,4,5,0,0,1,,1,S,0,S,19,0.035591,0.7622,0.027127
1,44,2,9,0,0,1,,7,L,0,S,15,0.019614,0.775024,0.015201
1,45,3,1,0,0,1,,2,S,0,S,16,0.757395,0.036422,0.027586
1,46,1,9,0,0,1,,8,L,0,S,14,0,0.799207,0
1,47,4,8,0,0,1,,4,S,0,S,14,0.012288,0.77705,0.009549
1,48,6,8,0,0,1,,2,S,0,S,15,0.014136,0.781033,0.01104
1,49,3,5,0,0,1,,2,S,0,S,16,0.023669,0.772298,0.01828
1,50,9,1,0,0,1,,8,L,0,S,12,0.770391,0.008505,0.006552
1,51,6,5,0,0,1,,1,S,0,S,22,0.780835,0.024328,0.018996
1,52,8,9,0,0,1,,1,S,0,S,25,0.038183,0.764718,0.029199
1,53,5,4,0,0,1,,1,S,0,S,19,0.76426,0.038888,0.029721
1,54,2,1,0,0,1,,1,S,0,S,15,0.789334,0.00874,0.006899
1,55,9,7,0,0,1,,2,S,0,S,15,0.753406,0.036198,0.027272
1,56,3,4,0,0,1,,1,S,0,S,16,0.023191,0.776554,0.018009
1,57,1,4,0,0,1,,3,S,0,S,15,0.031393,0.763085,0.023955
1,58,4,3,0,0,0,,1,S,0,S,32,0.013382,0.794379,0.01063
1,59,2,5,0,0,1,,3,S,0,S,19,0.033474,0.766606,0.025662
1,60,4,7,0,0,1,,3,S,0,S,16,0.013016,0.784611,0.010213
1,61,5,7,0,0,1,,2,S,0,S,19,0.032149,0.768908,0.02472
1,62,4,2,0,0,1,,2,S,0,S,17,0.764429,0.033335,0.025482
1,63,3,6,0,0,1,,3,S,0,S,13,0.018797,0.764757,0.014375
1,64,9,2,0,0,1,,7,L,0,S,13,0.792116,0,0
1,65,8,6,0,0,0,,2,S,0,S,18,0.008964,0.796562,0.007141
1,66,7,2,0,0,1,,5,S,0,S,14,0.750043,0.03609,0.027069
1,67,3,7,0,0,1,,4,S,0,S,14,0.030357,0.754908,0.022917
1,68,1,7,0,0,1,,6,S,0,S,14,0.013648,0.777521,0.010612
1,69,7,1,0,0,1,,6,S,0,S,13,0.757404,0.024135,0.01828
1,70,2,4,0,0,1,,2,S,0,S,19,0.036056,0.76726,0.027664
1,71,5,9,0,0,1,,4,S,0,S,17,0.035988,0.76128,0.027397
1,72,7,6,0,0,0,,1,S,0,S,16,0.022026,0.775795,0.017087
2,1,4,7,0,0,1,,3,S,0,S,17,0.043089,0.75005,0.032319
2,2,8,7,0,0,1,,1,S,0,S,17,0.763271,0.035656,0.027215
2,3,8,6,0,0,1,,2,S,0,S,18,0.796401,0.00821,0.006539
2,4,6,5,0,0,1,,1,S,0,S,23,0.771978,0.033325,0.025726
2,5,8,3,0,0,1,,5,S,0,S,15,0.792125,0.004764,0.003774
2,6,5,7,0,0,1,,2,S,0,S,19,0.013886,0.790515,0.010977
2,7,4,5,0,0,1,,1,S,0,S,19,0.034074,0.76564,0.026088
2,8,7,3,0,0,1,,4,S,0,S,15,0.773798,0.016685,0.012911
2,9,5,8,0,0,1,,3,S,0,S,17,0.038003,0.752387,0.028593
2,10,9,3,0,0,1,,6,S,0,S,16,0.789017,0.008207,0.006475
2,11,9,8,0,0,1,,1,S,0,S,40,0.793779,0.012633,0.010028
2,12,2,3,0,0,1,,1,S,0,S,15,0.022954,0.765609,0.017574
2,13,5,4,0,0,1,,1,S,0,S,17,0.783505,0.015562,0.012193
2,14,3,9,0,0,1,,6,S,0,S,14,0,0.796648,0
2,15,6,3,0,0,1,,3,S,0,S,17,0.777886,0.019506,0.015174
2,16,9,5,0,0,1,,4,S,0,S,18,0.761357,0.037311,0.028407
2,17,4,9,0,0,1,,5,S,0,S,15,0,0.800283,0
2,18,6,7,0,0,1,,1,S,0,S,23,0.016528,0.792495,0.013098
2,19,5,3,0,0,1,,2,S,0,S,19,0.784996,0.014846,0.011654
2,20,8,9,0,0,1,,1,S,0,S,19,0.026445,0.776542,0.020536
2,21,7,2,0,0,1,,5,S,0,S,14,0.796548,0,0
2,22,2,9,0,0,1,,7,L,0,S,13,0,0.801902,0
2,23,8,5,0,0,1,,3,S,0,S,16,0.766031,0.031442,0.024085
2,24,6,9,0,0,1,,3,S,0,S,16,0.00211,0.799423,0.001687
2,25,1,4,0,0,1,,3,S,0,S,16,0.018682,0.775414,0.014486
2,26,2,4,0,0,1,,2,S,0,S,16,0.018892,0.77716,0.014682
2,27,2,8,0,0,1,,6,S,0,S,13,0.021542,0.756413,0.016294
2,28,4,3,0,0,1,,1,S,0,S,20,0.751152,0.042606,0.032003
2,29,5,6,0,0,1,,1,S,0,S,19,0.011767,0.789532,0.009291
2,30,3,8,0,0,1,,5,S,0,S,15,0.020312,0.773047,0.015702
2,31,1,9,0,0,1,,8,L,0,S,13,0,0.799777,0
2,32,9,6,0,0,1,,3,S,0,S,21,0.756216,0.041032,0.031029
2,33,7,1,0,0,1,,6,S,0,S,12,0.758855,0.013555,0.010286
2,34,2,5,0,0,1,,3,S,0,S,14,0.008666,0.783571,0.006791
2,35,5,2,0,0,1,,3,S,0,S,15,0.757433,0.031642,0.023967
2,36,1,7,0,0,1,,6,S,0,S,14,0,0.79861,0
2,37,7,5,0,0,1,,2,S,0,S,17,0.785829,0.015615,0.012271
2,38,1,3,0,0,1,,2,S,0,S,15,0.023013,0.763537,0.017571
2,39,6,1,0,0,1,,5,S,0,S,13,0.786453,0.000161,0.000126
2,40,3,1,0,0,1,,2,S,0,S,14,0.781715,0.010056,0.007861
2,41,9,1,0,0,1,,8,L,0,S,13,0.80295,0,0
2,42,3,5,0,0,1,,2,S,0,S,16,0.034195,0.763166,0.026096
2,43,9,7,0,0,1,,2,S,0,S,21,0.785648,0.020602,0.016186
2,44,8,1,0,0,1,,7,L,0,S,12,0.767902,0.008786,0.006747
2,45,2,7,0,0,1,,5,S,0,S,14,0,0.800776,0
2,46,4,2,0,0,1,,2,S,0,S,16,0.782826,0.014873,0.011643
2,47,4,8,0,0,1,,4,S,0,S,17,0.008195,0.79058,0.006478
2,48,2,6,0,0,1,,4,S,0,S,14,0,0.796677,0
2,49,6,8,0,0,1,,2,S,0,S,19,0.040807,0.754792,0.030801
2,50,5,1,0,0,1,,4,S,0,S,13,0.766381,0.013864,0.010625
2,51,8,4,0,0,1,,4,S,0,S,14,0.77556,0.015835,0.012281
2,52,9,2,0,0,1,,7,L,0,S,14,0.776285,0.014372,0.011157
2,53,8,2,0,0,1,,6,S,0,S,13,0.755995,0.026336,0.01991
2,54,7,8,0,0,0,,1,S,0,S,20,0.762723,0.034195,0.026081
2,55,6,4,0,0,1,,2,S,0,S,16,0.791246,0.00903,0.007145
2,56,1,2,0,0,1,,1,S,0,S,18,0.015325,0.785299,0.012035
2,57,5,9,0,0,1,,4,S,0,S,15,0.011236,0.782239,0.008789
2,58,3,2,0,0,1,,1,S,0,S,18,0.790612,0.015824,0.012511
2,59,2,1,0,0,1,,1,S,0,S,17,0.790581,0.008759,0.006925
2,60,3,4,0,0,0,,1,S,0,S,23,0.770477,0.03498,0.026952
2,61,7,6,0,0,1,,1,S,0,S,18,0.754781,0.038567,0.029109
2,62,3,7,0,0,1,,4,S,0,S,15,0.04023,0.75113,0.030218
2,63,6,2,0,0,1,,4,S,0,S,15,0.79608,0.003198,0.002546
2,64,7,9,0,0,1,,2,S,0,S,18,0.03352,0.762764,0.025568
2,65,7,4,0,0,1,,3,S,0,S,14,0.76002,0.025534,0.019406
2,66,1,5,0,0,1,,4,S,0,S,14,0.008877,0.781452,0.006937
2,67,9,4,0,0,1,,5,S,0,S,15,0.784765,0.010838,0.008505
2,68,4,6,0,0,1,,2,S,0,S,18,0.006285,0.795176,0.004998
2,69,4,1,0,0,1,,3,S,0,S,13,0.755595,0.022051,0.016661
2,70,3,6,0,0,1,,3,S,0,S,16,0.004095,0.797665,0.003266
2,71,1,6,0,0,1,,5,S,0,S,14,0,0.794424,0
2,72,1,8,0,0,1,,7,L,0,S,13,0.021778,0.75425,0.016426
3,1,2,8,0,0,1,,6,S,0,S,14,0.011354,0.779171,0.008846
3,2,3,8,0,0,1,,5,S,0,S,15,0.035162,0.754158,0.026518
3,3,6,1,0,0,1,,5,S,0,S,14,0.770843,0.017578,0.01355
3,4,7,5,0,0,1,,2,S,0,S,18,0.787241,0.016117,0.012688
3,5,7,4,0,0,1,,3,S,0,S,15,0.763195,0.027952,0.021333
3,6,7,3,0,0,1,,4,S,0,S,14,0.793641,0.000768,0.000609
3,7,4,9,0,0,1,,5,S,0,S,14,0.008107,0.782767,0.006346
3,8,5,1,0,0,1,,4,S,0,S,16,0.781744,0.016911,0.01322
3,9,1,8,0,0,1,,7,L,0,S,13,0.013445,0.771018,0.010366
3,10,4,5,0,0,1,,1,S,0,S,17,0.008546,0.795618,0.006799
3,11,8,9,0,0,1,,1,S,0,S,34,0.033361,0.768244,0.02563
3,12,3,7,0,0,1,,4,S,0,S,16,0.040818,0.751223,0.030663
3,13,5,2,0,0,1,,3,S,0,S,15,0.77952,0.015762,0.012287
3,14,9,6,0,0,0,,3,S,0,S,22,0.028808,0.776646,0.022374
3,15,8,6,0,0,1,,2,S,0,S,17,0.773472,0.024368,0.018848
3,16,8,7,0,0,1,,1,S,0,S,15,0.763019,0.027611,0.021068
3,17,6,5,0,0,0,,1,S,0,S,38,0.049475,0.751217,0.037167
3,18,1,5,0,0,1,,4,S,0,S,13,0.02646,0.754744,0.019971
3,19,2,5,0,0,1,,3,S,0,S,14,0.029428,0.756566,0.022264
3,20,1,3,0,0,1,,2,S,0,S,17,0.017502,0.784293,0.013727
3,21,6,3,0,0,1,,3,S,0,S,15,0.796261,0.002082,0.001658
3,22,5,3,0,0,1,,2,S,0,S,17,0.77808,0.022496,0.017504
3,23,8,1,0,0,1,,7,L,0,S,13,0.793849,0,0
3,24,3,9,0,0,1,,6,S,0,S,14,0.002963,0.789504,0.002339
3,25,6,8,0,0,1,,2,S,0,S,20,0.032088,0.768399,0.024657
3,26,9,2,0,0,1,,7,L,0,S,13,0.769271,0.015279,0.011754
3,27,9,7,0,0,1,,2,S,0,S,19,0.774918,0.028201,0.021853
3,28,6,7,0,0,0,,1,S,0,S,26,0.791462,0.016201,0.012822
3,29,9,3,0,0,1,,6,S,0,S,14,0.777888,0.014192,0.01104
3,30,3,1,0,0,1,,2,S,0,S,16,0.772339,0.024036,0.018564
3,31,3,6,0,0,1,,3,S,0,S,15,0.016229,0.778781,0.012639
3,32,2,1,0,0,1,,1,S,0,S,22,0.794928,0.012359,0.009824
3,33,5,9,0,0,1,,4,S,0,S,14,0.00589,0.785984,0.004629
3,34,5,4,0,0,0,,1,S,0,S,22,0.032513,0.77177,0.025093
3,35,4,1,0,0,1,,3,S,0,S,16,0.786163,0.01316,0.010346
3,36,8,2,0,0,1,,6,S,0,S,12,0.754882,0.018,0.013588
3,37,7,1,0,0,1,,6,S,0,S,13,0.759181,0.021684,0.016462
3,38,4,7,0,0,1,,3,S,0,S,17,0.018575,0.782379,0.014533
3,39,1,6,0,0,1,,5,S,0,S,13,0.004896,0.782499,0.003831
3,40,4,2,0,0,1,,2,S,0,S,15,0.782646,0.01306,0.010222
3,41,5,8,0,0,1,,3,S,0,S,16,0.004654,0.797244,0.00371
3,42,1,4,0,0,1,,3,S,0,S,14,0.032216,0.75364,0.024279
3,43,9,1,0,0,1,,8,L,0,S,14,0.799009,0,0
3,44,8,3,0,0,1,,5,S,0,S,13,0.779403,0.006548,0.005103
3,45,5,7,0,0,1,,2,S,0,S,17,0.012655,0.790216,0.01
3,46,9,4,0,0,1,,5,S,0,S,16,0.782737,0.017031,0.01333
3,47,7,6,0,0,1,,1,S,0,S,24,0.766457,0.03603,0.027615
3,48,4,3,0,0,1,,1,S,0,S,17,0.784558,0.017085,0.013404
3,49,7,2,0,0,1,,5,S,0,S,13,0.780667,0.005434,0.004242
3,50,6,4,0,0,1,,2,S,0,S,17,0.766135,0.03055,0.023405
3,51,7,8,0,0,0,,1,S,0,S,20,0.769246,0.031711,0.024394
3,52,2,3,0,0,1,,1,S,0,S,23,0.043762,0.756918,0.033124
3,53,1,7,0,0,1,,6,S,0,S,14,0,0.80321,0
3,54,8,4,0,0,1,,4,S,0,S,14,0.77428,0.015248,0.011806
3,55,3,4,0,0,1,,1,S,0,S,21,0.030998,0.772653,0.023951
3,56,2,7,0,0,1,,5,S,0,S,15,0,0.801136,0
3,57,5,6,0,0,1,,1,S,0,S,15,0.020929,0.773046,0.016179
3,58,9,5,0,0,1,,4,S,0,S,20,0.796347,0.012458,0.009921
3,59,6,9,0,0,1,,3,S,0,S,15,0.034323,0.752411,0.025825
3,60,4,8,0,0,1,,4,S,0,S,16,0.008724,0.791729,0.006907
3,61,3,5,0,0,1,,2,S,0,S,16,0.031717,0.763484,0.024216
3,62,3,2,0,0,1,,1,S,0,S,15,0.772567,0.020926,0.016167
3,63,9,8,0,0,1,,1,S,0,S,27,0.773677,0.032201,0.024913
3,64,4,6,0,0,1,,2,S,0,S,15,0.024409,0.768216,0.018751
3,65,2,4,0,0,1,,2,S,0,S,16,0.021439,0.775258,0.016621
3,66,2,6,0,0,1,,4,S,0,S,14,0,0.794216,0
3,67,8,5,0,0,1,,3,S,0,S,15,0.756527,0.033083,0.025028
3,68,6,2,0,0,1,,4,S,0,S,14,0.798302,0,0
3,69,1,2,0,0,1,,1,S,0,S,24,0.036494,0.766921,0.027988
3,70,7,9,0,0,1,,2,S,0,S,17,0.040928,0.750934,0.030734
3,71,2,9,0,0,1,,7,L,0,S,13,0.002784,0.782737,0.002179
3,72,1,9,0,0,1,,8,L,0,S,12,0.015029,0.758856,0.011405
4,1,8,1,0,0,1,,7,L,0,S,13,0.780513,0.003685,0.002877
4,2,4,1,0,0,1,,3,S,0,S,14,0.769166,0.016748,0.012882
4,3,7,9,0,0,1,,2,S,0,S,18,0.044171,0.756782,0.033428
4,4,9,5,0,0,1,,4,S,0,S,14,0.754795,0.029236,0.022067
4,5,7,8,0,0,1,,1,S,0,S,17,0.034046,0.762483,0.025959
4,6,2,6,0,0,1,,4,S,0,S,15,0.006252,0.7909,0.004945
4,7,7,6,0,0,1,,1,S,0,S,20,0.770014,0.033646,0.025908
4,8,2,4,0,0,1,,2,S,0,S,15,0.028388,0.763711,0.02168
4,9,3,6,0,0,1,,3,S,0,S,16,0.011237,0.790713,0.008885
4,10,6,7,0,0,0,,1,S,0,S,21,0.78518,0.021041,0.016521
4,11,8,9,0,0,1,,1,S,0,S,18,0.026242,0.775752,0.020358
4,12,9,4,0,0,1,,5,S,0,S,15,0.760653,0.029162,0.022182
4,13,3,2,0,0,1,,1,S,0,S,24,0.793743,0.016795,0.013331
4,14,1,3,0,0,1,,2,S,0,S,18,0.03048,0.76829,0.023417
4,15,2,3,0,0,1,,1,S,0,S,18,0.036399,0.758877,0.027623
4,16,8,2,0,0,1,,6,S,0,S,15,0.771207,0.021052,0.016236
4,17,5,2,0,0,1,,3,S,0,S,16,0.768244,0.026673,0.020492
4,18,5,1,0,0,1,,4,S,0,S,13,0.758826,0.020355,0.015446
4,19,6,5,0,0,1,,1,S,0,S,16,0.766689,0.029135,0.022337
4,20,7,3,0,0,1,,4,S,0,S,15,0.767063,0.025268,0.019382
4,21,6,8,0,0,1,,2,S,0,S,17,0.025247,0.771885,0.019488
4,22,1,2,0,0,1,,1,S,0,S,19,0.031503,0.770866,0.024285
4,23,5,6,0,0,1,,1,S,0,S,21,0.038622,0.761478,0.02941
4,24,9,1,0,0,1,,8,L,0,S,12,0.760479,0.011629,0.008843
4,25,3,7,0,0,1,,4,S,0,S,16,0.012803,0.789076,0.010103
4,26,9,3,0,0,1,,6,S,0,S,14,0.776167,0.011099,0.008614
4,27,6,1,0,0,1,,5,S,0,S,13,0.784446,0.00186,0.001459
4,28,5,9,0,0,1,,4,S,0,S,16,0.029137,0.767657,0.022367
4,29,1,8,0,0,1,,7,L,0,S,13,0.020442,0.760973,0.015555
4,30,3,5,0,0,1,,2,S,0,S,19,0.038081,0.763983,0.029093
4,31,5,4,0,0,1,,1,S,0,S,25,0.755969,0.045654,0.034513
4,32,8,4,0,0,1,,4,S,0,S,19,0.796779,0.009516,0.007582
4,33,1,7,0,0,1,,6,S,0,S,15,0.004804,0.794766,0.003818
4,34,1,9,0,0,1,,8,L,0,S,13,0.029413,0.753383,0.022159
4,35,7,5,0,0,1,,2,S,0,S,16,0.780097,0.019965,0.015574
4,36,6,3,0,0,1,,3,S,0,S,15,0.756197,0.03235,0.024463
4,37,3,1,0,0,1,,2,S,0,S,14,0.752604,0.032315,0.024321
4,38,6,4,0,0,1,,2,S,0,S,18,0.762726,0.03683,0.028091
4,39,4,7,0,0,1,,3,S,0,S,17,0.016948,0.782563,0.013263
4,40,5,7,0,0,1,,2,S,0,S,22,0.012439,0.795216,0.009892
4,41,6,9,0,0,1,,3,S,0,S,18,0.030291,0.772468,0.023399
4,42,3,4,0,0,1,,1,S,0,S,17,0.008806,0.797796,0.007025
4,43,5,8,0,0,1,,3,S,0,S,16,0.006382,0.792038,0.005055
4,44,8,7,0,0,1,,1,S,0,S,21,0.761366,0.038545,0.029346
4,45,4,6,0,0,1,,2,S,0,S,17,0.014761,0.784971,0.011587
4,46,3,8,0,0,1,,5,S,0,S,14,0.008886,0.783483,0.006962
4,47,4,5,0,0,1,,1,S,0,S,24,0.048103,0.750686,0.03611
4,48,9,2,0,0,1,,7,L,0,S,14,0.790306,0.001789,0.001414
4,49,7,1,0,0,1,,6,S,0,S,13,0.790042,0,0
4,50,9,7,0,0,1,,2,S,0,S,16,0.774097,0.020844,0.016135
4,51,2,5,0,0,1,,3,S,0,S,17,0.010245,0.792568,0.00812
4,52,2,7,0,0,1,,5,S,0,S,15,0.007278,0.789922,0.005749
4,53,8,6,0,0,1,,2,S,0,S,22,0.792742,0.013651,0.010821
4,54,9,8,0,0,1,,1,S,0,S,26,0.767495,0.032111,0.024645
4,55,2,1,0,0,1,,1,S,0,S,16,0.797691,0.001918,0.00153
4,56,8,5,0,0,1,,3,S,0,S,16,0.758531,0.03412,0.025881
4,57,4,9,0,0,1,,5,S,0,S,15,0.006295,0.792215,0.004987
4,58,5,3,0,0,1,,2,S,0,S,17,0.786716,0.012597,0.00991
4,59,1,6,0,0,1,,5,S,0,S,15,0.003791,0.795727,0.003017
4,60,1,4,0,0,1,,3,S,0,S,15,0.025596,0.769052,0.019685
4,61,3,9,0,0,1,,6,S,0,S,14,0.020315,0.772976,0.015703
4,62,7,2,0,0,1,,5,S,0,S,15,0.787241,0.011166,0.00879
4,63,1,5,0,0,1,,4,S,0,S,16,0.04256,0.750458,0.031939
4,64,7,4,0,0,1,,3,S,0,S,18,0.785436,0.020221,0.015882
4,65,6,2,0,0,1,,4,S,0,S,15,0.777449,0.017516,0.013618
4,66,2,8,0,0,1,,6,S,0,S,13,0.022049,0.757216,0.016696
4,67,8,3,0,0,1,,5,S,0,S,16,0.798911,0.000561,0.000448
4,68,9,6,0,0,1,,3,S,0,S,16,0.770759,0.023168,0.017857
4,69,4,3,0,0,1,,1,S,0,S,21,0.767581,0.03124,0.02398
4,70,2,9,0,0,1,,7,L,0,S,14,0,0.803177,0
4,71,4,8,0,0,1,,4,S,0,S,14,0.028572,0.753998,0.021543
4,72,4,2,0,0,1,,2,S,0,S,19,0.758977,0.038304,0.029072
5,1,2,5,0,0,1,,3,S,0,S,16,0.022934,0.774363,0.017759
5,2,7,5,0,0,1,,2,S,0,S,14,0.75448,0.029569,0.022309
5,3,6,7,0,0,1,,1,S,0,S,19,0.046308,0.750386,0.034749
5,4,8,1,0,0,1,,7,L,0,S,13,0.776671,0.007141,0.005546
5,5,6,1,0,0,1,,5,S,0,S,13,0.753868,0.025733,0.0194
5,6,8,3,0,0,1,,5,S,0,S,14,0.762181,0.022886,0.017444
5,7,2,6,0,0,1,,4,S,0,S,14,0.014547,0.773145,0.011247
5,8,9,5,0,0,1,,4,S,0,S,14,0.775394,0.014992,0.011625
5,9,4,8,0,0,1,,4,S,0,S,14,0.006688,0.786073,0.005258
5,10,1,6,0,0,1,,5,S,0,S,14,0.01843,0.767892,0.014152
5,11,4,7,0,0,1,,3,S,0,S,15,0.010165,0.786028,0.00799
5,12,1,4,0,0,1,,3,S,0,S,15,0.002881,0.79431,0.002289
5,13,4,3,0,0,1,,1,S,0,S,21,0.788811,0.016597,0.013092
5,14,2,1,0,0,1,,1,S,0,S,18,0.761539,0.036811,0.028033
5,15,9,3,0,0,1,,6,S,0,S,13,0.754975,0.025284,0.019089
5,16,8,4,0,0,1,,4,S,0,S,17,0.754626,0.036222,0.027334
5,17,7,8,0,0,1,,1,S,0,S,23,0.036043,0.76557,0.027594
5,18,5,9,0,0,1,,4,S,0,S,15,0,0.800216,0
5,19,9,6,0,0,1,,3,S,0,S,16,0.758914,0.031657,0.024025
5,20,8,7,0,0,1,,1,S,0,S,24,0.772256,0.029988,0.023158
5,21,3,9,0,0,1,,6,S,0,S,13,0.018808,0.760518,0.014304
5,22,2,3,0,0,1,,1,S,0,S,18,0.031538,0.768064,0.024223
5,23,1,8,0,0,1,,7,L,0,S,13,0.008,0.779119,0.006233
5,24,5,3,0,0,1,,2,S,0,S,15,0.768632,0.024258,0.018645
5,25,3,7,0,0,1,,4,S,0,S,15,0.022409,0.76869,0.017225
5,26,6,8,0,0,1,,2,S,0,S,16,0.031354,0.763069,0.023925
5,27,6,2,0,0,1,,4,S,0,S,15,0.752997,0.036676,0.027617
5,28,8,5,0,0,1,,3,S,0,S,15,0.767467,0.022821,0.017514
5,29,3,8,0,0,1,,5,S,0,S,14,0.015334,0.773322,0.011858
5,30,2,9,0,0,1,,7,L,0,S,12,0.018942,0.754331,0.014288
5,31,1,5,0,0,1,,4,S,0,S,16,0.030978,0.763905,0.023664
5,32,4,9,0,0,1,,5,S,0,S,13,0.012265,0.770668,0.009452
5,33,1,2,0,0,1,,1,S,0,S,17,0.035533,0.762419,0.027091
5,34,4,1,0,0,1,,3,S,0,S,15,0.75814,0.031357,0.023773
5,35,7,9,0,0,1,,2,S,0,S,17,0.023464,0.772656,0.01813
5,36,7,1,0,0,1,,6,S,0,S,13,0.796131,0,0
5,37,6,9,0,0,1,,3,S,0,S,15,0.005512,0.790688,0.004359
5,38,5,1,0,0,1,,4,S,0,S,13,0.751017,0.028789,0.021621
5,39,7,6,0,0,1,,1,S,0,S,17,0.764427,0.027895,0.021324
5,40,7,2,0,0,1,,5,S,0,S,14,0.77943,0.011465,0.008936
5,41,2,4,0,0,1,,2,S,0,S,15,0,0.800387,0
5,42,9,8,0,0,1,,1,S,0,S,24,0.760374,0.042258,0.032132
5,43,1,9,0,0,1,,8,L,0,S,12,0.021034,0.751348,0.015804
5,44,8,2,0,0,1,,6,S,0,S,15,0.797965,0.000182,0.000145
5,45,5,8,0,0,1,,3,S,0,S,16,0.020681,0.778,0.01609
5,46,9,2,0,0,1,,7,L,0,S,14,0.797541,0,0
5,47,2,8,0,0,1,,6,S,0,S,13,0.005403,0.782699,0.004229
5,48,6,4,0,0,1,,2,S,0,S,21,0.786015,0.017538,0.013785
5,49,5,4,0,0,1,,1,S,0,S,22,0.780193,0.023824,0.018587
5,50,3,5,0,0,1,,2,S,0,S,24,0.032255,0.76926,0.024812
5,51,1,7,0,0,1,,6,S,0,S,14,0,0.796115,0
5,52,4,5,0,0,1,,1,S,0,S,21,0.027918,0.775,0.021637
5,53,1,3,0,0,1,,2,S,0,S,19,0.011491,0.794602,0.009131
5,54,4,2,0,0,1,,2,S,0,S,27,0.789708,0.018977,0.014987
5,55,3,2,0,0,1,,1,S,0,S,22,0.777947,0.025872,0.020127
5,56,3,1,0,0,1,,2,S,0,S,15,0.770464,0.020592,0.015866
5,57,3,4,0,0,1,,1,S,0,S,17,0.023783,0.770839,0.018333
5,58,5,7,0,0,1,,2,S,0,S,19,0.01983,0.785142,0.01557
5,59,3,6,0,0,1,,3,S,0,S,16,0.018793,0.772921,0.014525
5,60,5,2,0,0,1,,3,S,0,S,16,0.795667,0.007249,0.005768
5,61,8,6,0,0,1,,2,S,0,S,20,0.794892,0.006649,0.005286
5,62,9,1,0,0,1,,8,L,0,S,12,0.752214,0.020769,0.015623
5,63,4,6,0,0,1,,2,S,0,S,16,0.003391,0.79427,0.002694
5,64,8,9,0,0,1,,1,S,0,S,16,0.01165,0.784274,0.009137
5,65,6,3,0,0,1,,3,S,0,S,15,0.774672,0.018587,0.014399
5,66,2,7,0,0,1,,5,S,0,S,14,0,0.800561,0
5,67,7,4,0,0,1,,3,S,0,S,16,0.77503,0.018827,0.014592
5,68,7,3,0,0,1,,4,S,0,S,14,0.791534,0.000987,0.000782
5,69,6,5,0,0,1,,1,S,0,S,16,0.760206,0.032989,0.025078
5,70,5,6,0,0,1,,1,S,0,S,23,0.02564,0.776609,0.019912
5,71,9,7,0,0,1,,2,S,0,S,17,0.76093,0.035583,0.027076
5,72,9,4,0,0,1,,5,S,0,S,15,0.757057,0.031456,0.023814
6,1,1,4,0,0,1,,3,S,0,S,14,0.031332,0.751318,0.02354
6,2,8,3,0,0,1,,5,S,0,S,15,0.791671,0.004132,0.003271
6,3,7,1,0,0,1,,6,S,0,S,15,0.78988,0.008358,0.006602
6,4,9,2,0,0,1,,7,L,0,S,14,0.77345,0.01597,0.012352
6,5,8,1,0,0,1,,7,L,0,S,14,0.774575,0.015886,0.012305
6,6,1,6,0,0,1,,5,S,0,S,14,0.008135,0.783539,0.006374
6,7,3,4,0,0,1,,1,S,0,S,19,0.035344,0.763217,0.026975
6,8,5,9,0,0,1,,4,S,0,S,17,0.00983,0.794656,0.007811
6,9,7,2,0,0,1,,5,S,0,S,15,0.755146,0.033137,0.025023
6,10,1,3,0,0,1,,2,S,0,S,16,0.023898,0.771257,0.018432
6,11,4,3,0,0,1,,1,S,0,S,17,0.754156,0.038998,0.029411
6,12,6,1,0,0,1,,5,S,0,S,15,0.768065,0.024401,0.018741
6,13,3,1,0,0,1,,2,S,0,S,17,0.765915,0.034094,0.026113
6,14,5,8,0,0,1,,3,S,0,S,19,0.035676,0.766134,0.027333
6,15,7,5,0,0,1,,2,S,0,S,19,0.753982,0.045035,0.033956
6,16,8,2,0,0,1,,6,S,0,S,15,0.798266,0,0
6,17,4,8,0,0,1,,4,S,0,S,17,0.042998,0.750327,0.032263
6,18,9,6,0,0,1,,3,S,0,S,17,0.786583,0.01465,0.011523
6,19,2,5,0,0,1,,3,S,0,S,16,0.030685,0.764767,0.023467
6,20,1,9,0,0,1,,8,L,0,S,13,0.010329,0.774692,0.008002
6,21,1,2,0,0,1,,1,S,0,S,16,0.0323,0.760664,0.024569
6,22,6,3,0,0,1,,3,S,0,S,16,0.76781,0.025108,0.019278
6,23,7,8,0,0,1,,1,S,0,S,23,0.037146,0.764791,0.028409
6,24,5,2,0,0,1,,3,S,0,S,16,0.775829,0.021964,0.01704
6,25,5,3,0,0,1,,2,S,0,S,16,0.764584,0.030639,0.023426
6,26,5,4,0,0,1,,1,S,0,S,21,0.765934,0.035099,0.026883
6,27,6,7,0,0,1,,1,S,0,S,18,0.040304,0.755602,0.030454
6,28,2,1,0,0,1,,1,S,0,S,21,0.782694,0.022959,0.01797
6,29,8,5,0,0,1,,3,S,0,S,17,0.781463,0.019665,0.015368
6,30,2,7,0,0,1,,5,S,0,S,15,0.003461,0.7947,0.002751
6,31,9,8,0,0,1,,1,S,0,S,18,0.781644,0.020809,0.016265
6,32,2,9,0,0,1,,7,L,0,S,14,0.022185,0.764449,0.016959
6,33,6,4,0,0,1,,2,S,0,S,20,0.753141,0.041201,0.03103
6,34,6,8,0,0,1,,2,S,0,S,20,0.031828,0.768071,0.024446
6,35,5,7,0,0,1,,2,S,0,S,18,0.018808,0.786726,0.014797
6,36,9,4,0,0,1,,5,S,0,S,16,0.789976,0.008316,0.006569
6,37,1,5,0,0,1,,4,S,0,S,14,0.020049,0.770837,0.015454
6,38,7,4,0,0,1,,3,S,0,S,19,0.787706,0.014016,0.01104
6,39,4,5,0,0,1,,1,S,0,S,22,0.020632,0.787379,0.016245
6,40,6,9,0,0,1,,3,S,0,S,17,0.024915,0.771717,0.019227
6,41,8,4,0,0,1,,4,S,0,S,17,0.792666,0.006804,0.005394
6,42,4,7,0,0,1,,3,S,0,S,17,0.0095,0.793838,0.007542
6,43,4,1,0,0,1,,3,S,0,S,16,0.774792,0.023071,0.017876
6,44,1,8,0,0,1,,7,L,0,S,14,0,0.801168,0
6,45,3,8,0,0,1,,5,S,0,S,16,0.025739,0.771752,0.019864
6,46,3,5,0,0,1,,2,S,0,S,18,0.030942,0.772486,0.023902
6,47,9,1,0,0,1,,8,L,0,S,14,0.797319,0,0
6,48,4,2,0,0,1,,2,S,0,S,17,0.769889,0.026805,0.020637
6,49,3,7,0,0,1,,4,S,0,S,15,0.039354,0.751369,0.02957
6,50,2,8,0,0,1,,6,S,0,S,15,0.019563,0.773078,0.015124
6,51,7,3,0,0,1,,4,S,0,S,16,0.795874,0.004119,0.003278
6,52,5,1,0,0,1,,4,S,0,S,15,0.7669,0.028201,0.021627
6,53,8,9,0,0,1,,1,S,0,S,22,0.044283,0.754076,0.033393
6,54,3,6,0,0,1,,3,S,0,S,17,0.024564,0.775284,0.019044
6,55,2,3,0,0,1,,1,S,0,S,24,0.037875,0.762146,0.028866
6,56,4,9,0,0,1,,5,S,0,S,16,0.013543,0.78478,0.010628
6,57,8,6,0,0,1,,2,S,0,S,18,0.766021,0.031031,0.023771
6,58,5,6,0,0,1,,1,S,0,S,23,0.019897,0.788241,0.015684
6,59,2,4,0,0,1,,2,S,0,S,17,0.016752,0.780171,0.013069
6,60,6,5,0,0,1,,1,S,0,S,22,0.774156,0.030133,0.023328
6,61,2,6,0,0,1,,4,S,0,S,16,0.006795,0.792253,0.005383
6,62,3,2,0,0,1,,1,S,0,S,19,0.776958,0.025924,0.020142
6,63,4,6,0,0,1,,2,S,0,S,19,0.029256,0.770698,0.022547
6,64,9,7,0,0,1,,2,S,0,S,19,0.766333,0.035029,0.026844
6,65,7,6,0,0,1,,1,S,0,S,23,0.757907,0.041936,0.031784
6,66,6,2,0,0,1,,4,S,0,S,16,0.778346,0.017021,0.013248
6,67,9,3,0,0,1,,6,S,0,S,14,0.767678,0.020274,0.015564
6,68,7,9,0,0,1,,2,S,0,S,18,0.021323,0.779614,0.016623
6,69,9,5,0,0,1,,4,S,0,S,16,0.783368,0.01739,0.013623
6,70,1,7,0,0,1,,6,S,0,S,13,0.021133,0.761554,0.016094
6,71,8,7,0,0,1,,1,S,0,S,24,0.791898,0.015827,0.012533
6,72,3,9,0,0,1,,6,S,0,S,15,0.015868,0.780321,0.012382
7,1,1,8,0,0,1,,7,L,0,S,13,0.01345,0.772054,0.010384
7,2,6,2,0,0,1,,4,S,0,S,15,0.75984,0.0284,0.02158
7,3,2,3,0,0,1,,1,S,0,S,19,0.029559,0.767419,0.022684
7,4,7,8,0,0,1,,1,S,0,S,28,0.03506,0.770155,0.027002
7,5,8,5,0,0,1,,3,S,0,S,18,0.796234,0.009233,0.007351
7,6,8,3,0,0,1,,5,S,0,S,17,0.786485,0.015226,0.011975
7,7,1,6,0,0,1,,5,S,0,S,13,0.028435,0.751357,0.021365
7,8,1,4,0,0,1,,3,S,0,S,17,0.013409,0.790036,0.010593
7,9,4,3,0,0,1,,1,S,0,S,24,0.76477,0.035177,0.026902
7,10,7,3,0,0,1,,4,S,0,S,15,0.799826,0,0
7,11,5,6,0,0,1,,1,S,0,S,17,0.00668,0.798654,0.005335
7,12,1,7,0,0,1,,6,S,0,S,14,0.011712,0.779734,0.009132
7,13,8,7,0,0,0,,1,S,0,S,21,0.016692,0.791566,0.013213
7,14,2,1,0,0,1,,1,S,0,S,17,0.766428,0.02579,0.019766
7,15,2,7,0,0,1,,5,S,0,S,15,0.016332,0.775847,0.012671
7,16,6,1,0,0,1,,5,S,0,S,14,0.757689,0.023776,0.018015
7,17,3,8,0,0,1,,5,S,0,S,14,0.002672,0.792913,0.002119
7,18,2,6,0,0,1,,4,S,0,S,14,0.025742,0.758931,0.019536
7,19,9,6,0,0,1,,3,S,0,S,18,0.762681,0.034192,0.026077
7,20,4,2,0,0,1,,2,S,0,S,17,0.766472,0.029238,0.02241
7,21,6,4,0,0,1,,2,S,0,S,17,0.794169,0.007638,0.006066
7,22,9,5,0,0,1,,4,S,0,S,14,0.752018,0.030713,0.023097
7,23,6,8,0,0,1,,2,S,0,S,16,0.023313,0.771429,0.017985
7,24,6,5,0,0,1,,1,S,0,S,18,0.755386,0.037753,0.028518
7,25,5,2,0,0,1,,3,S,0,S,15,0.750775,0.038827,0.029151
7,26,9,1,0,0,1,,8,L,0,S,13,0.784504,0,0
7,27,8,4,0,0,1,,4,S,0,S,16,0.773654,0.025272,0.019552
7,28,3,5,0,0,1,,2,S,0,S,18,0.01143,0.792413,0.009057
7,29,9,8,0,0,1,,1,S,0,S,21,0.759142,0.040764,0.030946
7,30,4,7,0,0,1,,3,S,0,S,16,0.032537,0.759555,0.024714
7,31,4,5,0,0,1,,1,S,0,S,25,0.025716,0.777102,0.019984
7,32,1,5,0,0,1,,4,S,0,S,16,0.008264,0.791429,0.006541
7,33,2,4,0,0,1,,2,S,0,S,21,0.019785,0.78456,0.015523
7,34,6,3,0,0,1,,3,S,0,S,17,0.753186,0.037654,0.028361
7,35,3,4,0,0,1,,1,S,0,S,20,0.036789,0.765903,0.028177
7,36,4,9,0,0,1,,5,S,0,S,14,0.003521,0.788816,0.002778
7,37,9,2,0,0,1,,7,L,0,S,13,0.75908,0.021048,0.015977
7,38,6,7,0,0,1,,1,S,0,S,20,0.014814,0.78822,0.011676
7,39,2,5,0,0,1,,3,S,0,S,18,0.021292,0.776609,0.016535
7,40,7,4,0,0,1,,3,S,0,S,14,0.768379,0.02103,0.016159
7,41,5,9,0,0,1,,4,S,0,S,14,0.029285,0.758306,0.022207
7,42,5,3,0,0,1,,2,S,0,S,18,0.775952,0.025074,0.019457
7,43,9,7,0,0,1,,2,S,0,S,17,0.796308,0.005846,0.004655
7,44,7,6,0,0,1,,1,S,0,S,20,0.765349,0.035475,0.027151
7,45,1,9,0,0,1,,8,L,0,S,13,0,0.799282,0
7,46,8,1,0,0,1,,7,L,0,S,14,0.774388,0.014358,0.011119
7,47,5,1,0,0,1,,4,S,0,S,14,0.753404,0.030289,0.02282
7,48,7,5,0,0,1,,2,S,0,S,15,0.783552,0.011264,0.008826
7,49,7,9,0,0,1,,2,S,0,S,18,0.016678,0.786308,0.013114
7,50,2,9,0,0,1,,7,L,0,S,13,0.015011,0.766576,0.011507
7,51,3,2,0,0,1,,1,S,0,S,22,0.790279,0.017238,0.013622
7,52,5,7,0,0,1,,2,S,0,S,18,0.038122,0.760874,0.029006
7,53,4,6,0,0,1,,2,S,0,S,15,0.029229,0.760265,0.022222
7,54,9,3,0,0,1,,6,S,0,S,14,0.766568,0.019464,0.014921
7,55,6,9,0,0,1,,3,S,0,S,15,0.006643,0.788321,0.005237
7,56,7,2,0,0,1,,5,S,0,S,14,0.799726,0,0
7,57,8,2,0,0,1,,6,S,0,S,15,0.780752,0.015656,0.012223
7,58,5,8,0,0,1,,3,S,0,S,15,0.039967,0.750641,0.030001
7,59,4,8,0,0,1,,4,S,0,S,15,0.002484,0.795677,0.001977
7,60,1,3,0,0,1,,2,S,0,S,16,0.028528,0.765349,0.021834
7,61,2,8,0,0,1,,6,S,0,S,14,0.006186,0.785409,0.004858
7,62,5,4,0,0,1,,1,S,0,S,17,0.776545,0.025125,0.019511
7,63,8,9,0,0,1,,1,S,0,S,15,0.011489,0.78644,0.009036
7,64,9,4,0,0,1,,5,S,0,S,14,0.784345,0.007758,0.006085
7,65,8,6,0,0,0,,2,S,0,S,18,0.012719,0.793242,0.010089
7,66,1,2,0,0,1,,1,S,0,S,20,0.012543,0.794256,0.009962
7,67,3,1,0,0,1,,2,S,0,S,17,0.768277,0.027,0.020744
7,68,3,6,0,0,1,,3,S,0,S,14,0.021794,0.767179,0.01672
7,69,4,1,0,0,1,,3,S,0,S,15,0.750985,0.033513,0.025167
7,70,7,1,0,0,1,,6,S,0,S,13,0.774602,0.008047,0.006233
7,71,3,9,0,0,1,,6,S,0,S,13,0.012183,0.773213,0.00942
7,72,3,7,0,0,1,,4,S,0,S,15,0.011521,0.785165,0.009046
8,1,5,6,0,0,1,,1,S,0,S,22,0.045078,0.755719,0.034066
8,2,9,5,0,0,1,,4,S,0,S,15,0.79221,0.006623,0.005247
8,3,8,2,0,0,1,,6,S,0,S,16,0.767591,0.027748,0.021299
8,4,1,9,0,0,1,,8,L,0,S,14,0.002175,0.793946,0.001727
8,5,9,2,0,0,1,,7,L,0,S,13,0.752834,0.026612,0.020035
8,6,1,2,0,0,1,,1,S,0,S,19,0.020346,0.782217,0.015915
8,7,5,1,0,0,1,,4,S,0,S,13,0.763184,0.019242,0.014685
8,8,1,5,0,0,1,,4,S,0,S,15,0.026587,0.76617,0.02037
8,9,9,1,0,0,1,,8,L,0,S,12,0.781796,0,0
8,10,2,6,0,0,1,,4,S,0,S,15,0.006855,0.788859,0.005407
8,11,1,8,0,0,1,,7,L,0,S,13,0.018199,0.76444,0.013912
8,12,7,2,0,0,1,,5,S,0,S,14,0.769485,0.019359,0.014897
8,13,2,8,0,0,1,,6,S,0,S,13,0.007091,0.778664,0.005521
8,14,7,1,0,0,1,,6,S,0,S,12,0.762535,0.012504,0.009535
8,15,3,9,0,0,1,,6,S,0,S,14,0.035752,0.751083,0.026853
8,16,4,8,0,0,1,,4,S,0,S,15,0.010448,0.787612,0.008229
8,17,8,1,0,0,1,,7,L,0,S,13,0.776006,0.008962,0.006954
8,18,7,9,0,0,0,,2,S,0,S,22,0.779221,0.028454,0.022172
8,19,7,6,0,0,1,,1,S,0,S,16,0.774892,0.021653,0.016778
8,20,3,7,0,0,1,,4,S,0,S,17,0.009672,0.79569,0.007696
8,21,8,9,0,0,1,,1,S,0,S,17,0.018332,0.78564,0.014402
8,22,4,1,0,0,1,,3,S,0,S,13,0.759709,0.021739,0.016516
8,23,7,3,0,0,1,,4,S,0,S,15,0.781356,0.015969,0.012477
8,24,3,2,0,0,1,,1,S,0,S,24,0.791309,0.0164,0.012977
8,25,7,8,0,0,1,,1,S,0,S,20,0.04212,0.757988,0.031926
8,26,3,1,0,0,1,,2,S,0,S,14,0.772625,0.01617,0.012494
8,27,6,3,0,0,1,,3,S,0,S,18,0.75619,0.042051,0.031799
8,28,4,9,0,0,1,,5,S,0,S,16,0.013371,0.789789,0.01056
8,29,4,2,0,0,1,,2,S,0,S,17,0.759684,0.036753,0.027921
8,30,2,7,0,0,1,,5,S,0,S,15,0.000299,0.800144,0.000239
8,31,1,6,0,0,1,,5,S,0,S,15,0.029005,0.7608,0.022067
8,32,9,7,0,0,1,,2,S,0,S,15,0.788562,0.010061,0.007934
8,33,1,4,0,0,1,,3,S,0,S,17,0.039803,0.757245,0.030141
8,34,3,8,0,0,1,,5,S,0,S,14,0.009192,0.78342,0.007201
8,35,1,7,0,0,1,,6,S,0,S,15,0.021353,0.773679,0.01652
8,36,6,1,0,0,1,,5,S,0,S,13,0.773346,0.010295,0.007961
8,37,7,5,0,0,1,,2,S,0,S,16,0.77864,0.020491,0.015955
8,38,5,4,0,0,1,,1,S,0,S,18,0.773901,0.030017,0.02323
8,39,9,3,0,0,1,,6,S,0,S,14,0.777444,0.014815,0.011518
8,40,6,2,0,0,1,,4,S,0,S,16,0.762001,0.031307,0.023856
8,41,2,4,0,0,1,,2,S,0,S,16,0.033833,0.76137,0.025759
8,42,6,9,0,0,1,,3,S,0,S,17,0.016099,0.787432,0.012677
8,43,9,6,0,0,1,,3,S,0,S,15,0.788651,0.007725,0.006092
8,44,3,6,0,0,1,,3,S,0,S,17,0.021841,0.777237,0.016976
8,45,5,9,0,0,1,,4,S,0,S,16,0.019355,0.782398,0.015143
8,46,4,5,0,0,1,,1,S,0,S,21,0.034859,0.770149,0.026847
8,47,8,3,0,0,1,,5,S,0,S,18,0.765543,0.03551,0.027185
8,48,3,5,0,0,1,,2,S,0,S,17,0.018329,0.783993,0.014369
8,49,7,4,0,0,1,,3,S,0,S,14,0.756706,0.031496,0.023833
8,50,2,3,0,0,1,,1,S,0,S,16,0.003323,0.799691,0.002657
8,51,3,4,0,0,1,,1,S,0,S,23,0.048057,0.754971,0.036282
8,52,8,5,0,0,1,,3,S,0,S,24,0.78107,0.026736,0.020883
8,53,2,9,0,0,1,,7,L,0,S,13,0.024868,0.757247,0.018831
8,54,5,2,0,0,1,,3,S,0,S,17,0.77207,0.027157,0.020967
8,55,6,8,0,0,1,,2,S,0,S,15,0.036978,0.751801,0.0278
8,56,4,7,0,0,1,,3,S,0,S,20,0.042522,0.760479,0.032337
8,57,6,7,0,0,0,,1,S,0,S,29,0.780326,0.027815,0.021705
8,58,1,3,0,0,1,,2,S,0,S,16,0.034277,0.760839,0.026079
8,59,8,6,0,0,1,,2,S,0,S,24,0.78413,0.022269,0.017462
8,60,9,4,0,0,1,,5,S,0,S,14,0.797581,0,0
8,61,6,4,0,0,1,,2,S,0,S,17,0.778831,0.022854,0.017799
8,62,8,4,0,0,1,,4,S,0,S,17,0.785396,0.018462,0.0145
8,63,5,7,0,0,1,,2,S,0,S,21,0.034039,0.77224,0.026286
8,64,4,6,0,0,1,,2,S,0,S,21,0.043204,0.757181,0.032713
8,65,9,8,0,0,1,,1,S,0,S,20,0.751007,0.047228,0.035469
8,66,2,5,0,0,1,,3,S,0,S,15,0.004644,0.793842,0.003687
8,67,4,3,0,0,1,,1,S,0,S,21,0.76125,0.042566,0.032404
8,68,8,7,0,0,1,,1,S,0,S,26,0.751057,0.0519,0.03898
8,69,6,5,0,0,1,,1,S,0,S,25,0.783848,0.023821,0.018672
8,70,5,3,0,0,1,,2,S,0,S,20,0.752688,0.048784,0.036719
8,71,5,8,0,0,1,,3,S,0,S,15,0.014595,0.782479,0.01142
8,72,2,1,0,0,1,,1,S,0,S,16,0.78812,0.009676,0.007626
9,1,2,3,0,0,0,,1,S,0,S,21,0.768478,0.034687,0.026656
9,2,7,4,0,0,1,,3,S,0,S,16,0.791137,0.0096,0.007595
9,3,1,3,0,0,1,,2,S,0,S,17,0.017489,0.780316,0.013647
9,4,4,8,0,0,1,,4,S,0,S,17,0.015062,0.790602,0.011908
9,5,8,3,0,0,1,,5,S,0,S,14,0.789842,0.002216,0.00175
9,6,3,8,0,0,1,,5,S,0,S,16,0.005131,0.79995,0.004105
9,7,1,6,0,0,1,,5,S,0,S,13,0.01246,0.769981,0.009594
9,8,9,4,0,0,1,,5,S,0,S,13,0.767403,0.01621,0.012439
9,9,1,7,0,0,1,,6,S,0,S,13,0.028485,0.750409,0.021375
9,10,9,1,0,0,1,,8,L,0,S,12,0.784153,0,0
9,11,7,9,0,0,1,,2,S,0,S,18,0.021089,0.777636,0.0164
9,12,4,3,0,0,1,,1,S,0,S,16,0.766128,0.03035,0.023252
9,13,2,1,0,0,1,,1,S,0,S,15,0.765641,0.027016,0.020684
9,14,6,1,0,0,1,,5,S,0,S,13,0.755953,0.022609,0.017091
9,15,4,9,0,0,1,,5,S,0,S,15,0.023626,0.768472,0.018156
9,16,3,1,0,0,1,,2,S,0,S,14,0.752498,0.033548,0.025245
9,17,3,2,0,0,1,,1,S,0,S,31,0.787112,0.0231,0.018183
9,18,7,5,0,0,1,,2,S,0,S,18,0.772574,0.028501,0.022019
9,19,3,9,0,0,1,,6,S,0,S,14,0.031365,0.752972,0.023617
9,20,5,8,0,0,1,,3,S,0,S,18,0.027001,0.776982,0.020979
9,21,5,9,0,0,1,,4,S,0,S,16,0.012851,0.785215,0.010091
9,22,6,4,0,0,1,,2,S,0,S,17,0.791708,0.00937,0.007418
9,23,1,8,0,0,1,,7,L,0,S,13,0.021964,0.758911,0.016668
9,24,8,1,0,0,1,,7,L,0,S,13,0.797901,0,0
9,25,2,9,0,0,1,,7,L,0,S,14,0.008974,0.781765,0.007016
9,26,8,2,0,0,1,,6,S,0,S,15,0.797827,0.000376,0.0003
9,27,5,2,0,0,1,,3,S,0,S,17,0.752537,0.043627,0.032831
9,28,2,8,0,0,1,,6,S,0,S,15,0.008681,0.791373,0.00687
9,29,8,7,0,0,1,,1,S,0,S,17,0.750923,0.043112,0.032374
9,30,4,5,0,0,1,,1,S,0,S,21,0.017386,0.792711,0.013782
9,31,6,5,0,0,1,,1,S,0,S,21,0.794647,0.011671,0.009274
9,32,1,2,0,0,1,,1,S,0,S,15,0.023579,0.767285,0.018092
9,33,8,9,0,0,1,,1,S,0,S,25,0.026928,0.773498,0.020829
9,34,6,7,0,0,1,,1,S,0,S,23,0.020217,0.785978,0.01589
9,35,4,2,0,0,1,,2,S,0,S,19,0.770921,0.032768,0.025261
9,36,8,5,0,0,1,,3,S,0,S,16,0.77684,0.01992,0.015475
9,37,5,3,0,0,1,,2,S,0,S,15,0.750868,0.03862,0.028998
9,38,5,6,0,0,1,,1,S,0,S,17,0.019774,0.782216,0.015467
9,39,7,8,0,0,1,,1,S,0,S,33,0.036182,0.769938,0.027858
9,40,8,4,0,0,1,,4,S,0,S,15,0.795719,0.001989,0.001583
9,41,6,9,0,0,1,,3,S,0,S,17,0.012756,0.783794,0.009998
9,42,2,6,0,0,1,,4,S,0,S,14,0.028724,0.758911,0.021799
9,43,1,4,0,0,1,,3,S,0,S,15,0.021679,0.769702,0.016686
9,44,9,7,0,0,1,,2,S,0,S,14,0.750655,0.035087,0.026338
9,45,9,3,0,0,1,,6,S,0,S,13,0.796063,0,0
9,46,7,2,0,0,1,,5,S,0,S,16,0.794184,0.00723,0.005742
9,47,6,2,0,0,1,,4,S,0,S,17,0.795707,0.006237,0.004963
9,48,6,3,0,0,1,,3,S,0,S,15,0.772844,0.018447,0.014256
9,49,3,4,0,0,1,,1,S,0,S,32,0.029492,0.779198,0.02298
9,50,4,7,0,0,1,,3,S,0,S,17,0.039091,0.760446,0.029727
9,51,3,5,0,0,1,,2,S,0,S,18,0.011329,0.79626,0.009021
9,52,9,8,0,0,1,,1,S,0,S,15,0.788648,0.009466,0.007466
9,53,1,5,0,0,1,,4,S,0,S,14,0.014767,0.774314,0.011434
9,54,9,5,0,0,1,,4,S,0,S,14,0.783004,0.009628,0.007539
9,55,5,1,0,0,1,,4,S,0,S,14,0.799922,0,0
9,56,5,4,0,0,1,,1,S,0,S,18,0.795027,0.011625,0.009242
9,57,6,8,0,0,1,,2,S,0,S,20,0.041027,0.757724,0.031087
9,58,7,6,0,0,0,,1,S,0,S,21,0.020504,0.785083,0.016097
9,59,1,9,0,0,1,,8,L,0,S,13,0.000309,0.783462,0.000242
9,60,4,6,0,0,1,,2,S,0,S,16,0.020776,0.778883,0.016182
9,61,4,1,0,0,1,,3,S,0,S,14,0.783704,0.00984,0.007712
9,62,8,6,0,0,1,,2,S,0,S,21,0.795433,0.010727,0.008532
9,63,9,2,0,0,1,,7,L,0,S,13,0.768737,0.015228,0.011706
9,64,5,7,0,0,1,,2,S,0,S,19,0.028058,0.777435,0.021813
9,65,2,5,0,0,1,,3,S,0,S,16,0.026668,0.771542,0.020576
9,66,3,7,0,0,1,,4,S,0,S,16,0.020584,0.78056,0.016067
9,67,3,6,0,0,1,,3,S,0,S,15,0.020138,0.775536,0.015618
9,68,7,1,0,0,1,,6,S,0,S,13,0.775228,0.009696,0.007517
9,69,7,3,0,0,1,,4,S,0,S,14,0.752449,0.032082,0.02414
9,70,9,6,0,0,1,,3,S,0,S,15,0.759095,0.031153,0.023648
9,71,2,4,0,0,1,,2,S,0,S,19,0.036078,0.765768,0.027627
9,72,2,7,0,0,1,,5,S,0,S,15,0.02011,0.776912,0.015624
10,1,6,8,0,0,1,,2,S,0,S,15,0.033698,0.756552,0.025494
10,2,5,9,0,0,1,,4,S,0,S,16,0.018928,0.779766,0.01476
10,3,7,8,0,0,1,,1,S,0,S,19,0.012432,0.79018,0.009824
10,4,1,9,0,0,1,,8,L,0,S,12,0.016473,0.758418,0.012493
10,5,5,1,0,0,1,,4,S,0,S,14,0.763556,0.023788,0.018163
10,6,1,8,0,0,1,,7,L,0,S,12,0.022129,0.750446,0.016607
10,7,4,9,0,0,1,,5,S,0,S,15,0.026253,0.765296,0.020091
10,8,3,6,0,0,1,,3,S,0,S,16,0.029327,0.765821,0.022459
10,9,4,7,0,0,1,,3,S,0,S,17,0.035055,0.759496,0.026624
10,10,8,7,0,0,1,,1,S,0,S,20,0.759034,0.039563,0.03003
10,11,8,4,0,0,1,,4,S,0,S,15,0.794588,0.004717,0.003748
10,12,8,5,0,0,1,,3,S,0,S,16,0.758887,0.035017,0.026574
10,13,2,7,0,0,1,,5,S,0,S,14,0.023268,0.766039,0.017824
10,14,1,3,0,0,1,,2,S,0,S,15,0.035347,0.753794,0.026644
10,15,9,6,0,0,1,,3,S,0,S,18,0.75663,0.041258,0.031217
10,16,6,1,0,0,1,,5,S,0,S,15,0.779332,0.015352,0.011965
10,17,8,1,0,0,1,,7,L,0,S,13,0.757156,0.022836,0.01729
10,18,3,7,0,0,1,,4,S,0,S,15,0.012516,0.783077,0.009801
10,19,9,3,0,0,1,,6,S,0,S,14,0.753661,0.03245,0.024456
10,20,9,8,0,0,0,,1,S,0,S,18,0.033154,0.767003,0.025429
10,21,5,7,0,0,1,,2,S,0,S,19,0.028795,0.772577,0.022247
10,22,8,6,0,0,1,,2,S,0,S,17,0.786227,0.014744,0.011592
10,23,5,8,0,0,1,,3,S,0,S,16,0.04146,0.750554,0.031118
10,24,3,9,0,0,1,,6,S,0,S,14,0.005505,0.78838,0.00434
10,25,5,4,0,0,1,,1,S,0,S,16,0.75846,0.03673,0.027858
10,26,9,2,0,0,1,,7,L,0,S,14,0.7538,0.03025,0.022803
10,27,3,8,0,0,1,,5,S,0,S,14,0.015629,0.77486,0.01211
10,28,5,3,0,0,1,,2,S,0,S,15,0.767576,0.02511,0.019274
10,29,6,4,0,0,1,,2,S,0,S,18,0.76982,0.031737,0.024432
10,30,5,2,0,0,1,,3,S,0,S,15,0.768568,0.022189,0.017054
10,31,4,8,0,0,1,,4,S,0,S,16,0.007338,0.792772,0.005818
10,32,2,4,0,0,1,,2,S,0,S,18,0.026296,0.778556,0.020473
10,33,9,1,0,0,1,,8,L,0,S,14,0.792004,0.002437,0.00193
10,34,4,5,0,0,1,,1,S,0,S,25,0.049867,0.750543,0.037427
10,35,1,5,0,0,1,,4,S,0,S,14,0,0.803283,0
10,36,7,2,0,0,1,,5,S,0,S,15,0.800318,0,0
10,37,2,9,0,0,1,,7,L,0,S,13,0.023577,0.759888,0.017916
10,38,2,1,0,0,1,,1,S,0,S,19,0.780753,0.023589,0.018417
10,39,2,5,0,0,1,,3,S,0,S,15,0.037024,0.755209,0.027961
10,40,3,1,0,0,1,,2,S,0,S,17,0.773321,0.025027,0.019354
10,41,9,4,0,0,1,,5,S,0,S,15,0.761825,0.031614,0.024084
10,42,9,5,0,0,1,,4,S,0,S,18,0.790209,0.015642,0.01236
10,43,7,3,0,0,1,,4,S,0,S,15,0.800694,0,0
10,44,4,3,0,0,1,,1,S,0,S,16,0.776534,0.01997,0.015507
10,45,7,1,0,0,1,,6,S,0,S,14,0.787565,0.002906,0.002289
10,46,4,2,0,0,1,,2,S,0,S,16,0.778748,0.016028,0.012481
10,47,3,2,0,0,1,,1,S,0,S,20,0.768693,0.030717,0.023612
10,48,6,9,0,0,1,,3,S,0,S,15,0.017751,0.777487,0.013801
10,49,6,5,0,0,0,,1,S,0,S,22,0.044802,0.757147,0.033922
10,50,5,6,0,0,0,,1,S,0,S,23,0.776006,0.029122,0.022599
10,51,7,6,0,0,1,,1,S,0,S,18,0.757943,0.036653,0.027781
10,52,8,2,0,0,1,,6,S,0,S,14,0.777563,0.010799,0.008397
10,53,1,6,0,0,1,,5,S,0,S,13,0.025723,0.754496,0.019408
10,54,7,5,0,0,1,,2,S,0,S,18,0.789656,0.012632,0.009975
10,55,1,4,0,0,1,,3,S,0,S,14,0.032961,0.753613,0.02484
10,56,8,9,0,0,1,,1,S,0,S,19,0.044886,0.752293,0.033768
10,57,6,2,0,0,1,,4,S,0,S,16,0.768855,0.024749,0.019028
10,58,9,7,0,0,0,,2,S,0,S,26,0.042704,0.760035,0.032456
10,59,4,6,0,0,1,,2,S,0,S,22,0.035176,0.766437,0.02696
10,60,4,1,0,0,1,,3,S,0,S,15,0.78569,0.00946,0.007433
10,61,2,3,0,0,1,,1,S,0,S,24,0.043605,0.76016,0.033147
10,62,6,7,0,0,1,,1,S,0,S,17,0.019273,0.780881,0.01505
10,63,7,4,0,0,1,,3,S,0,S,15,0.758313,0.031083,0.02357
10,64,1,2,0,0,1,,1,S,0,S,16,0.007557,0.790365,0.005973
10,65,3,5,0,0,1,,2,S,0,S,16,0.042228,0.750572,0.031695
10,66,3,4,0,0,1,,1,S,0,S,21,0.043418,0.75883,0.032947
10,67,2,6,0,0,1,,4,S,0,S,15,0.027845,0.765787,0.021324
10,68,2,8,0,0,1,,6,S,0,S,14,0,0.801789,0
10,69,1,7,0,0,1,,6,S,0,S,13,0.003265,0.783682,0.002559
10,70,6,3,0,0,1,,3,S,0,S,16,0.765912,0.029287,0.022432
10,71,8,3,0,0,1,,5,S,0,S,14,0.778159,0.012351,0.009611
10,72,7,9,0,0,1,,2,S,0,S,18,0.009294,0.793102,0.007371
11,1,6,2,0,0,1,,4,S,0,S,17,0.796597,0.007299,0.005814
11,2,3,4,0,0,1,,1,S,0,S,22,0.041395,0.763704,0.031613
11,3,2,7,0,0,1,,5,S,0,S,14,0,0.799889,0
11,4,8,3,0,0,1,,5,S,0,S,14,0.760284,0.029163,0.022172
11,5,2,4,0,0,1,,2,S,0,S,16,0.019115,0.782519,0.014958
11,6,9,7,0,0,1,,2,S,0,S,21,0.775133,0.02915,0.022595
11,7,1,8,0,0,1,,7,L,0,S,14,0,0.797129,0
11,8,4,7,0,0,1,,3,S,0,S,18,0.032374,0.766474,0.024814
11,9,1,3,0,0,1,,2,S,0,S,19,0.03337,0.76932,0.025672
11,10,1,5,0,0,1,,4,S,0,S,17,0.013261,0.790466,0.010482
11,11,3,7,0,0,1,,4,S,0,S,15,0.016673,0.77807,0.012972
11,12,9,6,0,0,1,,3,S,0,S,18,0.767622,0.035049,0.026905
11,13,9,4,0,0,1,,5,S,0,S,15,0.794223,0.007259,0.005765
11,14,6,8,0,0,1,,2,S,0,S,17,0.010772,0.791339,0.008524
11,15,8,5,0,0,1,,3,S,0,S,15,0.767443,0.027284,0.020939
11,16,6,5,0,0,1,,1,S,0,S,18,0.789041,0.014683,0.011586
11,17,1,4,0,0,1,,3,S,0,S,17,0.012998,0.792146,0.010296
11,18,4,5,0,0,0,,1,S,0,S,17,0.782241,0.020096,0.01572
11,19,7,8,0,0,1,,1,S,0,S,19,0.026252,0.774949,0.020344
11,20,5,9,0,0,1,,4,S,0,S,16,0.013617,0.78789,0.010729
11,21,7,1,0,0,1,,6,S,0,S,14,0.800124,0,0
11,22,4,3,0,0,1,,1,S,0,S,15,0.753043,0.038059,0.02866
11,23,1,2,0,0,1,,1,S,0,S,18,0.023199,0.780299,0.018102
11,24,7,3,0,0,1,,4,S,0,S,15,0.779861,0.015367,0.011984
11,25,4,2,0,0,1,,2,S,0,S,16,0.778606,0.020956,0.016316
11,26,3,5,0,0,1,,2,S,0,S,22,0.03775,0.766778,0.028946
11,27,4,1,0,0,1,,3,S,0,S,14,0.786481,0.005663,0.004454
11,28,7,9,0,0,1,,2,S,0,S,24,0.030842,0.774551,0.023889
11,29,5,8,0,0,1,,3,S,0,S,15,0.019483,0.775084,0.015101
11,30,6,4,0,0,1,,2,S,0,S,18,0.794222,0.011651,0.009253
11,31,5,4,0,0,1,,1,S,0,S,26,0.773945,0.033422,0.025867
11,32,5,6,0,0,1,,1,S,0,S,16,0.025873,0.772401,0.019985
11,33,9,1,0,0,1,,8,L,0,S,13,0.780279,0.006186,0.004827
11,34,5,7,0,0,1,,2,S,0,S,15,0.035248,0.753103,0.026546
11,35,1,7,0,0,1,,6,S,0,S,14,0.008428,0.78337,0.006602
11,36,6,7,0,0,1,,1,S,0,S,17,0.038236,0.754728,0.028858
11,37,2,5,0,0,1,,3,S,0,S,16,0.019429,0.780789,0.01517
11,38,7,5,0,0,1,,2,S,0,S,16,0.774792,0.021843,0.016924
11,39,8,1,0,0,1,,7,L,0,S,13,0.768611,0.01509,0.011598
11,40,1,9,0,0,1,,8,L,0,S,14,0.016114,0.776455,0.012511
11,41,4,6,0,0,1,,2,S,0,S,20,0.045013,0.757067,0.034078
11,42,4,9,0,0,1,,5,S,0,S,19,0.038966,0.76333,0.029744
11,43,6,9,0,0,1,,3,S,0,S,18,0.032733,0.767393,0.025119
11,44,2,1,0,0,1,,1,S,0,S,19,0.753882,0.043235,0.032594
11,45,5,3,0,0,1,,2,S,0,S,18,0.753742,0.044031,0.033188
11,46,3,6,0,0,1,,3,S,0,S,15,0.039208,0.752426,0.029501
11,47,9,8,0,0,1,,1,S,0,S,25,0.773129,0.033669,0.026031
11,48,7,6,0,0,1,,1,S,0,S,32,0.786949,0.0217,0.017077
11,49,1,6,0,0,1,,5,S,0,S,14,0.022625,0.76809,0.017378
11,50,9,3,0,0,1,,6,S,0,S,14,0.778329,0.015151,0.011793
11,51,2,8,0,0,1,,6,S,0,S,13,0.023682,0.759139,0.017978
11,52,8,9,0,0,0,,1,S,0,S,22,0.791319,0.019638,0.01554
11,53,4,8,0,0,1,,4,S,0,S,17,0.034206,0.763737,0.026124
11,54,3,9,0,0,1,,6,S,0,S,15,0.028911,0.765583,0.022134
11,55,6,1,0,0,1,,5,S,0,S,14,0.771283,0.01587,0.01224
11,56,3,1,0,0,1,,2,S,0,S,15,0.752141,0.036057,0.02712
11,57,8,2,0,0,1,,6,S,0,S,15,0.795385,0.005634,0.004481
11,58,9,5,0,0,1,,4,S,0,S,15,0.791021,0.008777,0.006943
11,59,5,1,0,0,1,,4,S,0,S,15,0.773362,0.018875,0.014597
11,60,7,4,0,0,1,,3,S,0,S,16,0.778765,0.019784,0.015407
11,61,6,3,0,0,1,,3,S,0,S,16,0.777189,0.020637,0.016039
11,62,3,2,0,0,1,,1,S,0,S,24,0.791882,0.018484,0.014638
11,63,9,2,0,0,1,,7,L,0,S,14,0.763589,0.026387,0.020149
11,64,7,2,0,0,1,,5,S,0,S,15,0.759683,0.030878,0.023458
11,65,5,2,0,0,1,,3,S,0,S,20,0.775298,0.02903,0.022507
11,66,2,6,0,0,1,,4,S,0,S,14,0.008755,0.786866,0.006889
11,67,2,3,0,0,1,,1,S,0,S,18,0.012293,0.795079,0.009774
11,68,2,9,0,0,1,,7,L,0,S,14,0.003017,0.794199,0.002396
11,69,3,8,0,0,1,,5,S,0,S,15,0.003082,0.797062,0.002456
11,70,8,6,0,0,1,,2,S,0,S,20,0.772296,0.033735,0.026053
11,71,8,4,0,0,1,,4,S,0,S,15,0.770898,0.025616,0.019747
11,72,8,7,0,0,1,,1,S,0,S,33,0.783862,0.024238,0.018999
12,1,9,7,0,0,1,,2,S,0,S,20,0.779073,0.026039,0.020286
12,2,4,2,0,0,1,,2,S,0,S,19,0.784331,0.020936,0.016421
12,3,1,6,0,0,1,,5,S,0,S,14,0.032471,0.750292,0.024363
12,4,7,9,0,0,1,,2,S,0,S,20,0.010638,0.796134,0.00847
12,5,8,2,0,0,1,,6,S,0,S,14,0.764619,0.022225,0.016994
12,6,9,8,0,0,0,,1,S,0,S,29,0.030974,0.774657,0.023994
12,7,6,2,0,0,1,,4,S,0,S,18,0.787376,0.018048,0.01421
12,8,5,3,0,0,1,,2,S,0,S,17,0.798549,0.004208,0.00336
12,9,1,8,0,0,1,,7,L,0,S,13,0.024407,0.756538,0.018465
12,10,9,2,0,0,1,,7,L,0,S,15,0.794003,0.003958,0.003143
12,11,3,4,0,0,1,,1,S,0,S,25,0.030867,0.772333,0.023839
12,12,9,6,0,0,1,,3,S,0,S,17,0.763875,0.031002,0.023682
12,13,9,1,0,0,1,,8,L,0,S,12,0.775084,0.002692,0.002087
12,14,3,8,0,0,1,,5,S,0,S,15,0.010545,0.78611,0.00829
12,15,7,1,0,0,1,,6,S,0,S,12,0.776403,0.001998,0.001551
12,16,9,3,0,0,1,,6,S,0,S,15,0.792359,0.003813,0.003021
12,17,2,1,0,0,1,,1,S,0,S,14,0.78488,0.005907,0.004636
12,18,4,6,0,0,1,,2,S,0,S,19,0.012972,0.792318,0.010278
12,19,9,4,0,0,1,,5,S,0,S,15,0.77281,0.019649,0.015185
12,20,8,7,0,0,1,,1,S,0,S,18,0.781117,0.021414,0.016727
12,21,5,9,0,0,1,,4,S,0,S,16,0.012959,0.786249,0.010189
12,22,3,2,0,0,1,,1,S,0,S,23,0.756604,0.043851,0.033178
12,23,6,5,0,0,1,,1,S,0,S,26,0.757669,0.046788,0.03545
12,24,8,6,0,0,1,,2,S,0,S,16,0.76235,0.029225,0.02228
12,25,7,6,0,0,1,,1,S,0,S,17,0.769239,0.027174,0.020903
12,26,3,5,0,0,1,,2,S,0,S,19,0.025468,0.776925,0.019787
12,27,2,9,0,0,1,,7,L,0,S,14,0,0.798391,0
12,28,5,8,0,0,1,,3,S,0,S,17,0.022209,0.778395,0.017288
12,29,6,1,0,0,1,,5,S,0,S,13,0.791739,0,0
12,30,4,9,0,0,1,,5,S,0,S,15,0.006706,0.791895,0.005311
12,31,5,6,0,0,1,,1,S,0,S,32,0.04354,0.75708,0.032963
12,32,7,2,0,0,1,,5,S,0,S,15,0.796713,0.002183,0.001739
12,33,1,3,0,0,1,,2,S,0,S,17,0.015114,0.783991,0.01185
12,34,8,1,0,0,1,,7,L,0,S,12,0.783201,0,0
12,35,4,1,0,0,1,,3,S,0,S,13,0.782787,0.004453,0.003486
12,36,4,5,0,0,1,,1,S,0,S,23,0.04789,0.754307,0.036124
12,37,1,7,0,0,1,,6,S,0,S,14,0.004246,0.790709,0.003358
12,38,2,5,0,0,1,,3,S,0,S,16,0.040259,0.751018,0.030235
12,39,1,2,0,0,1,,1,S,0,S,17,0.009965,0.792466,0.007897
12,40,7,3,0,0,1,,4,S,0,S,15,0.795065,0.002049,0.001629
12,41,4,8,0,0,1,,4,S,0,S,15,0.036497,0.754738,0.027545
12,42,2,8,0,0,1,,6,S,0,S,14,0.014535,0.775664,0.011275
12,43,8,9,0,0,1,,1,S,0,S,24,0.020997,0.78392,0.01646
12,44,6,3,0,0,1,,3,S,0,S,18,0.788189,0.01581,0.012461
12,45,7,4,0,0,1,,3,S,0,S,15,0.775854,0.017639,0.013685
12,46,8,3,0,0,1,,5,S,0,S,14,0.762923,0.022107,0.016866
12,47,5,2,0,0,1,,3,S,0,S,16,0.75049,0.041341,0.031026
12,48,3,6,0,0,1,,3,S,0,S,17,0.023678,0.773174,0.018307
12,49,1,9,0,0,1,,8,L,0,S,13,0.009643,0.775056,0.007474
12,50,6,7,0,0,1,,1,S,0,S,17,0.023049,0.780987,0.018001
12,51,1,4,0,0,1,,3,S,0,S,16,0.022301,0.773036,0.017239
12,52,2,4,0,0,1,,2,S,0,S,18,0.029993,0.76758,0.023022
12,53,2,7,0,0,1,,5,S,0,S,14,0.035121,0.750118,0.026345
12,54,6,4,0,0,1,,2,S,0,S,19,0.769894,0.032356,0.024911
12,55,1,5,0,0,1,,4,S,0,S,15,0.022359,0.770719,0.017232
12,56,7,8,0,0,1,,1,S,0,S,36,0.028708,0.778208,0.022341
12,57,3,1,0,0,1,,2,S,0,S,13,0.762734,0.018224,0.0139
12,58,4,7,0,0,1,,3,S,0,S,16,0.037407,0.758897,0.028388
12,59,8,5,0,0,1,,3,S,0,S,15,0.765194,0.025925,0.019838
12,60,3,9,0,0,1,,6,S,0,S,14,0.022521,0.764639,0.01722
12,61,2,3,0,0,1,,1,S,0,S,20,0.020221,0.781607,0.015805
12,62,8,4,0,0,1,,4,S,0,S,15,0.797383,0,0
12,63,6,8,0,0,1,,2,S,0,S,16,0.015589,0.786232,0.012257
12,64,4,3,0,0,1,,1,S,0,S,19,0.786727,0.017397,0.013686
12,65,9,5,0,0,1,,4,S,0,S,16,0.782754,0.015865,0.012419
12,66,5,4,0,0,1,,1,S,0,S,17,0.75899,0.036116,0.027412
12,67,6,9,0,0,1,,3,S,0,S,15,0.01827,0.777984,0.014213
12,68,2,6,0,0,1,,4,S,0,S,16,0.001364,0.798449,0.001089
12,69,7,5,0,0,1,,2,S,0,S,16,0.786521,0.013265,0.010433
12,70,3,7,0,0,1,,4,S,0,S,15,0.038914,0.750917,0.029221
12,71,5,1,0,0,1,,4,S,0,S,13,0.802284,0,0
12,72,5,7,0,0,1,,2,S,0,S,19,0.018081,0.78861,0.014259
13,1,9,1,0,0,1,,8,L,0,S,14,0.792534,0.003554,0.002817
13,2,9,3,0,0,1,,6,S,0,S,15,0.762942,0.029687,0.02265
13,3,8,2,0,0,1,,6,S,0,S,15,0.788434,0.007258,0.005723
13,4,3,7,0,0,1,,4,S,0,S,14,0.033216,0.753246,0.025019
13,5,1,6,0,0,1,,5,S,0,S,14,0.017618,0.770882,0.013581
13,6,7,5,0,0,1,,2,S,0,S,17,0.755997,0.039122,0.029576
13,7,3,1,0,0,1,,2,S,0,S,20,0.773066,0.029668,0.022935
13,8,9,5,0,0,1,,4,S,0,S,16,0.787181,0.014756,0.011616
13,9,2,1,0,0,1,,1,S,0,S,19,0.793149,0.013864,0.010996
13,10,5,4,0,0,1,,1,S,0,S,19,0.754514,0.042949,0.032406
13,11,7,2,0,0,1,,5,S,0,S,15,0.759569,0.031079,0.023607
13,12,2,8,0,0,1,,6,S,0,S,15,0.0071,0.79259,0.005627
13,13,9,4,0,0,1,,5,S,0,S,15,0.757644,0.035664,0.02702
13,14,5,1,0,0,1,,4,S,0,S,15,0.759658,0.029521,0.022426
13,15,1,2,0,0,1,,1,S,0,S,16,0.016951,0.780315,0.013227
13,16,6,2,0,0,1,,4,S,0,S,15,0.769167,0.023155,0.01781
13,17,6,5,0,0,1,,1,S,0,S,17,0.774921,0.023727,0.018386
13,18,6,8,0,0,1,,2,S,0,S,23,0.015332,0.792348,0.012148
13,19,1,7,0,0,1,,6,S,0,S,13,0.019482,0.76283,0.014862
13,20,4,7,0,0,1,,3,S,0,S,16,0.02568,0.773466,0.019863
13,21,2,7,0,0,1,,5,S,0,S,15,0.007012,0.79339,0.005563
13,22,7,3,0,0,1,,4,S,0,S,17,0.796948,0.005694,0.004538
13,23,2,9,0,0,1,,7,L,0,S,14,0.032335,0.75331,0.024358
13,24,8,5,0,0,1,,3,S,0,S,16,0.761124,0.031336,0.023851
13,25,3,5,0,0,1,,2,S,0,S,17,0.01753,0.784082,0.013745
13,26,5,2,0,0,1,,3,S,0,S,17,0.789219,0.011822,0.00933
13,27,3,2,0,0,0,,1,S,0,S,22,0.025932,0.779829,0.020222
13,28,8,6,0,0,1,,2,S,0,S,17,0.761459,0.033235,0.025307
13,29,7,6,0,0,1,,1,S,0,S,19,0.77544,0.026672,0.020683
13,30,1,9,0,0,1,,8,L,0,S,13,0.013316,0.768745,0.010237
13,31,9,7,0,0,1,,2,S,0,S,22,0.787789,0.022427,0.017667
13,32,9,8,0,0,1,,1,S,0,S,22,0.780108,0.027982,0.021829
13,33,1,8,0,0,1,,7,L,0,S,13,0.019591,0.762022,0.014929
13,34,1,4,0,0,1,,3,S,0,S,15,0.007831,0.789357,0.006181
13,35,6,9,0,0,1,,3,S,0,S,20,0.029923,0.770257,0.023048
13,36,7,9,0,0,1,,2,S,0,S,19,0.032215,0.766894,0.024706
13,37,6,3,0,0,1,,3,S,0,S,16,0.762619,0.030043,0.022912
13,38,7,1,0,0,1,,6,S,0,S,14,0.755826,0.02964,0.022403
13,39,9,6,0,0,1,,3,S,0,S,17,0.7937,0.011727,0.009308
13,40,3,4,0,0,1,,1,S,0,S,17,0.040385,0.756129,0.030536
13,41,2,5,0,0,1,,3,S,0,S,17,0.04187,0.754653,0.031597
13,42,8,7,0,0,1,,1,S,0,S,25,0.763842,0.038255,0.029221
13,43,4,3,0,0,1,,1,S,0,S,23,0.793201,0.015627,0.012396
13,44,5,9,0,0,1,,4,S,0,S,17,0.013289,0.785817,0.010443
13,45,2,4,0,0,1,,2,S,0,S,18,0.034383,0.767407,0.026385
13,46,4,8,0,0,1,,4,S,0,S,16,0.025621,0.772808,0.0198
13,47,8,9,0,0,1,,1,S,0,S,24,0.029215,0.772067,0.022556
13,48,4,6,0,0,1,,2,S,0,S,20,0.014516,0.79407,0.011527
13,49,2,3,0,0,1,,1,S,0,S,19,0.022502,0.781407,0.017583
13,50,2,6,0,0,1,,4,S,0,S,16,0.03705,0.757776,0.028076
13,51,4,1,0,0,1,,3,S,0,S,16,0.776374,0.022212,0.017245
13,52,4,9,0,0,1,,5,S,0,S,16,0.008273,0.793094,0.006561
13,53,7,8,0,0,1,,1,S,0,S,21,0.023986,0.781175,0.018737
13,54,3,8,0,0,1,,5,S,0,S,14,0.033276,0.752457,0.025039
13,55,8,4,0,0,1,,4,S,0,S,16,0.784285,0.014014,0.010991
13,56,8,3,0,0,1,,5,S,0,S,16,0.78993,0.007726,0.006103
13,57,4,5,0,0,1,,1,S,0,S,25,0.016202,0.794628,0.012874
13,58,7,4,0,0,1,,3,S,0,S,17,0.78797,0.014726,0.011603
13,59,5,6,0,0,1,,1,S,0,S,28,0.039927,0.761563,0.030407
13,60,5,7,0,0,1,,2,S,0,S,17,0.03868,0.756121,0.029247
13,61,8,1,0,0,1,,7,L,0,S,14,0.776917,0.012127,0.009422
13,62,6,7,0,0,1,,1,S,0,S,23,0.018901,0.788717,0.014908
13,63,6,4,0,0,1,,2,S,0,S,16,0.754459,0.038334,0.028921
13,64,9,2,0,0,1,,7,L,0,S,14,0.755366,0.032604,0.024628
13,65,1,5,0,0,1,,4,S,0,S,15,0,0.800438,0
13,66,5,8,0,0,1,,3,S,0,S,17,0.038427,0.755669,0.029038
13,67,1,3,0,0,1,,2,S,0,S,15,0.015926,0.776629,0.012368
13,68,6,1,0,0,1,,5,S,0,S,14,0.76267,0.023936,0.018255
13,69,4,2,0,0,1,,2,S,0,S,18,0.776165,0.02671,0.020731
13,70,3,6,0,0,1,,3,S,0,S,16,0.01949,0.778782,0.015178
13,71,5,3,0,0,1,,2,S,0,S,19,0.779224,0.021328,0.016619
13,72,3,9,0,0,1,,6,S,0,S,14,0.023249,0.763836,0.017758
14,1,9,4,0,0,1,,5,S,0,S,14,0.753948,0.032025,0.024145
14,2,6,3,0,0,1,,3,S,0,S,17,0.753549,0.040468,0.030495
14,3,8,5,0,0,1,,3,S,0,S,17,0.782478,0.019158,0.014991
14,4,3,1,0,0,1,,2,S,0,S,14,0.754314,0.029557,0.022295
14,5,7,2,0,0,1,,5,S,0,S,16,0.784359,0.016517,0.012955
14,6,4,6,0,0,1,,2,S,0,S,18,0.030831,0.76689,0.023644
14,7,9,6,0,0,1,,3,S,0,S,16,0.768238,0.025935,0.019924
14,8,1,7,0,0,1,,6,S,0,S,14,0.010193,0.779235,0.007943
14,9,5,6,0,0,1,,1,S,0,S,23,0.03032,0.769572,0.023334
14,10,3,9,0,0,1,,6,S,0,S,15,0.011688,0.784242,0.009166
14,11,2,5,0,0,1,,3,S,0,S,15,0.004366,0.792548,0.00346
14,12,6,7,0,0,1,,1,S,0,S,23,0.015267,0.788667,0.012041
14,13,8,7,0,0,1,,1,S,0,S,24,0.75809,0.041195,0.03123
14,14,7,1,0,0,1,,6,S,0,S,14,0.798998,0,0
14,15,2,8,0,0,1,,6,S,0,S,14,0,0.798386,0
14,16,9,1,0,0,1,,8,L,0,S,12,0.754875,0.017647,0.013321
14,17,2,1,0,0,1,,1,S,0,S,18,0.755852,0.037352,0.028233
14,18,4,3,0,0,1,,1,S,0,S,25,0.750658,0.04991,0.037465
14,19,5,2,0,0,1,,3,S,0,S,16,0.797846,0.002302,0.001837
14,20,1,4,0,0,1,,3,S,0,S,16,0.004859,0.797683,0.003876
14,21,3,4,0,0,1,,1,S,0,S,23,0.019296,0.78846,0.015215
14,22,7,6,0,0,0,,1,S,0,S,20,0.025877,0.778298,0.02014
14,23,6,1,0,0,1,,5,S,0,S,13,0.763164,0.01724,0.013157
14,24,9,5,0,0,1,,4,S,0,S,15,0.783199,0.013318,0.01043
14,25,9,2,0,0,1,,7,L,0,S,14,0.802873,0,0
14,26,5,4,0,0,1,,1,S,0,S,18,0.774696,0.024729,0.019158
14,27,1,5,0,0,1,,4,S,0,S,15,0.019123,0.775892,0.014837
14,28,1,3,0,0,1,,2,S,0,S,15,0.031303,0.759788,0.023783
14,29,4,1,0,0,1,,3,S,0,S,14,0.778969,0.01085,0.008452
14,30,6,8,0,0,1,,2,S,0,S,21,0.020036,0.783086,0.01569
14,31,6,4,0,0,1,,2,S,0,S,17,0.77695,0.022408,0.01741
14,32,8,3,0,0,1,,5,S,0,S,16,0.756895,0.036682,0.027765
14,33,4,8,0,0,1,,4,S,0,S,17,0.009931,0.791546,0.00786
14,34,8,4,0,0,1,,4,S,0,S,16,0.774372,0.023324,0.018062
14,35,7,5,0,0,1,,2,S,0,S,22,0.778319,0.029262,0.022776
14,36,1,2,0,0,1,,1,S,0,S,18,0.034761,0.763993,0.026557
14,37,5,3,0,0,1,,2,S,0,S,19,0.789561,0.013777,0.010877
14,38,8,6,0,0,1,,2,S,0,S,20,0.770377,0.030478,0.023479
14,39,6,9,0,0,1,,3,S,0,S,18,0.015889,0.786316,0.012494
14,40,3,6,0,0,1,,3,S,0,S,17,0.01243,0.787949,0.009794
14,41,4,7,0,0,1,,3,S,0,S,17,0.026697,0.768945,0.020528
14,42,6,2,0,0,1,,4,S,0,S,15,0.774178,0.019029,0.014732
14,43,8,9,0,0,1,,1,S,0,S,19,0.042089,0.756267,0.031831
14,44,2,4,0,0,1,,2,S,0,S,15,0.023006,0.768513,0.01768
14,45,5,1,0,0,1,,4,S,0,S,14,0.802144,0,0
14,46,8,2,0,0,1,,6,S,0,S,15,0.800907,0,0
14,47,2,9,0,0,1,,7,L,0,S,13,0.013473,0.768787,0.010358
14,48,2,6,0,0,1,,4,S,0,S,14,0.011284,0.776564,0.008763
14,49,7,3,0,0,1,,4,S,0,S,20,0.776909,0.02876,0.022344
14,50,3,2,0,0,1,,1,S,0,S,18,0.765792,0.033051,0.02531
14,51,5,7,0,0,1,,2,S,0,S,20,0.019285,0.780383,0.01505
14,52,1,6,0,0,1,,5,S,0,S,14,0.022274,0.764455,0.017027
14,53,7,4,0,0,1,,3,S,0,S,19,0.777359,0.027777,0.021593
14,54,8,1,0,0,1,,7,L,0,S,13,0.778641,0.006493,0.005056
14,55,9,8,0,0,1,,1,S,0,S,17,0.758702,0.035781,0.027147
14,56,7,9,0,0,1,,2,S,0,S,16,0.026194,0.771837,0.020217
14,57,4,2,0,0,1,,2,S,0,S,17,0.789325,0.012958,0.010228
14,58,9,3,0,0,1,,6,S,0,S,15,0.795368,0.003507,0.002789
14,59,1,9,0,0,1,,8,L,0,S,13,0.021438,0.760401,0.016302
14,60,4,9,0,0,1,,5,S,0,S,15,0.038345,0.750069,0.028762
14,61,2,7,0,0,1,,5,S,0,S,14,0.000515,0.789679,0.000407
14,62,3,7,0,0,1,,4,S,0,S,16,0.021549,0.77258,0.016649
14,63,3,5,0,0,1,,2,S,0,S,19,0.039562,0.759906,0.030063
14,64,5,8,0,0,1,,3,S,0,S,19,0.021128,0.77837,0.016445
14,65,3,8,0,0,1,,5,S,0,S,16,0.009287,0.789537,0.007332
14,66,2,3,0,0,1,,1,S,0,S,15,0.014805,0.778704,0.011529
14,67,1,8,0,0,1,,7,L,0,S,14,0.003891,0.78864,0.003068
14,68,9,7,0,0,1,,2,S,0,S,17,0.777004,0.020355,0.015816
14,69,7,8,0,0,1,,1,S,0,S,18,0.010584,0.795008,0.008414
14,70,6,5,0,0,1,,1,S,0,S,18,0.768018,0.03114,0.023916
14,71,5,9,0,0,1,,4,S,0,S,17,0.018551,0.779586,0.014462
14,72,4,5,0,0,1,,1,S,0,S,25,0.031606,0.77405,0.024464
15,1,4,2,0,0,1,,2,S,0,S,14,0.750393,0.034417,0.025826
15,2,9,3,0,0,1,,6,S,0,S,14,0.77544,0.014575,0.011302
15,3,6,8,0,0,1,,2,S,0,S,15,0.029801,0.757125,0.022563
15,4,3,8,0,0,1,,5,S,0,S,14,0,0.796046,0
15,5,2,7,0,0,1,,5,S,0,S,14,0.017727,0.77074,0.013663
15,6,1,2,0,0,1,,1,S,0,S,16,0.03678,0.754983,0.027769
15,7,4,5,0,0,1,,1,S,0,S,30,0.028928,0.774792,0.022413
15,8,7,9,0,0,1,,2,S,0,S,18,0.031941,0.769292,0.024572
15,9,6,4,0,0,1,,2,S,0,S,17,0.757797,0.035756,0.027096
15,10,3,6,0,0,1,,3,S,0,S,16,0.035178,0.75757,0.02665
15,11,9,8,0,0,1,,1,S,0,S,29,0.765058,0.03701,0.028315
15,12,1,5,0,0,1,,4,S,0,S,13,0.019995,0.759155,0.01518
15,13,5,6,0,0,1,,1,S,0,S,19,0.011239,0.794797,0.008932
15,14,1,6,0,0,1,,5,S,0,S,13,0.007939,0.776827,0.006167
15,15,9,2,0,0,1,,7,L,0,S,13,0.799106,0,0
15,16,8,5,0,0,1,,3,S,0,S,17,0.777453,0.022998,0.01788
15,17,4,1,0,0,1,,3,S,0,S,15,0.799488,0.001351,0.00108
15,18,3,1,0,0,1,,2,S,0,S,16,0.770934,0.026341,0.020308
15,19,4,9,0,0,1,,5,S,0,S,17,0.01512,0.78785,0.011912
15,20,2,9,0,0,1,,7,L,0,S,14,0.01392,0.777304,0.01082
15,21,2,5,0,0,1,,3,S,0,S,16,0.004451,0.794513,0.003537
15,22,4,7,0,0,1,,3,S,0,S,17,0.024142,0.774688,0.018703
15,23,1,7,0,0,1,,6,S,0,S,13,0,0.799493,0
15,24,7,1,0,0,1,,6,S,0,S,14,0.773589,0.01809,0.013994
15,25,7,6,0,0,0,,1,S,0,S,45,0.032735,0.772927,0.025302
15,26,8,1,0,0,1,,7,L,0,S,13,0.758394,0.026247,0.019906
15,27,9,1,0,0,1,,8,L,0,S,13,0.798746,0,0
15,28,4,6,0,0,1,,2,S,0,S,20,0.038283,0.761868,0.029167
15,29,3,5,0,0,1,,2,S,0,S,18,0.006593,0.796735,0.005253
15,30,5,4,0,0,1,,1,S,0,S,21,0.771564,0.033148,0.025576
15,31,3,9,0,0,1,,6,S,0,S,15,0.01596,0.78002,0.012449
15,32,9,5,0,0,1,,4,S,0,S,15,0.789934,0.004672,0.003691
15,33,5,8,0,0,1,,3,S,0,S,14,0.025224,0.762304,0.019229
15,34,8,4,0,0,1,,4,S,0,S,15,0.754558,0.038663,0.029174
15,35,8,9,0,0,1,,1,S,0,S,28,0.027051,0.784088,0.021211
15,36,8,7,0,0,1,,1,S,0,S,30,0.787768,0.022664,0.017854
15,37,5,9,0,0,1,,4,S,0,S,16,0.025829,0.771639,0.019931
15,38,2,8,0,0,1,,6,S,0,S,13,0.009809,0.775069,0.007603
15,39,8,2,0,0,1,,6,S,0,S,13,0.759627,0.024266,0.018433
15,40,2,3,0,0,1,,1,S,0,S,17,0.008193,0.795574,0.006518
15,41,2,4,0,0,1,,2,S,0,S,17,0.016285,0.78597,0.012799
15,42,6,1,0,0,1,,5,S,0,S,14,0.76689,0.019844,0.015218
15,43,2,6,0,0,1,,4,S,0,S,15,0.01488,0.779438,0.011598
15,44,5,2,0,0,1,,3,S,0,S,15,0.784467,0.012093,0.009486
15,45,1,3,0,0,1,,2,S,0,S,14,0,0.795115,0
15,46,6,2,0,0,1,,4,S,0,S,14,0.768682,0.017386,0.013364
15,47,8,6,0,0,1,,2,S,0,S,18,0.762523,0.038038,0.029005
15,48,7,4,0,0,1,,3,S,0,S,17,0.764861,0.034076,0.026064
15,49,4,3,0,0,1,,1,S,0,S,20,0.795199,0.012847,0.010216
15,50,5,7,0,0,1,,2,S,0,S,16,0.033247,0.760409,0.025281
15,51,9,4,0,0,1,,5,S,0,S,14,0.780923,0.010786,0.008423
15,52,2,1,0,0,1,,1,S,0,S,19,0.785366,0.019645,0.015429
15,53,5,1,0,0,1,,4,S,0,S,15,0.781465,0.015559,0.012159
15,54,6,5,0,0,1,,1,S,0,S,21,0.788637,0.012413,0.009789
15,55,3,7,0,0,1,,4,S,0,S,15,0.02113,0.771702,0.016306
15,56,1,9,0,0,1,,8,L,0,S,13,0,0.803967,0
15,57,1,8,0,0,1,,7,L,0,S,12,0,0.779341,0
15,58,7,8,0,0,1,,1,S,0,S,15,0.024461,0.768698,0.018803
15,59,7,3,0,0,1,,4,S,0,S,18,0.797228,0.009558,0.00762
15,60,6,9,0,0,1,,3,S,0,S,18,0.042314,0.751103,0.031782
15,61,4,8,0,0,1,,4,S,0,S,15,0.002128,0.796861,0.001696
15,62,1,4,0,0,1,,3,S,0,S,14,0.002424,0.792123,0.00192
15,63,5,3,0,0,1,,2,S,0,S,22,0.765198,0.038256,0.029273
15,64,9,7,0,0,1,,2,S,0,S,17,0.797938,0.00436,0.003479
15,65,3,2,0,0,1,,1,S,0,S,16,0.776378,0.020886,0.016216
15,66,6,7,0,0,1,,1,S,0,S,19,0.020752,0.778146,0.016148
15,67,6,3,0,0,1,,3,S,0,S,18,0.790022,0.011473,0.009064
15,68,7,5,0,0,1,,2,S,0,S,21,0.793008,0.012962,0.010279
15,69,8,3,0,0,1,,5,S,0,S,16,0.795854,0.008797,0.007001
15,70,9,6,0,0,1,,3,S,0,S,15,0.766232,0.024418,0.01871
15,71,3,4,0,0,1,,1,S,0,S,21,0.016852,0.791323,0.013335
15,72,7,2,0,0,1,,5,S,0,S,14,0.775455,0.015572,0.012076
16,1,4,8,0,0,1,,4,S,0,S,14,0.036506,0.751017,0.027417
16,2,5,4,0,0,1,,1,S,0,S,25,0.766963,0.034194,0.026226
16,3,4,9,0,0,1,,5,S,0,S,15,0.032626,0.759052,0.024765
16,4,8,6,0,0,1,,2,S,0,S,15,0.765827,0.027437,0.021012
16,5,5,8,0,0,1,,3,S,0,S,15,0.026144,0.76822,0.020085
16,6,6,9,0,0,0,,3,S,0,S,21,0.76957,0.033654,0.025899
16,7,3,9,0,0,1,,6,S,0,S,15,0.027996,0.762519,0.021347
16,8,2,8,0,0,1,,6,S,0,S,14,0.012203,0.778348,0.009498
16,9,2,3,0,0,1,,1,S,0,S,20,0.03921,0.75522,0.029612
16,10,5,7,0,0,1,,2,S,0,S,15,0.024884,0.768816,0.019131
16,11,4,1,0,0,1,,3,S,0,S,17,0.795881,0.009422,0.007499
16,12,5,1,0,0,1,,4,S,0,S,16,0.792564,0.008806,0.006979
16,13,8,2,0,0,1,,6,S,0,S,14,0.801617,0,0
16,14,7,8,0,0,1,,1,S,0,S,18,0.008262,0.79658,0.006581
16,15,7,4,0,0,1,,3,S,0,S,17,0.76094,0.030743,0.023393
16,16,6,2,0,0,1,,4,S,0,S,14,0.786085,0.006441,0.005064
16,17,9,6,0,0,1,,3,S,0,S,15,0.760161,0.028787,0.021882
16,18,7,6,0,0,1,,1,S,0,S,18,0.785385,0.014733,0.011571
16,19,7,9,0,0,1,,2,S,0,S,21,0.010142,0.795174,0.008064
16,20,1,8,0,0,1,,7,L,0,S,13,0.001442,0.788188,0.001136
16,21,4,2,0,0,1,,2,S,0,S,17,0.75608,0.039304,0.029717
16,22,6,1,0,0,1,,5,S,0,S,14,0.800744,0,0
16,23,9,1,0,0,1,,8,L,0,S,13,0.75681,0.023477,0.017768
16,24,8,3,0,0,1,,5,S,0,S,14,0.75896,0.027736,0.02105
16,25,4,5,0,0,1,,1,S,0,S,19,0.020141,0.786749,0.015846
16,26,6,3,0,0,1,,3,S,0,S,15,0.789934,0.00643,0.005079
16,27,9,2,0,0,1,,7,L,0,S,14,0.796271,0,0
16,28,2,6,0,0,1,,4,S,0,S,17,0.025542,0.769417,0.019653
16,29,2,4,0,0,1,,2,S,0,S,18,0.01359,0.784492,0.010661
16,30,8,5,0,0,1,,3,S,0,S,15,0.761778,0.032212,0.024539
16,31,2,1,0,0,1,,1,S,0,S,19,0.771612,0.027826,0.021471
16,32,1,4,0,0,1,,3,S,0,S,15,0.00548,0.789339,0.004325
16,33,3,4,0,0,1,,1,S,0,S,20,0.035046,0.762076,0.026708
16,34,9,7,0,0,1,,2,S,0,S,27,0.753832,0.046933,0.03538
16,35,8,4,0,0,1,,4,S,0,S,15,0.775717,0.01824,0.014149
16,36,9,4,0,0,1,,5,S,0,S,15,0.769914,0.019737,0.015196
16,37,4,6,0,0,1,,2,S,0,S,19,0.04474,0.753566,0.033715
16,38,9,3,0,0,1,,6,S,0,S,14,0.753422,0.029046,0.021884
16,39,7,3,0,0,1,,4,S,0,S,16,0.774612,0.018446,0.014289
16,40,9,8,0,0,1,,1,S,0,S,26,0.789989,0.018738,0.014803
16,41,5,2,0,0,1,,3,S,0,S,16,0.76354,0.030053,0.022947
16,42,6,8,0,0,1,,2,S,0,S,22,0.039305,0.76567,0.030095
16,43,2,7,0,0,1,,5,S,0,S,14,0.011553,0.778226,0.008991
16,44,3,5,0,0,1,,2,S,0,S,18,0.040721,0.756567,0.030808
16,45,6,4,0,0,1,,2,S,0,S,15,0.750047,0.036886,0.027666
16,46,1,2,0,0,1,,1,S,0,S,17,0.030991,0.764435,0.02369
16,47,7,5,0,0,1,,2,S,0,S,18,0.77316,0.026164,0.020229
16,48,3,7,0,0,1,,4,S,0,S,14,0.032117,0.753275,0.024193
16,49,9,5,0,0,1,,4,S,0,S,15,0.75626,0.033437,0.025287
16,50,8,1,0,0,1,,7,L,0,S,13,0.76184,0.022396,0.017062
16,51,3,8,0,0,1,,5,S,0,S,14,0.033036,0.753088,0.024879
16,52,2,9,0,0,1,,7,L,0,S,15,0.001709,0.794492,0.001358
16,53,3,2,0,0,1,,1,S,0,S,18,0.780316,0.019774,0.01543
16,54,4,3,0,0,1,,1,S,0,S,23,0.757474,0.043043,0.032604
16,55,6,7,0,0,1,,1,S,0,S,22,0.023649,0.784048,0.018542
16,56,7,1,0,0,1,,6,S,0,S,14,0.758033,0.026834,0.020341
16,57,7,2,0,0,1,,5,S,0,S,15,0.790468,0.004139,0.003272
16,58,5,9,0,0,1,,4,S,0,S,16,0.031667,0.762695,0.024152
16,59,1,3,0,0,1,,2,S,0,S,15,0.034384,0.752502,0.025874
16,60,5,3,0,0,1,,2,S,0,S,19,0.773548,0.026474,0.020479
16,61,1,6,0,0,1,,5,S,0,S,14,0.031264,0.752898,0.023539
16,62,5,6,0,0,1,,1,S,0,S,26,0.047137,0.753194,0.035503
16,63,3,6,0,0,1,,3,S,0,S,19,0.025573,0.775043,0.01982
16,64,8,9,0,0,0,,1,S,0,S,19,0.780225,0.024837,0.019379
16,65,6,5,0,0,1,,1,S,0,S,16,0.7831,0.017289,0.013539
16,66,2,5,0,0,1,,3,S,0,S,17,0.013002,0.787524,0.010239
16,67,1,7,0,0,1,,6,S,0,S,13,0.001076,0.787774,0.000848
16,68,1,9,0,0,1,,8,L,0,S,13,0.01752,0.764968,0.013402
16,69,3,1,0,0,1,,2,S,0,S,17,0.776588,0.022691,0.017622
16,70,8,7,0,0,1,,1,S,0,S,30,0.795359,0.017289,0.013751
16,71,4,7,0,0,1,,3,S,0,S,14,0.035506,0.751304,0.026676
16,72,1,5,0,0,1,,4,S,0,S,14,0.025409,0.762581,0.019376
17,1,8,7,0,0,1,,1,S,0,S,15,0.757042,0.033181,0.025119
17,2,2,4,0,0,1,,2,S,0,S,18,0.031531,0.76718,0.02419
17,3,5,9,0,0,1,,4,S,0,S,13,0.027247,0.752694,0.020509
17,4,6,9,0,0,1,,3,S,0,S,14,0.006413,0.785742,0.005039
17,5,9,4,0,0,1,,5,S,0,S,16,0.771887,0.025682,0.019823
17,6,7,6,0,0,1,,1,S,0,S,18,0.777207,0.021958,0.017066
17,7,6,4,0,0,1,,2,S,0,S,20,0.770364,0.031436,0.024217
17,8,3,5,0,0,1,,2,S,0,S,19,0.042303,0.757079,0.032026
17,9,4,3,0,0,1,,1,S,0,S,21,0.77273,0.026712,0.020641
17,10,7,4,0,0,1,,3,S,0,S,16,0.794293,0.005149,0.004089
17,11,7,8,0,0,0,,1,S,0,S,24,0.758872,0.039526,0.029995
17,12,3,4,0,0,1,,1,S,0,S,20,0.023053,0.783385,0.018059
17,13,4,7,0,0,1,,3,S,0,S,19,0.014258,0.789333,0.011254
17,14,8,5,0,0,1,,3,S,0,S,15,0.788736,0.007649,0.006033
17,15,8,2,0,0,1,,6,S,0,S,14,0.794709,0.000914,0.000726
17,16,9,3,0,0,1,,6,S,0,S,15,0.764469,0.026705,0.020415
17,17,3,9,0,0,1,,6,S,0,S,13,0.011896,0.774262,0.009211
17,18,5,4,0,0,1,,1,S,0,S,30,0.759994,0.043208,0.032838
17,19,6,2,0,0,1,,4,S,0,S,16,0.756785,0.037017,0.028014
17,20,8,1,0,0,1,,7,L,0,S,13,0.776639,0.009002,0.006992
17,21,1,6,0,0,1,,5,S,0,S,14,0.031836,0.75267,0.023962
17,22,4,1,0,0,1,,3,S,0,S,16,0.783486,0.013745,0.010769
17,23,8,3,0,0,1,,5,S,0,S,14,0.770013,0.017336,0.013349
17,24,9,2,0,0,1,,7,L,0,S,15,0.798059,0.003229,0.002577
17,25,2,1,0,0,1,,1,S,0,S,17,0.759699,0.035721,0.027137
17,26,8,6,0,0,1,,2,S,0,S,16,0.770295,0.025255,0.019454
17,27,2,6,0,0,1,,4,S,0,S,16,0.009568,0.789889,0.007557
17,28,3,1,0,0,1,,2,S,0,S,16,0.760604,0.034875,0.026526
17,29,6,3,0,0,1,,3,S,0,S,18,0.792978,0.009389,0.007445
17,30,9,1,0,0,1,,8,L,0,S,14,0.794423,0.001447,0.001149
17,31,6,5,0,0,1,,1,S,0,S,21,0.785307,0.01944,0.015266
17,32,1,4,0,0,1,,3,S,0,S,16,0.012432,0.786743,0.009781
17,33,5,7,0,0,1,,2,S,0,S,20,0.012258,0.795703,0.009754
17,34,2,5,0,0,1,,3,S,0,S,18,0.021547,0.778893,0.016783
17,35,1,5,0,0,1,,4,S,0,S,16,0.007969,0.791574,0.006308
17,36,1,3,0,0,1,,2,S,0,S,17,0.025199,0.770838,0.019425
17,37,5,1,0,0,1,,4,S,0,S,15,0.754974,0.035097,0.026497
17,38,7,2,0,0,1,,5,S,0,S,14,0.759206,0.026758,0.020315
17,39,5,6,0,0,1,,1,S,0,S,18,0.016146,0.787462,0.012714
17,40,1,2,0,0,1,,1,S,0,S,18,0.035096,0.76418,0.02682
17,41,4,6,0,0,1,,2,S,0,S,17,0.032345,0.762132,0.024651
17,42,4,8,0,0,1,,4,S,0,S,16,0.005172,0.793032,0.004102
17,43,9,7,0,0,1,,2,S,0,S,17,0.750989,0.04467,0.033547
17,44,5,2,0,0,1,,3,S,0,S,18,0.797103,0.009794,0.007807
17,45,6,8,0,0,1,,2,S,0,S,17,0.017378,0.781844,0.013587
17,46,3,6,0,0,1,,3,S,0,S,16,0.033588,0.761897,0.02559
17,47,1,9,0,0,1,,8,L,0,S,12,0.019429,0.753283,0.014636
17,48,7,3,0,0,1,,4,S,0,S,15,0.780219,0.011654,0.009093
17,49,3,2,0,0,1,,1,S,0,S,20,0.778999,0.027661,0.021548
17,50,1,8,0,0,1,,7,L,0,S,14,0.002796,0.789566,0.002208
17,51,7,1,0,0,1,,6,S,0,S,14,0.802118,0,0
17,52,9,6,0,0,1,,3,S,0,S,19,0.762773,0.037821,0.028849
17,53,4,9,0,0,1,,5,S,0,S,13,0.022879,0.756055,0.017298
17,54,9,8,0,0,0,,1,S,0,S,23,0.037646,0.765128,0.028804
17,55,4,5,0,0,1,,1,S,0,S,23,0.011139,0.794826,0.008853
17,56,3,7,0,0,1,,4,S,0,S,17,0.036364,0.762043,0.027711
17,57,2,7,0,0,1,,5,S,0,S,16,0.039826,0.751942,0.029947
17,58,5,3,0,0,1,,2,S,0,S,19,0.751979,0.043827,0.032957
17,59,2,3,0,0,1,,1,S,0,S,22,0.026667,0.77499,0.020667
17,60,7,9,0,0,1,,2,S,0,S,16,0.001646,0.798168,0.001314
17,61,2,8,0,0,1,,6,S,0,S,15,0.003244,0.793463,0.002574
17,62,1,7,0,0,1,,6,S,0,S,15,0.014462,0.780892,0.011293
17,63,2,9,0,0,1,,7,L,0,S,13,0.0042,0.78212,0.003285
17,64,5,8,0,0,1,,3,S,0,S,16,0.01556,0.782395,0.012174
17,65,9,5,0,0,1,,4,S,0,S,16,0.761971,0.032762,0.024964
17,66,6,1,0,0,1,,5,S,0,S,15,0.785259,0.010879,0.008543
17,67,8,4,0,0,1,,4,S,0,S,15,0.795074,0.003344,0.002659
17,68,7,5,0,0,1,,2,S,0,S,16,0.786008,0.010981,0.008631
17,69,3,8,0,0,1,,5,S,0,S,15,0.01876,0.776039,0.014558
17,70,6,7,0,0,1,,1,S,0,S,26,0.017853,0.790491,0.014113
17,71,8,9,0,0,1,,1,S,0,S,17,0.013982,0.78713,0.011005
17,72,4,2,0,0,1,,2,S,0,S,18,0.756338,0.039948,0.030214
18,1,5,1,0,0,1,,4,S,0,S,15,0.753002,0.036211,0.027267
18,2,4,9,0,0,1,,5,S,0,S,16,0.040205,0.753047,0.030276
18,3,4,6,0,0,1,,2,S,0,S,18,0.024785,0.780055,0.019334
18,4,4,5,0,0,1,,1,S,0,S,26,0.02331,0.783315,0.018259
18,5,9,3,0,0,1,,6,S,0,S,14,0.754662,0.027988,0.021122
18,6,2,6,0,0,1,,4,S,0,S,15,0.026623,0.764694,0.020358
18,7,1,6,0,0,1,,5,S,0,S,14,0.030125,0.759912,0.022892
18,8,9,8,0,0,1,,1,S,0,S,17,0.752387,0.039092,0.029413
18,9,4,7,0,0,1,,3,S,0,S,18,0.015926,0.790335,0.012587
18,10,3,9,0,0,1,,6,S,0,S,15,0.038478,0.750954,0.028895
18,11,1,8,0,0,1,,7,L,0,S,14,0.028236,0.760269,0.021467
18,12,1,2,0,0,1,,1,S,0,S,18,0.047486,0.751497,0.035686
18,13,8,3,0,0,1,,5,S,0,S,15,0.769816,0.024784,0.019079
18,14,8,9,0,0,1,,1,S,0,S,24,0.039258,0.766228,0.03008
18,15,7,8,0,0,1,,1,S,0,S,29,0.032003,0.775145,0.024807
18,16,5,3,0,0,1,,2,S,0,S,17,0.751849,0.041368,0.031103
18,17,1,4,0,0,1,,3,S,0,S,15,0.030156,0.763572,0.023026
18,18,5,8,0,0,1,,3,S,0,S,19,0.01239,0.792678,0.009821
18,19,7,6,0,0,1,,1,S,0,S,28,0.761039,0.045239,0.034428
18,20,9,6,0,0,1,,3,S,0,S,17,0.76826,0.028476,0.021877
18,21,4,1,0,0,1,,3,S,0,S,16,0.791286,0.010862,0.008595
18,22,3,7,0,0,1,,4,S,0,S,16,0.035032,0.760809,0.026652
18,23,5,2,0,0,1,,3,S,0,S,17,0.793329,0.010279,0.008154
18,24,2,5,0,0,1,,3,S,0,S,17,0.013372,0.784075,0.010485
18,25,9,4,0,0,1,,5,S,0,S,16,0.789207,0.008676,0.006847
18,26,7,4,0,0,1,,3,S,0,S,18,0.751858,0.04611,0.034668
18,27,5,4,0,0,1,,1,S,0,S,30,0.773662,0.031638,0.024477
18,28,6,1,0,0,1,,5,S,0,S,15,0.76475,0.02846,0.021764
18,29,7,2,0,0,1,,5,S,0,S,15,0.765506,0.028901,0.022124
18,30,1,9,0,0,1,,8,L,0,S,14,0.010097,0.78373,0.007914
18,31,1,5,0,0,1,,4,S,0,S,15,0.036527,0.753017,0.027506
18,32,6,9,0,0,1,,3,S,0,S,17,0.033824,0.763775,0.025834
18,33,4,8,0,0,1,,4,S,0,S,18,0.017084,0.787455,0.013453
18,34,6,4,0,0,1,,2,S,0,S,24,0.759627,0.043725,0.033214
18,35,3,6,0,0,1,,3,S,0,S,16,0.040534,0.7546,0.030587
18,36,2,3,0,0,1,,1,S,0,S,21,0.019925,0.782358,0.015588
18,37,5,9,0,0,1,,4,S,0,S,17,0.024297,0.774055,0.018807
18,38,2,1,0,0,1,,1,S,0,S,20,0.772337,0.028356,0.0219
18,39,8,7,0,0,1,,1,S,0,S,21,0.77338,0.033544,0.025942
18,40,7,1,0,0,1,,6,S,0,S,14,0.753561,0.033605,0.025323
18,41,9,5,0,0,1,,4,S,0,S,16,0.79024,0.006055,0.004785
18,42,4,2,0,0,1,,2,S,0,S,17,0.773888,0.027361,0.021174
18,43,1,7,0,0,1,,6,S,0,S,14,0.027531,0.762514,0.020993
18,44,9,7,0,0,1,,2,S,0,S,17,0.756356,0.037152,0.0281
18,45,8,5,0,0,1,,3,S,0,S,17,0.773738,0.025968,0.020093
18,46,2,8,0,0,1,,6,S,0,S,15,0.024146,0.765724,0.018489
18,47,3,5,0,0,1,,2,S,0,S,19,0.037675,0.760897,0.028666
18,48,3,1,0,0,1,,2,S,0,S,17,0.78596,0.016958,0.013329
18,49,6,7,0,0,1,,1,S,0,S,19,0.027972,0.77648,0.02172
18,50,6,5,0,0,1,,1,S,0,S,23,0.775808,0.028391,0.022026
18,51,1,3,0,0,1,,2,S,0,S,18,0.008956,0.797935,0.007146
18,52,7,3,0,0,1,,4,S,0,S,16,0.788944,0.01198,0.009452
18,53,7,5,0,0,1,,2,S,0,S,18,0.761136,0.036806,0.028014
18,54,8,4,0,0,1,,4,S,0,S,17,0.768948,0.031664,0.024348
18,55,6,8,0,0,1,,2,S,0,S,19,0.029155,0.773514,0.022552
18,56,8,1,0,0,1,,7,L,0,S,14,0.774943,0.01783,0.013817
18,57,9,2,0,0,1,,7,L,0,S,14,0.772574,0.015741,0.012161
18,58,5,6,0,0,1,,1,S,0,S,19,0.022596,0.782206,0.017675
18,59,9,1,0,0,1,,8,L,0,S,14,0.79897,0,0
18,60,8,2,0,0,1,,6,S,0,S,15,0.792423,0.008577,0.006797
18,61,6,3,0,0,1,,3,S,0,S,17,0.771257,0.027577,0.021269
18,62,6,2,0,0,1,,4,S,0,S,16,0.760223,0.035556,0.02703
18,63,2,7,0,0,1,,5,S,0,S,15,0.023258,0.768251,0.017868
18,64,3,8,0,0,1,,5,S,0,S,16,0.036,0.758141,0.027293
18,65,3,4,0,0,1,,1,S,0,S,19,0.019931,0.785714,0.01566
18,66,5,7,0,0,1,,2,S,0,S,19,0.01113,0.7957,0.008856
18,67,3,2,0,0,1,,1,S,0,S,19,0.774779,0.029341,0.022733
18,68,2,4,0,0,1,,2,S,0,S,17,0.004404,0.797807,0.003513
18,69,8,6,0,0,1,,2,S,0,S,20,0.759267,0.04476,0.033985
18,70,2,9,0,0,1,,7,L,0,S,15,0.001295,0.795137,0.00103
18,71,7,9,0,0,1,,2,S,0,S,20,0.022649,0.783462,0.017745
18,72,4,3,0,0,1,,1,S,0,S,18,0.773336,0.027882,0.021562
19,1,7,4,0,0,1,,3,S,0,S,15,0.75802,0.033193,0.025161
19,2,4,1,0,0,1,,3,S,0,S,15,0.791539,0.006852,0.005423
19,3,4,7,0,0,1,,3,S,0,S,16,0.037629,0.758989,0.02856
19,4,6,4,0,0,1,,2,S,0,S,15,0.771526,0.022253,0.017169
19,5,6,8,0,0,1,,2,S,0,S,27,0.033372,0.772764,0.025788
19,6,5,3,0,0,1,,2,S,0,S,20,0.750125,0.048578,0.036439
19,7,2,9,0,0,1,,7,L,0,S,13,0.025942,0.753537,0.019548
19,8,8,2,0,0,1,,6,S,0,S,14,0.773426,0.016297,0.012605
19,9,2,4,0,0,1,,2,S,0,S,18,0.042456,0.757045,0.032141
19,10,1,9,0,0,1,,8,L,0,S,13,0.014445,0.767089,0.011081
19,11,8,9,0,0,1,,1,S,0,S,21,0.02341,0.779128,0.018239
19,12,9,8,0,0,1,,1,S,0,S,19,0.777936,0.027326,0.021258
19,13,1,8,0,0,1,,7,L,0,S,14,0.003727,0.791604,0.00295
19,14,5,4,0,0,1,,1,S,0,S,16,0.755279,0.038087,0.028766
19,15,9,4,0,0,1,,5,S,0,S,14,0.76551,0.024318,0.018615
19,16,8,3,0,0,1,,5,S,0,S,16,0.789774,0.011643,0.009195
19,17,2,6,0,0,1,,4,S,0,S,15,0.009238,0.786935,0.00727
19,18,6,2,0,0,1,,4,S,0,S,15,0.790756,0.00592,0.004681
19,19,3,5,0,0,1,,2,S,0,S,16,0.029397,0.766925,0.022545
19,20,5,8,0,0,1,,3,S,0,S,18,0.032533,0.768174,0.024991
19,21,4,8,0,0,1,,4,S,0,S,17,0.032749,0.768047,0.025153
19,22,7,5,0,0,1,,2,S,0,S,19,0.76472,0.036275,0.02774
19,23,1,4,0,0,1,,3,S,0,S,17,0.023615,0.776749,0.018343
19,24,1,2,0,0,1,,1,S,0,S,18,0.032338,0.765895,0.024767
19,25,3,1,0,0,1,,2,S,0,S,17,0.77133,0.026347,0.020322
19,26,9,6,0,0,1,,3,S,0,S,17,0.768692,0.02809,0.021592
19,27,6,9,0,0,1,,3,S,0,S,18,0.016841,0.782973,0.013186
19,28,3,7,0,0,1,,4,S,0,S,14,0.032263,0.754968,0.024358
19,29,4,6,0,0,1,,2,S,0,S,20,0.015668,0.789804,0.012375
19,30,9,2,0,0,1,,7,L,0,S,14,0.77989,0.011924,0.009299
19,31,9,3,0,0,1,,6,S,0,S,15,0.750018,0.040384,0.030288
19,32,3,2,0,0,1,,1,S,0,S,23,0.783308,0.022502,0.017626
19,33,9,5,0,0,1,,4,S,0,S,16,0.765391,0.031416,0.024045
19,34,7,6,0,0,1,,1,S,0,S,22,0.773958,0.027881,0.021579
19,35,1,5,0,0,1,,4,S,0,S,15,0.002004,0.797914,0.001599
19,36,5,7,0,0,1,,2,S,0,S,17,0.028334,0.771438,0.021858
19,37,1,6,0,0,1,,5,S,0,S,14,0.026669,0.757646,0.020205
19,38,3,6,0,0,1,,3,S,0,S,16,0.009766,0.788282,0.007698
19,39,2,5,0,0,1,,3,S,0,S,15,0.022978,0.772853,0.017758
19,40,1,3,0,0,1,,2,S,0,S,15,0.020707,0.774007,0.016027
19,41,2,3,0,0,1,,1,S,0,S,16,0.009871,0.793336,0.007831
19,42,8,1,0,0,1,,7,L,0,S,13,0.760691,0.020711,0.015754
19,43,4,2,0,0,1,,2,S,0,S,16,0.765783,0.030192,0.02312
19,44,5,2,0,0,1,,3,S,0,S,16,0.78552,0.012966,0.010185
19,45,7,1,0,0,1,,6,S,0,S,14,0.780965,0.009988,0.0078
19,46,5,1,0,0,1,,4,S,0,S,14,0.751151,0.032568,0.024463
19,47,8,7,0,0,1,,1,S,0,S,23,0.788163,0.021078,0.016613
19,48,2,8,0,0,1,,6,S,0,S,14,0.01872,0.773918,0.014488
19,49,6,5,0,0,1,,1,S,0,S,18,0.760219,0.038041,0.02892
19,50,4,9,0,0,1,,5,S,0,S,15,0.034266,0.754695,0.02586
19,51,9,7,0,0,1,,2,S,0,S,21,0.761943,0.041894,0.031921
19,52,2,7,0,0,1,,5,S,0,S,14,0.006832,0.789377,0.005393
19,53,5,9,0,0,1,,4,S,0,S,16,0.017032,0.778353,0.013257
19,54,1,7,0,0,1,,6,S,0,S,13,0.029419,0.751477,0.022108
19,55,2,1,0,0,1,,1,S,0,S,19,0.753667,0.044542,0.03357
19,56,3,8,0,0,1,,5,S,0,S,15,0.011043,0.787303,0.008694
19,57,8,5,0,0,1,,3,S,0,S,16,0.752124,0.041123,0.03093
19,58,3,9,0,0,1,,6,S,0,S,14,0.011256,0.77797,0.008757
19,59,5,6,0,0,1,,1,S,0,S,22,0.029518,0.771528,0.022774
19,60,6,7,0,0,1,,1,S,0,S,21,0.020809,0.786361,0.016363
19,61,9,1,0,0,1,,8,L,0,S,13,0.76585,0.017382,0.013312
19,62,6,3,0,0,1,,3,S,0,S,17,0.773191,0.026167,0.020232
19,63,6,1,0,0,1,,5,S,0,S,14,0.788741,0.003598,0.002838
19,64,7,9,0,0,1,,2,S,0,S,17,0.029329,0.76572,0.022458
19,65,8,4,0,0,1,,4,S,0,S,14,0.758339,0.029221,0.02216
19,66,7,8,0,0,1,,1,S,0,S,22,0.032401,0.773109,0.025049
19,67,3,4,0,0,1,,1,S,0,S,24,0.045993,0.756374,0.034788
19,68,7,3,0,0,1,,4,S,0,S,18,0.793793,0.011936,0.009475
19,69,7,2,0,0,1,,5,S,0,S,15,0.779533,0.015091,0.011764
19,70,4,5,0,0,1,,1,S,0,S,22,0.047258,0.755849,0.03572
19,71,8,6,0,0,1,,2,S,0,S,17,0.751864,0.040586,0.030515
19,72,4,3,0,0,1,,1,S,0,S,24,0.784996,0.024662,0.01936
20,1,1,3,0,0,1,,2,S,0,S,18,0.011305,0.790903,0.008941
20,2,8,5,0,0,1,,3,S,0,S,16,0.793395,0.006446,0.005114
20,3,2,9,0,0,1,,7,L,0,S,13,0.01698,0.765563,0.012999
20,4,9,5,0,0,1,,4,S,0,S,15,0.754424,0.037391,0.028209
20,5,5,4,0,0,1,,1,S,0,S,19,0.779917,0.021647,0.016883
20,6,5,6,0,0,1,,1,S,0,S,25,0.023297,0.781995,0.018218
20,7,5,1,0,0,1,,4,S,0,S,15,0.796246,0.000811,0.000645
20,8,2,8,0,0,1,,6,S,0,S,14,0.005447,0.789275,0.004299
20,9,8,1,0,0,1,,7,L,0,S,14,0.79487,0,0
20,10,5,3,0,0,1,,2,S,0,S,17,0.783218,0.015,0.011748
20,11,7,4,0,0,1,,3,S,0,S,16,0.79616,0.004196,0.003341
20,12,2,4,0,0,1,,2,S,0,S,16,0.028784,0.764306,0.022
20,13,4,5,0,0,1,,1,S,0,S,22,0.038448,0.767164,0.029496
20,14,4,2,0,0,1,,2,S,0,S,20,0.788676,0.019351,0.015262
20,15,4,9,0,0,1,,5,S,0,S,14,0.021,0.769334,0.016156
20,16,3,7,0,0,1,,4,S,0,S,16,0.003862,0.796812,0.003077
20,17,3,1,0,0,1,,2,S,0,S,16,0.750228,0.038225,0.028678
20,18,9,2,0,0,1,,7,L,0,S,14,0.752346,0.03442,0.025896
20,19,4,8,0,0,1,,4,S,0,S,15,0.022506,0.77473,0.017436
20,20,9,6,0,0,1,,3,S,0,S,17,0.75006,0.044386,0.033292
20,21,6,9,0,0,1,,3,S,0,S,15,0.024784,0.765837,0.018981
20,22,3,5,0,0,1,,2,S,0,S,20,0.046587,0.751003,0.034987
20,23,7,8,0,0,0,,1,S,0,S,26,0.793631,0.017075,0.013551
20,24,9,7,0,0,1,,2,S,0,S,20,0.754191,0.046503,0.035072
20,25,2,5,0,0,1,,3,S,0,S,16,0.032068,0.762871,0.024463
20,26,1,7,0,0,1,,6,S,0,S,14,0.017551,0.773208,0.01357
20,27,3,9,0,0,1,,6,S,0,S,14,0.016329,0.771757,0.012602
20,28,8,6,0,0,1,,2,S,0,S,18,0.782991,0.016442,0.012874
20,29,8,7,0,0,1,,1,S,0,S,21,0.77695,0.025248,0.019617
20,30,7,2,0,0,1,,5,S,0,S,14,0.753967,0.031828,0.023997
20,31,1,9,0,0,1,,8,L,0,S,13,0.014337,0.770152,0.011042
20,32,1,8,0,0,1,,7,L,0,S,14,0.002181,0.794601,0.001733
20,33,1,2,0,0,1,,1,S,0,S,18,0.032078,0.768469,0.024651
20,34,1,6,0,0,1,,5,S,0,S,15,0.008609,0.788185,0.006785
20,35,3,6,0,0,1,,3,S,0,S,17,0.015594,0.783018,0.01221
20,36,7,6,0,0,1,,1,S,0,S,17,0.758334,0.036397,0.027601
20,37,1,5,0,0,1,,4,S,0,S,16,0.024943,0.773201,0.019286
20,38,5,2,0,0,1,,3,S,0,S,16,0.763322,0.031328,0.023914
20,39,2,3,0,0,1,,1,S,0,S,18,0.022337,0.775703,0.017327
20,40,8,4,0,0,1,,4,S,0,S,16,0.781581,0.013605,0.010633
20,41,4,7,0,0,1,,3,S,0,S,16,0.012532,0.789606,0.009896
20,42,3,2,0,0,1,,1,S,0,S,21,0.751996,0.045937,0.034544
20,43,6,7,0,0,1,,1,S,0,S,18,0.019147,0.782264,0.014978
20,44,9,4,0,0,1,,5,S,0,S,16,0.793116,0.007984,0.006332
20,45,7,5,0,0,1,,2,S,0,S,15,0.757587,0.033527,0.0254
20,46,6,1,0,0,1,,5,S,0,S,15,0.780879,0.011789,0.009206
20,47,4,6,0,0,1,,2,S,0,S,17,0.029947,0.768813,0.023023
20,48,2,7,0,0,1,,5,S,0,S,14,0.021252,0.767242,0.016306
20,49,2,6,0,0,1,,4,S,0,S,15,0.01323,0.781074,0.010334
20,50,8,9,0,0,1,,1,S,0,S,18,0.033857,0.761721,0.025789
20,51,7,1,0,0,1,,6,S,0,S,13,0.750334,0.027535,0.02066
20,52,7,3,0,0,1,,4,S,0,S,15,0.787844,0.006828,0.005379
20,53,4,1,0,0,1,,3,S,0,S,16,0.777301,0.020233,0.015727
20,54,7,9,0,0,1,,2,S,0,S,19,0.011574,0.794085,0.009191
20,55,9,3,0,0,1,,6,S,0,S,15,0.78619,0.009458,0.007436
20,56,4,3,0,0,1,,1,S,0,S,21,0.751375,0.046693,0.035084
20,57,8,2,0,0,1,,6,S,0,S,15,0.794283,0.00255,0.002025
20,58,6,8,0,0,1,,2,S,0,S,17,0.009638,0.79389,0.007651
20,59,6,5,0,0,1,,1,S,0,S,20,0.794094,0.012415,0.009858
20,60,3,8,0,0,1,,5,S,0,S,15,0.015512,0.779936,0.012098
20,61,1,4,0,0,1,,3,S,0,S,16,0.021911,0.774345,0.016967
20,62,3,4,0,0,1,,1,S,0,S,20,0.030858,0.767885,0.023695
20,63,6,4,0,0,1,,2,S,0,S,20,0.764063,0.034038,0.026007
20,64,5,7,0,0,1,,2,S,0,S,19,0.013721,0.791908,0.010866
20,65,9,1,0,0,1,,8,L,0,S,14,0.803238,0,0
20,66,6,2,0,0,1,,4,S,0,S,17,0.785212,0.015287,0.012004
20,67,5,9,0,0,1,,4,S,0,S,15,0.036459,0.752011,0.027418
20,68,8,3,0,0,1,,5,S,0,S,15,0.775956,0.014071,0.010919
20,69,6,3,0,0,1,,3,S,0,S,17,0.752062,0.038352,0.028843
20,70,9,8,0,0,1,,1,S,0,S,34,0.78292,0.027809,0.021772
20,71,2,1,0,0,1,,1,S,0,S,21,0.782272,0.020657,0.016159
20,72,5,8,0,0,1,,3,S,0,S,17,0.029746,0.769786,0.022898
21,1,5,6,0,0,1,,1,S,0,S,21,0.026904,0.778851,0.020954
21,2,3,2,0,0,1,,1,S,0,S,22,0.78731,0.020087,0.015814
21,3,5,1,0,0,1,,4,S,0,S,15,0.765804,0.027229,0.020852
21,4,5,3,0,0,1,,2,S,0,S,18,0.753054,0.040826,0.030744
21,5,7,4,0,0,1,,3,S,0,S,15,0.774493,0.020821,0.016126
21,6,8,9,0,0,1,,1,S,0,S,17,0.043005,0.750444,0.032273
21,7,9,5,0,0,1,,4,S,0,S,17,0.757643,0.035861,0.02717
21,8,3,8,0,0,1,,5,S,0,S,15,0.011718,0.786052,0.009211
21,9,6,9,0,0,1,,3,S,0,S,16,0.006424,0.792076,0.005088
21,10,9,4,0,0,1,,5,S,0,S,15,0.774062,0.020111,0.015567
21,11,1,3,0,0,1,,2,S,0,S,15,0,0.798296,0
21,12,5,4,0,0,1,,1,S,0,S,17,0.770228,0.028232,0.021745
21,13,3,9,0,0,1,,6,S,0,S,14,0.007047,0.783346,0.00552
21,14,3,7,0,0,1,,4,S,0,S,15,0.033597,0.756527,0.025417
21,15,2,5,0,0,1,,3,S,0,S,17,0.004589,0.795852,0.003652
21,16,8,2,0,0,1,,6,S,0,S,14,0.754915,0.032871,0.024815
21,17,8,5,0,0,1,,3,S,0,S,17,0.759205,0.035305,0.026804
21,18,7,6,0,0,1,,1,S,0,S,19,0.789624,0.017811,0.014064
21,19,9,8,0,0,1,,1,S,0,S,32,0.792694,0.018967,0.015035
21,20,6,2,0,0,1,,4,S,0,S,16,0.792189,0.009003,0.007132
21,21,3,1,0,0,1,,2,S,0,S,18,0.755037,0.041646,0.031444
21,22,8,6,0,0,1,,2,S,0,S,19,0.794529,0.013394,0.010642
21,23,4,9,0,0,1,,5,S,0,S,15,0.0122,0.783844,0.009563
21,24,5,9,0,0,1,,4,S,0,S,15,0.028363,0.761696,0.021604
21,25,7,1,0,0,1,,6,S,0,S,14,0.779039,0.01412,0.011
21,26,5,7,0,0,1,,2,S,0,S,19,0.019408,0.786146,0.015257
21,27,9,3,0,0,1,,6,S,0,S,16,0.790788,0.00749,0.005923
21,28,1,4,0,0,1,,3,S,0,S,15,0.010231,0.783845,0.00802
21,29,1,5,0,0,1,,4,S,0,S,14,0.003228,0.785762,0.002536
21,30,2,1,0,0,1,,1,S,0,S,19,0.761393,0.037683,0.028692
21,31,1,7,0,0,1,,6,S,0,S,13,0.015216,0.767182,0.011674
21,32,6,8,0,0,1,,2,S,0,S,18,0.028667,0.772946,0.022158
21,33,1,9,0,0,1,,8,L,0,S,12,0.019295,0.750551,0.014482
21,34,3,4,0,0,1,,1,S,0,S,24,0.026647,0.778086,0.020733
21,35,2,4,0,0,1,,2,S,0,S,21,0.041246,0.757976,0.031264
21,36,8,1,0,0,1,,7,L,0,S,14,0.779474,0.013372,0.010423
21,37,4,5,0,0,1,,1,S,0,S,22,0.044413,0.754779,0.033522
21,38,6,3,0,0,1,,3,S,0,S,18,0.786041,0.013641,0.010722
21,39,4,8,0,0,1,,4,S,0,S,16,0.04262,0.752963,0.032091
21,40,4,1,0,0,1,,3,S,0,S,16,0.796138,0.007397,0.005889
21,41,4,2,0,0,1,,2,S,0,S,17,0.798023,0.00867,0.006919
21,42,1,2,0,0,1,,1,S,0,S,15,0.033071,0.756046,0.025003
21,43,4,3,0,0,1,,1,S,0,S,20,0.782337,0.020954,0.016393
21,44,2,9,0,0,1,,7,L,0,S,14,0.001365,0.790511,0.001079
21,45,6,4,0,0,1,,2,S,0,S,17,0.792829,0.009234,0.007321
21,46,6,1,0,0,1,,5,S,0,S,15,0.777874,0.016771,0.013046
21,47,7,8,0,0,1,,1,S,0,S,31,0.047514,0.758809,0.036054
21,48,1,6,0,0,1,,5,S,0,S,13,0.024306,0.755147,0.018354
21,49,5,8,0,0,1,,3,S,0,S,17,0.036281,0.762625,0.027669
21,50,2,3,0,0,1,,1,S,0,S,19,0.02719,0.770294,0.020944
21,51,6,5,0,0,1,,1,S,0,S,23,0.791339,0.01313,0.01039
21,52,7,9,0,0,1,,2,S,0,S,17,0.038886,0.756317,0.02941
21,53,3,5,0,0,1,,2,S,0,S,17,0.02005,0.776507,0.015569
21,54,3,6,0,0,1,,3,S,0,S,16,0.018878,0.779215,0.01471
21,55,5,2,0,0,1,,3,S,0,S,16,0.776238,0.022661,0.01759
21,56,8,4,0,0,1,,4,S,0,S,15,0.77542,0.019662,0.015247
21,57,9,1,0,0,1,,8,L,0,S,14,0.778242,0.013747,0.010699
21,58,9,6,0,0,1,,3,S,0,S,19,0.792998,0.013953,0.011065
21,59,4,6,0,0,1,,2,S,0,S,19,0.025493,0.779978,0.019884
21,60,9,2,0,0,1,,7,L,0,S,14,0.753651,0.033245,0.025055
21,61,8,3,0,0,1,,5,S,0,S,16,0.792255,0.006958,0.005513
21,62,2,7,0,0,1,,5,S,0,S,15,0.023588,0.769171,0.018143
21,63,7,5,0,0,1,,2,S,0,S,17,0.756359,0.038012,0.028751
21,64,6,7,0,0,1,,1,S,0,S,20,0.030908,0.771394,0.023842
21,65,8,7,0,0,1,,1,S,0,S,21,0.792818,0.016356,0.012967
21,66,2,6,0,0,1,,4,S,0,S,16,0.007074,0.793959,0.005616
21,67,2,8,0,0,1,,6,S,0,S,15,0.003453,0.796369,0.00275
21,68,7,2,0,0,1,,5,S,0,S,14,0.754227,0.03383,0.025516
21,69,7,3,0,0,1,,4,S,0,S,16,0.791065,0.008338,0.006596
21,70,9,7,0,0,1,,2,S,0,S,21,0.791472,0.016752,0.013259
21,71,1,8,0,0,1,,7,L,0,S,13,0.004894,0.782095,0.003827
21,72,4,7,0,0,1,,3,S,0,S,18,0.011393,0.796017,0.009069
22,1,1,6,0,0,1,,5,S,0,S,15,0.00182,0.796845,0.00145
22,2,9,3,0,0,1,,6,S,0,S,14,0.781515,0.011473,0.008966
22,3,4,5,0,0,1,,1,S,0,S,17,0.006426,0.79622,0.005117
22,4,4,1,0,0,1,,3,S,0,S,15,0.751118,0.038623,0.02901
22,5,2,4,0,0,1,,2,S,0,S,15,0.015429,0.779555,0.012028
22,6,1,8,0,0,1,,7,L,0,S,13,0.028074,0.754476,0.021181
22,7,5,3,0,0,1,,2,S,0,S,15,0.753596,0.036512,0.027516
22,8,8,4,0,0,1,,4,S,0,S,17,0.784389,0.015887,0.012461
22,9,4,6,0,0,1,,2,S,0,S,16,0.027651,0.766272,0.021188
22,10,4,9,0,0,1,,5,S,0,S,14,0.027574,0.756981,0.020873
22,11,3,2,0,0,1,,1,S,0,S,18,0.779031,0.022682,0.01767
22,12,5,7,0,0,1,,2,S,0,S,17,0.038143,0.755439,0.028814
22,13,6,5,0,0,1,,1,S,0,S,18,0.779824,0.020443,0.015942
22,14,1,9,0,0,1,,8,L,0,S,13,0.02645,0.752802,0.019911
22,15,7,3,0,0,1,,4,S,0,S,14,0.756402,0.031072,0.023503
22,16,9,7,0,0,1,,2,S,0,S,23,0.765333,0.03636,0.027827
22,17,3,7,0,0,1,,4,S,0,S,16,0.002835,0.79693,0.002259
22,18,9,4,0,0,1,,5,S,0,S,17,0.794763,0.008705,0.006919
22,19,2,5,0,0,1,,3,S,0,S,15,0.02018,0.77223,0.015584
22,20,5,8,0,0,1,,3,S,0,S,17,0.021653,0.779844,0.016886
22,21,5,2,0,0,1,,3,S,0,S,16,0.789021,0.011646,0.009189
22,22,3,8,0,0,1,,5,S,0,S,15,0.028808,0.76329,0.021989
22,23,1,4,0,0,1,,3,S,0,S,15,0.005759,0.793207,0.004568
22,24,3,1,0,0,1,,2,S,0,S,15,0.796041,0.002763,0.002199
22,25,2,6,0,0,1,,4,S,0,S,15,0.011093,0.783691,0.008694
22,26,9,5,0,0,1,,4,S,0,S,16,0.751325,0.039643,0.029785
22,27,2,9,0,0,1,,7,L,0,S,14,0,0.796905,0
22,28,8,9,0,0,1,,1,S,0,S,25,0.046007,0.751428,0.034571
22,29,7,6,0,0,1,,1,S,0,S,19,0.794335,0.010867,0.008632
22,30,4,3,0,0,1,,1,S,0,S,21,0.793525,0.015105,0.011986
22,31,7,9,0,0,1,,2,S,0,S,20,0.017397,0.786597,0.013685
22,32,3,9,0,0,1,,6,S,0,S,15,0.025133,0.763925,0.0192
22,33,1,7,0,0,1,,6,S,0,S,14,0,0.797844,0
22,34,5,1,0,0,1,,4,S,0,S,14,0.790499,0.003993,0.003157
22,35,9,6,0,0,1,,3,S,0,S,17,0.778396,0.020453,0.01592
22,36,8,7,0,0,1,,1,S,0,S,25,0.788734,0.016934,0.013356
22,37,7,8,0,0,1,,1,S,0,S,20,0.043021,0.758937,0.03265
22,38,6,1,0,0,1,,5,S,0,S,13,0.768181,0.01595,0.012253
22,39,3,5,0,0,1,,2,S,0,S,19,0.018538,0.783133,0.014518
22,40,5,9,0,0,1,,4,S,0,S,17,0.014246,0.784995,0.011183
22,41,6,2,0,0,1,,4,S,0,S,15,0.795752,0.003387,0.002695
22,42,3,4,0,0,1,,1,S,0,S,18,0.040967,0.754541,0.030911
22,43,8,5,0,0,1,,3,S,0,S,17,0.789951,0.010499,0.008294
22,44,8,1,0,0,1,,7,L,0,S,13,0.782088,0.00512,0.004004
22,45,1,3,0,0,1,,2,S,0,S,19,0.027017,0.777815,0.021014
22,46,1,2,0,0,1,,1,S,0,S,18,0.034058,0.767139,0.026127
22,47,6,7,0,0,1,,1,S,0,S,22,0.022783,0.780902,0.017791
22,48,9,2,0,0,1,,7,L,0,S,14,0.772823,0.018033,0.013937
22,49,5,6,0,0,1,,1,S,0,S,29,0.043601,0.756547,0.032987
22,50,7,4,0,0,1,,3,S,0,S,18,0.772532,0.028262,0.021833
22,51,8,2,0,0,1,,6,S,0,S,14,0.767327,0.021322,0.016361
22,52,6,8,0,0,1,,2,S,0,S,20,0.04655,0.753151,0.03506
22,53,8,3,0,0,1,,5,S,0,S,14,0.776262,0.014596,0.01133
22,54,8,6,0,0,1,,2,S,0,S,17,0.767079,0.028297,0.021706
22,55,2,8,0,0,1,,6,S,0,S,14,0,0.798797,0
22,56,7,5,0,0,1,,2,S,0,S,18,0.782036,0.019695,0.015402
22,57,6,3,0,0,1,,3,S,0,S,14,0.754542,0.031598,0.023842
22,58,1,5,0,0,1,,4,S,0,S,15,0.010163,0.786389,0.007992
22,59,4,2,0,0,1,,2,S,0,S,23,0.795682,0.014083,0.011206
22,60,6,4,0,0,1,,2,S,0,S,18,0.770376,0.028953,0.022304
22,61,3,6,0,0,1,,3,S,0,S,18,0.026697,0.771058,0.020585
22,62,7,1,0,0,1,,6,S,0,S,13,0.769842,0.015515,0.011944
22,63,4,7,0,0,1,,3,S,0,S,15,0.001637,0.796216,0.001304
22,64,6,9,0,0,1,,3,S,0,S,20,0.020515,0.78139,0.01603
22,65,9,8,0,0,1,,1,S,0,S,26,0.766137,0.039379,0.03017
22,66,2,1,0,0,1,,1,S,0,S,17,0.756611,0.039549,0.029923
22,67,2,3,0,0,1,,1,S,0,S,20,0.033051,0.770048,0.025451
22,68,4,8,0,0,1,,4,S,0,S,14,0.030096,0.757682,0.022803
22,69,7,2,0,0,1,,5,S,0,S,15,0.797681,0.002767,0.002208
22,70,5,4,0,0,1,,1,S,0,S,27,0.793933,0.014774,0.011729
22,71,9,1,0,0,1,,8,L,0,S,13,0.786038,0.002975,0.002338
22,72,2,7,0,0,1,,5,S,0,S,14,0.004121,0.788195,0.003248
23,1,9,4,0,0,1,,5,S,0,S,15,0.759401,0.030763,0.023361
23,2,6,3,0,0,1,,3,S,0,S,17,0.777803,0.019707,0.015328
23,3,3,4,0,0,1,,1,S,0,S,24,0.01465,0.792916,0.011616
23,4,6,8,0,0,1,,2,S,0,S,17,0.00818,0.79473,0.006501
23,5,6,7,0,0,1,,1,S,0,S,22,0.047291,0.754155,0.035665
23,6,4,5,0,0,1,,1,S,0,S,23,0.019976,0.787472,0.015731
23,7,2,9,0,0,1,,7,L,0,S,14,0.002551,0.793319,0.002024
23,8,1,8,0,0,1,,7,L,0,S,13,0.022901,0.759828,0.017401
23,9,6,1,0,0,1,,5,S,0,S,14,0.7818,0.007309,0.005714
23,10,9,2,0,0,1,,7,L,0,S,15,0.776113,0.019107,0.014829
23,11,1,5,0,0,1,,4,S,0,S,15,0.020616,0.774839,0.015974
23,12,5,9,0,0,1,,4,S,0,S,16,0.020971,0.77983,0.016354
23,13,2,6,0,0,1,,4,S,0,S,15,0.03482,0.755702,0.026313
23,14,5,3,0,0,1,,2,S,0,S,18,0.788774,0.014046,0.011079
23,15,7,3,0,0,1,,4,S,0,S,15,0.789334,0.006733,0.005314
23,16,8,6,0,0,1,,2,S,0,S,19,0.752259,0.047786,0.035948
23,17,7,6,0,0,1,,1,S,0,S,16,0.759591,0.035625,0.027061
23,18,7,1,0,0,1,,6,S,0,S,13,0.778405,0.00596,0.004639
23,19,4,7,0,0,1,,3,S,0,S,18,0.026811,0.776131,0.020809
23,20,1,4,0,0,1,,3,S,0,S,17,0.010114,0.793243,0.008023
23,21,8,4,0,0,1,,4,S,0,S,16,0.775136,0.022457,0.017407
23,22,4,9,0,0,1,,5,S,0,S,15,0.035344,0.756467,0.026737
23,23,4,1,0,0,1,,3,S,0,S,14,0.751499,0.030888,0.023212
23,24,1,6,0,0,1,,5,S,0,S,15,0.008456,0.791377,0.006692
23,25,6,5,0,0,1,,1,S,0,S,21,0.793108,0.014009,0.01111
23,26,2,7,0,0,1,,5,S,0,S,15,0.010929,0.787198,0.008603
23,27,3,6,0,0,1,,3,S,0,S,17,0.016474,0.786228,0.012952
23,28,3,1,0,0,1,,2,S,0,S,16,0.79827,0.001191,0.000951
23,29,3,9,0,0,1,,6,S,0,S,14,0.029258,0.759134,0.022211
23,30,7,5,0,0,1,,2,S,0,S,16,0.779646,0.019097,0.014889
23,31,9,8,0,0,0,,1,S,0,S,19,0.039903,0.759378,0.030302
23,32,7,4,0,0,1,,3,S,0,S,15,0.791728,0.005767,0.004566
23,33,5,2,0,0,1,,3,S,0,S,17,0.775183,0.025586,0.019834
23,34,8,9,0,0,1,,1,S,0,S,17,0.046299,0.751173,0.034779
23,35,9,1,0,0,1,,8,L,0,S,13,0.761878,0.0183,0.013942
23,36,2,1,0,0,1,,1,S,0,S,17,0.776463,0.019971,0.015507
23,37,7,2,0,0,1,,5,S,0,S,14,0.754104,0.032302,0.024359
23,38,4,3,0,0,1,,1,S,0,S,19,0.766713,0.031809,0.024388
23,39,2,5,0,0,1,,3,S,0,S,16,0.013889,0.78528,0.010907
23,40,5,6,0,0,1,,1,S,0,S,25,0.037843,0.768258,0.029073
23,41,7,9,0,0,1,,2,S,0,S,27,0.027922,0.781339,0.021816
23,42,6,2,0,0,1,,4,S,0,S,16,0.757017,0.036167,0.027379
23,43,1,9,0,0,1,,8,L,0,S,13,0.023389,0.761246,0.017805
23,44,1,2,0,0,1,,1,S,0,S,17,0.02641,0.774415,0.020453
23,45,9,6,0,0,1,,3,S,0,S,18,0.794487,0.011824,0.009394
23,46,5,7,0,0,1,,2,S,0,S,20,0.014296,0.795689,0.011375
23,47,5,4,0,0,1,,1,S,0,S,18,0.792058,0.012428,0.009844
23,48,9,5,0,0,1,,4,S,0,S,17,0.776166,0.023917,0.018564
23,49,5,8,0,0,1,,3,S,0,S,16,0.018964,0.780126,0.014794
23,50,1,7,0,0,1,,6,S,0,S,14,0.025234,0.765547,0.019318
23,51,2,3,0,0,1,,1,S,0,S,18,0.028536,0.768788,0.021938
23,52,3,2,0,0,1,,1,S,0,S,34,0.77055,0.034999,0.026969
23,53,7,8,0,0,1,,1,S,0,S,25,0.027237,0.779322,0.021226
23,54,4,6,0,0,1,,2,S,0,S,20,0.038963,0.762816,0.029722
23,55,3,5,0,0,1,,2,S,0,S,17,0.041392,0.753566,0.031192
23,56,8,1,0,0,1,,7,L,0,S,14,0.800379,0,0
23,57,6,9,0,0,1,,3,S,0,S,17,0.010738,0.793775,0.008524
23,58,8,7,0,0,1,,1,S,0,S,25,0.795042,0.017414,0.013845
23,59,3,8,0,0,1,,5,S,0,S,14,0.028376,0.758105,0.021512
23,60,9,7,0,0,1,,2,S,0,S,19,0.755675,0.044659,0.033747
23,61,1,3,0,0,1,,2,S,0,S,17,0.011229,0.790613,0.008878
23,62,3,7,0,0,1,,4,S,0,S,16,0.016895,0.783736,0.013241
23,63,4,8,0,0,1,,4,S,0,S,15,0.033764,0.756233,0.025534
23,64,2,4,0,0,1,,2,S,0,S,18,0.02724,0.771721,0.021021
23,65,9,3,0,0,1,,6,S,0,S,15,0.756837,0.031801,0.024069
23,66,8,2,0,0,1,,6,S,0,S,16,0.795223,0.007974,0.006341
23,67,5,1,0,0,1,,4,S,0,S,14,0.7712,0.016676,0.012861
23,68,8,3,0,0,1,,5,S,0,S,16,0.772372,0.023663,0.018276
23,69,4,2,0,0,1,,2,S,0,S,18,0.767221,0.032642,0.025044
23,70,6,4,0,0,1,,2,S,0,S,17,0.780868,0.018277,0.014272
23,71,8,5,0,0,1,,3,S,0,S,18,0.756105,0.042542,0.032166
23,72,2,8,0,0,1,,6,S,0,S,14,0.002097,0.791863,0.00166
24,1,7,2,0,0,1,,5,S,0,S,15,0.786893,0.009615,0.007566
24,2,6,8,0,0,1,,2,S,0,S,26,0.044564,0.758292,0.033792
24,3,4,9,0,0,1,,5,S,0,S,14,0.031453,0.752581,0.023671
24,4,6,7,0,0,1,,1,S,0,S,18,0.036225,0.762399,0.027618
24,5,9,8,0,0,1,,1,S,0,S,16,0.767144,0.026489,0.020321
24,6,9,2,0,0,1,,7,L,0,S,13,0.756034,0.021786,0.016471
24,7,4,1,0,0,1,,3,S,0,S,17,0.79418,0.007759,0.006162
24,8,7,4,0,0,1,,3,S,0,S,19,0.792082,0.01556,0.012325
24,9,3,9,0,0,1,,6,S,0,S,14,0.034067,0.751879,0.025614
24,10,3,4,0,0,1,,1,S,0,S,17,0.027969,0.772834,0.021616
24,11,9,4,0,0,1,,5,S,0,S,15,0.780191,0.014039,0.010953
24,12,7,5,0,0,1,,2,S,0,S,18,0.776371,0.024515,0.019032
24,13,1,4,0,0,1,,3,S,0,S,14,0,0.80044,0
24,14,9,3,0,0,1,,6,S,0,S,13,0.77079,0.01195,0.009211
24,15,1,8,0,0,1,,7,L,0,S,13,0.009485,0.77474,0.007348
24,16,5,2,0,0,1,,3,S,0,S,16,0.790434,0.005963,0.004713
24,17,2,6,0,0,1,,4,S,0,S,14,0.002895,0.790854,0.002289
24,18,6,5,0,0,1,,1,S,0,S,18,0.773787,0.02587,0.020018
24,19,2,5,0,0,1,,3,S,0,S,15,0.030828,0.757919,0.023365
24,20,3,5,0,0,1,,2,S,0,S,18,0.018302,0.784217,0.014353
24,21,6,3,0,0,1,,3,S,0,S,14,0.756442,0.030062,0.02274
24,22,4,6,0,0,1,,2,S,0,S,15,0.009247,0.786333,0.007271
24,23,7,3,0,0,1,,4,S,0,S,14,0.758063,0.029432,0.022311
24,24,1,3,0,0,1,,2,S,0,S,16,0.020278,0.77526,0.01572
24,25,2,4,0,0,1,,2,S,0,S,15,0.017696,0.777634,0.013761
24,26,3,1,0,0,1,,2,S,0,S,16,0.762652,0.032625,0.024882
24,27,5,7,0,0,1,,2,S,0,S,17,0.0164,0.78137,0.012814
24,28,2,8,0,0,1,,6,S,0,S,14,0.019306,0.769931,0.014864
24,29,6,9,0,0,1,,3,S,0,S,18,0.031645,0.768216,0.02431
24,30,5,4,0,0,1,,1,S,0,S,23,0.756353,0.042514,0.032155
24,31,7,8,0,0,1,,1,S,0,S,26,0.046786,0.756453,0.035391
24,32,2,1,0,0,1,,1,S,0,S,21,0.769321,0.032809,0.02524
24,33,1,2,0,0,1,,1,S,0,S,16,0.00039,0.798826,0.000312
24,34,3,8,0,0,1,,5,S,0,S,15,0.038053,0.752412,0.028632
24,35,7,9,0,0,1,,2,S,0,S,18,0.031014,0.769891,0.023877
24,36,6,1,0,0,1,,5,S,0,S,14,0.783768,0.008828,0.006919
24,37,2,3,0,0,1,,1,S,0,S,23,0.035467,0.767505,0.027221
24,38,8,3,0,0,1,,5,S,0,S,14,0.7911,0.001308,0.001034
24,39,1,9,0,0,1,,8,L,0,S,13,0,0.797582,0
24,40,2,7,0,0,1,,5,S,0,S,14,0,0.80198,0
24,41,8,7,0,0,1,,1,S,0,S,34,0.770128,0.032343,0.024908
24,42,2,9,0,0,1,,7,L,0,S,14,0,0.803194,0
24,43,3,2,0,0,1,,1,S,0,S,19,0.763436,0.035998,0.027482
24,44,7,1,0,0,1,,6,S,0,S,14,0.785287,0.008244,0.006474
24,45,4,2,0,0,1,,2,S,0,S,20,0.773714,0.026367,0.020401
24,46,6,4,0,0,1,,2,S,0,S,19,0.789303,0.017096,0.013494
24,47,3,6,0,0,1,,3,S,0,S,15,0.012096,0.785339,0.0095
24,48,8,9,0,0,1,,1,S,0,S,31,0.040777,0.759522,0.030971
24,49,6,2,0,0,1,,4,S,0,S,15,0.78515,0.010354,0.008129
24,50,8,2,0,0,1,,6,S,0,S,14,0.773195,0.013709,0.0106
24,51,5,1,0,0,1,,4,S,0,S,14,0.751159,0.030946,0.023245
24,52,5,9,0,0,1,,4,S,0,S,17,0.013612,0.78493,0.010684
24,53,1,7,0,0,1,,6,S,0,S,13,0,0.796705,0
24,54,1,6,0,0,1,,5,S,0,S,13,0,0.788838,0
24,55,5,8,0,0,1,,3,S,0,S,20,0.010325,0.793993,0.008198
24,56,9,6,0,0,1,,3,S,0,S,17,0.760947,0.033149,0.025224
24,57,8,5,0,0,1,,3,S,0,S,16,0.772912,0.020373,0.015747
24,58,7,6,0,0,0,,1,S,0,S,20,0.013851,0.794135,0.010999
24,59,9,1,0,0,1,,8,L,0,S,13,0.788014,0,0
24,60,9,5,0,0,1,,4,S,0,S,15,0.787016,0.006645,0.00523
24,61,4,7,0,0,1,,3,S,0,S,14,0.032773,0.750833,0.024607
24,62,8,6,0,0,1,,2,S,0,S,22,0.771108,0.030156,0.023253
24,63,1,5,0,0,1,,4,S,0,S,14,0.00304,0.787559,0.002395
24,64,4,5,0,0,1,,1,S,0,S,18,0.009242,0.792734,0.007326
24,65,4,8,0,0,1,,4,S,0,S,15,0.034006,0.754832,0.025669
24,66,4,3,0,0,1,,1,S,0,S,18,0.763772,0.033664,0.025712
24,67,3,7,0,0,1,,4,S,0,S,14,0.035435,0.750075,0.026579
24,68,9,7,0,0,1,,2,S,0,S,18,0.765801,0.030951,0.023702
24,69,8,1,0,0,1,,7,L,0,S,13,0.759174,0.020514,0.015574
24,70,5,6,0,0,1,,1,S,0,S,18,0.009178,0.792478,0.007273
24,71,5,3,0,0,1,,2,S,0,S,15,0.769354,0.021031,0.01618
24,72,8,4,0,0,1,,4,S,0,S,16,0.759867,0.032779,0.024908
25,1,9,8,0,0,1,,1,S,0,S,15,0.790925,0.006878,0.00544
25,2,6,7,0,0,0,,1,S,0,S,29,0.79138,0.021432,0.016961
25,3,2,3,0,0,1,,1,S,0,S,15,0.015293,0.781328,0.011949
25,4,8,7,0,0,1,,1,S,0,S,22,0.778797,0.027621,0.021511
25,5,5,4,0,0,1,,1,S,0,S,23,0.795508,0.011643,0.009262
25,6,1,7,0,0,1,,6,S,0,S,14,0.018718,0.772453,0.014459
25,7,2,7,0,0,1,,5,S,0,S,14,0.022476,0.767562,0.017252
25,8,8,6,0,0,1,,2,S,0,S,19,0.784116,0.020768,0.016284
25,9,6,1,0,0,1,,5,S,0,S,13,0.773761,0.012269,0.009493
25,10,9,5,0,0,1,,4,S,0,S,14,0.795731,0,0
25,11,7,9,0,0,1,,2,S,0,S,21,0.040228,0.761404,0.030629
25,12,3,4,0,0,1,,1,S,0,S,20,0.038096,0.760439,0.02897
25,13,9,3,0,0,1,,6,S,0,S,13,0.76354,0.019482,0.014875
25,14,4,7,0,0,1,,3,S,0,S,19,0.038502,0.762213,0.029347
25,15,5,9,0,0,1,,4,S,0,S,16,0.025557,0.772554,0.019744
25,16,5,1,0,0,1,,4,S,0,S,13,0.7507,0.028162,0.021141
25,17,7,8,0,0,1,,1,S,0,S,22,0.042884,0.757981,0.032505
25,18,9,4,0,0,1,,5,S,0,S,13,0.761785,0.018417,0.01403
25,19,2,4,0,0,1,,2,S,0,S,15,0.023288,0.767634,0.017877
25,20,9,1,0,0,1,,8,L,0,S,12,0.800583,0,0
25,21,4,8,0,0,1,,4,S,0,S,16,0.025529,0.77105,0.019684
25,22,8,2,0,0,1,,6,S,0,S,15,0.785674,0.01145,0.008996
25,23,7,3,0,0,1,,4,S,0,S,17,0.797831,0.006511,0.005195
25,24,6,8,0,0,1,,2,S,0,S,18,0.011181,0.797148,0.008913
25,25,7,5,0,0,1,,2,S,0,S,18,0.784951,0.015335,0.012037
25,26,8,1,0,0,1,,7,L,0,S,13,0.777215,0.007688,0.005975
25,27,9,6,0,0,1,,3,S,0,S,13,0.755297,0.025728,0.019432
25,28,2,6,0,0,1,,4,S,0,S,15,0.004676,0.794934,0.003717
25,29,3,5,0,0,1,,2,S,0,S,18,0.019494,0.781034,0.015225
25,30,2,9,0,0,1,,7,L,0,S,13,0.021892,0.76136,0.016668
25,31,3,1,0,0,1,,2,S,0,S,14,0.77342,0.015911,0.012306
25,32,5,3,0,0,1,,2,S,0,S,24,0.769075,0.036273,0.027897
25,33,7,6,0,0,1,,1,S,0,S,17,0.771631,0.027262,0.021036
25,34,3,2,0,0,1,,1,S,0,S,18,0.78838,0.016464,0.01298
25,35,6,3,0,0,1,,3,S,0,S,19,0.787767,0.0203,0.015992
25,36,3,8,0,0,1,,5,S,0,S,15,0.02219,0.772363,0.017139
25,37,5,6,0,0,1,,1,S,0,S,26,0.044843,0.758883,0.034031
25,38,1,8,0,0,1,,7,L,0,S,13,0.021943,0.760677,0.016691
25,39,8,4,0,0,1,,4,S,0,S,18,0.787547,0.013922,0.010964
25,40,4,6,0,0,1,,2,S,0,S,23,0.045641,0.756038,0.034506
25,41,1,4,0,0,1,,3,S,0,S,15,0.018223,0.774187,0.014108
25,42,2,8,0,0,1,,6,S,0,S,13,0.024714,0.757006,0.018709
25,43,3,9,0,0,1,,6,S,0,S,15,0.017098,0.779566,0.013329
25,44,7,4,0,0,1,,3,S,0,S,16,0.752307,0.037304,0.028064
25,45,4,1,0,0,1,,3,S,0,S,14,0.798562,0,0
25,46,6,2,0,0,1,,4,S,0,S,15,0.775515,0.021593,0.016745
25,47,4,5,0,0,1,,1,S,0,S,21,0.038296,0.759987,0.029105
25,48,3,6,0,0,1,,3,S,0,S,18,0.040194,0.75875,0.030497
25,49,5,2,0,0,1,,3,S,0,S,16,0.778489,0.020485,0.015947
25,50,1,5,0,0,1,,4,S,0,S,14,0.031152,0.752243,0.023434
25,51,9,2,0,0,1,,7,L,0,S,12,0.753935,0.019869,0.01498
25,52,1,3,0,0,1,,2,S,0,S,15,0.0105,0.787481,0.008268
25,53,9,7,0,0,1,,2,S,0,S,14,0.792708,0.002498,0.00198
25,54,2,1,0,0,1,,1,S,0,S,17,0.796243,0.006458,0.005142
25,55,4,3,0,0,1,,1,S,0,S,29,0.786245,0.022376,0.017593
25,56,8,9,0,0,1,,1,S,0,S,18,0.034649,0.76534,0.026518
25,57,8,3,0,0,1,,5,S,0,S,18,0.779883,0.02289,0.017851
25,58,4,2,0,0,1,,2,S,0,S,16,0.766595,0.02915,0.022347
25,59,7,2,0,0,1,,5,S,0,S,14,0.761399,0.02594,0.01975
25,60,5,7,0,0,1,,2,S,0,S,20,0.024829,0.781474,0.019403
25,61,4,9,0,0,1,,5,S,0,S,16,0.018559,0.780622,0.014487
25,62,3,7,0,0,1,,4,S,0,S,17,0.023135,0.778683,0.018015
25,63,8,5,0,0,1,,3,S,0,S,20,0.7739,0.026695,0.020659
25,64,2,5,0,0,1,,3,S,0,S,15,0,0.798114,0
25,65,1,6,0,0,1,,5,S,0,S,15,0.000335,0.800491,0.000268
25,66,1,2,0,0,1,,1,S,0,S,18,0.021365,0.781928,0.016706
25,67,6,9,0,0,1,,3,S,0,S,17,0.036601,0.76376,0.027954
25,68,1,9,0,0,1,,8,L,0,S,13,0.019187,0.764936,0.014677
25,69,6,5,0,0,1,,1,S,0,S,22,0.777893,0.027269,0.021212
25,70,6,4,0,0,1,,2,S,0,S,18,0.752989,0.043703,0.032908
25,71,5,8,0,0,1,,3,S,0,S,16,0.033,0.76236,0.025158
25,72,7,1,0,0,1,,6,S,0,S,13,0.791441,0,0
26,1,7,4,0,0,1,,3,S,0,S,16,0.75512,0.036262,0.027382
26,2,4,6,0,0,1,,2,S,0,S,24,0.049311,0.752145,0.037089
26,3,7,9,0,0,1,,2,S,0,S,27,0.01795,0.788109,0.014146
26,4,9,2,0,0,1,,7,L,0,S,13,0.797285,0,0
26,5,1,3,0,0,1,,2,S,0,S,17,0.025185,0.771867,0.019439
26,6,4,7,0,0,1,,3,S,0,S,16,0.038489,0.755568,0.029081
26,7,1,8,0,0,1,,7,L,0,S,13,0,0.795237,0
26,8,1,6,0,0,1,,5,S,0,S,14,0,0.7989,0
26,9,2,8,0,0,1,,6,S,0,S,13,0.025919,0.755571,0.019584
26,10,6,1,0,0,1,,5,S,0,S,14,0.767866,0.020487,0.015731
26,11,6,9,0,0,1,,3,S,0,S,18,0.020961,0.778038,0.016308
26,12,5,4,0,0,1,,1,S,0,S,22,0.780956,0.02403,0.018766
26,13,5,1,0,0,1,,4,S,0,S,14,0.753891,0.032631,0.0246
26,14,6,2,0,0,1,,4,S,0,S,13,0.752182,0.026093,0.019627
26,15,1,9,0,0,1,,8,L,0,S,13,0,0.792505,0
26,16,9,1,0,0,1,,8,L,0,S,13,0.770637,0.014536,0.011202
26,17,8,4,0,0,1,,4,S,0,S,18,0.785257,0.017428,0.013686
26,18,9,5,0,0,1,,4,S,0,S,17,0.790931,0.012902,0.010204
26,19,8,7,0,0,0,,1,S,0,S,20,0.036681,0.765848,0.028092
26,20,8,5,0,0,1,,3,S,0,S,21,0.786435,0.021314,0.016762
26,21,8,2,0,0,1,,6,S,0,S,13,0.768429,0.015284,0.011745
26,22,7,8,0,0,1,,1,S,0,S,34,0.028298,0.779207,0.02205
26,23,1,4,0,0,1,,3,S,0,S,14,0.000758,0.791837,0.0006
26,24,5,3,0,0,1,,2,S,0,S,14,0.750193,0.034343,0.025764
26,25,4,1,0,0,1,,3,S,0,S,15,0.787481,0.010657,0.008392
26,26,8,1,0,0,1,,7,L,0,S,14,0.787987,0.006504,0.005125
26,27,5,2,0,0,1,,3,S,0,S,14,0.795779,0,0
26,28,5,6,0,0,0,,1,S,0,S,23,0.757357,0.044684,0.033842
26,29,3,6,0,0,1,,3,S,0,S,22,0.016307,0.793205,0.012935
26,30,3,5,0,0,1,,2,S,0,S,18,0.04157,0.758053,0.031512
26,31,4,2,0,0,1,,2,S,0,S,14,0.782686,0.009357,0.007323
26,32,8,6,0,0,1,,2,S,0,S,18,0.770472,0.030469,0.023475
26,33,7,1,0,0,1,,6,S,0,S,13,0.754507,0.026164,0.019741
26,34,9,7,0,0,1,,2,S,0,S,20,0.774726,0.029256,0.022665
26,35,5,7,0,0,1,,2,S,0,S,17,0.032292,0.766199,0.024742
26,36,2,7,0,0,1,,5,S,0,S,13,0.029032,0.750787,0.021797
26,37,7,6,0,0,1,,1,S,0,S,17,0.795515,0.007953,0.006327
26,38,2,1,0,0,1,,1,S,0,S,32,0.759125,0.043952,0.033365
26,39,2,4,0,0,1,,2,S,0,S,15,0.012602,0.782008,0.009855
26,40,6,8,0,0,1,,2,S,0,S,18,0.026082,0.774919,0.020211
26,41,9,8,0,0,1,,1,S,0,S,21,0.79012,0.018233,0.014407
26,42,2,5,0,0,1,,3,S,0,S,14,0.021413,0.767966,0.016445
26,43,4,3,0,0,1,,1,S,0,S,15,0.783544,0.012608,0.009879
26,44,6,3,0,0,1,,3,S,0,S,14,0.764325,0.022103,0.016894
26,45,5,9,0,0,1,,4,S,0,S,17,0.018592,0.781029,0.014521
26,46,1,5,0,0,1,,4,S,0,S,13,0.018005,0.764973,0.013773
26,47,3,4,0,0,1,,1,S,0,S,23,0.040792,0.761464,0.031062
26,48,4,8,0,0,1,,4,S,0,S,16,0.030204,0.766893,0.023164
26,49,2,6,0,0,1,,4,S,0,S,15,0.006221,0.791707,0.004925
26,50,3,1,0,0,1,,2,S,0,S,15,0.777918,0.018646,0.014505
26,51,8,9,0,0,1,,1,S,0,S,19,0.038818,0.759254,0.029473
26,52,9,4,0,0,1,,5,S,0,S,16,0.793924,0.00657,0.005216
26,53,2,9,0,0,1,,7,L,0,S,13,0.025551,0.753118,0.019243
26,54,3,7,0,0,1,,4,S,0,S,16,0.024345,0.774332,0.018851
26,55,4,9,0,0,1,,5,S,0,S,16,0.027826,0.766691,0.021334
26,56,3,2,0,0,1,,1,S,0,S,14,0.776097,0.014922,0.011581
26,57,1,7,0,0,1,,6,S,0,S,13,0,0.79151,0
26,58,7,5,0,0,1,,2,S,0,S,18,0.780341,0.022259,0.01737
26,59,3,8,0,0,1,,5,S,0,S,16,0.016945,0.784449,0.013292
26,60,7,2,0,0,1,,5,S,0,S,13,0.784214,0.002518,0.001975
26,61,9,3,0,0,1,,6,S,0,S,13,0.767727,0.015721,0.012069
26,62,4,5,0,0,1,,1,S,0,S,19,0.036369,0.765527,0.027842
26,63,6,5,0,0,1,,1,S,0,S,30,0.794038,0.015199,0.012069
26,64,6,4,0,0,1,,2,S,0,S,19,0.755447,0.040479,0.03058
26,65,1,2,0,0,1,,1,S,0,S,22,0.03251,0.768608,0.024987
26,66,6,7,0,0,1,,1,S,0,S,18,0.04054,0.755843,0.030642
26,67,9,6,0,0,1,,3,S,0,S,16,0.788154,0.012326,0.009715
26,68,5,8,0,0,1,,3,S,0,S,17,0.021865,0.780144,0.017058
26,69,2,3,0,0,1,,1,S,0,S,38,0.025633,0.780329,0.020002
