ANN,trial,N1,N2,P1,P2,Succ.,,Ndist,Ndist,Pdist,Pdist,rt,a1,a2,x_acc
1,1,3,8,0,0,1,,5,S,0,S,14,0.001705,0.793359,0.001353
1,2,4,9,0,0,1,,5,S,0,S,16,0.01344,0.786207,0.010567
1,3,5,1,0,0,1,,4,S,0,S,15,0.79281,0.007817,0.006197
1,4,6,3,0,0,0,,3,S,0,S,22,0.034997,0.768957,0.026911
1,5,1,2,0,0,0,,1,S,0,S,21,0.764002,0.041688,0.03185
1,6,6,2,0,0,1,,4,S,0,S,18,0.779971,0.025142,0.01961
1,7,1,7,0,0,1,,6,S,0,S,16,0.035812,0.759502,0.027199
1,8,9,8,0,0,1,,1,S,0,S,22,0.773277,0.032056,0.024788
1,9,2,3,0,0,1,,1,S,0,S,29,0.050832,0.750982,0.038174
1,10,7,4,0,0,1,,3,S,0,S,29,0.763571,0.043571,0.03327
1,11,8,4,0,0,1,,4,S,0,S,20,0.77046,0.034726,0.026755
1,12,1,5,0,0,1,,4,S,0,S,20,0.027975,0.777321,0.021746
1,13,5,3,0,0,1,,2,S,0,S,21,0.751861,0.048598,0.036539
1,14,8,2,0,0,1,,6,S,0,S,16,0.770168,0.027883,0.021474
1,15,3,5,0,0,1,,2,S,0,S,17,0.014681,0.787913,0.011568
1,16,7,6,0,0,0,,1,S,0,S,14,0.030342,0.756858,0.022964
1,17,7,8,0,0,1,,1,S,0,S,16,0.003404,0.799105,0.00272
1,18,3,7,0,0,1,,4,S,0,S,15,0.018773,0.776274,0.014573
1,19,6,9,0,0,1,,3,S,0,S,17,0.043683,0.752514,0.032872
1,20,6,7,0,0,1,,1,S,0,S,18,0.02303,0.779829,0.017959
1,21,5,9,0,0,1,,4,S,0,S,20,0.034666,0.76968,0.026682
1,22,7,2,0,0,1,,5,S,0,S,17,0.771893,0.029315,0.022628
1,23,3,9,0,0,1,,6,S,0,S,15,0.012193,0.785634,0.009579
1,24,4,6,0,0,1,,2,S,0,S,14,0,0.802481,0
1,25,8,7,0,0,0,,1,S,0,S,23,0.020995,0.785693,0.016496
1,26,2,7,0,0,1,,5,S,0,S,19,0.022782,0.781791,0.017811
1,27,8,5,0,0,1,,3,S,0,S,19,0.795734,0.010497,0.008353
1,28,9,2,0,0,1,,7,L,0,S,14,0.788703,0.007904,0.006234
1,29,3,4,0,0,1,,1,S,0,S,16,0.021502,0.780119,0.016774
1,30,2,4,0,0,1,,2,S,0,S,34,0.028933,0.782741,0.022647
1,31,6,4,0,0,0,,2,S,0,S,22,0.039858,0.767071,0.030574
1,32,5,4,0,0,1,,1,S,0,S,21,0.775483,0.033071,0.025646
1,33,6,8,0,0,1,,2,S,0,S,15,0.023292,0.770702,0.017951
1,34,4,3,0,0,0,,1,S,0,S,18,0.011191,0.792581,0.00887
1,35,6,1,0,0,1,,5,S,0,S,15,0.751135,0.039866,0.029945
1,36,1,4,0,0,1,,3,S,0,S,18,0.034418,0.770217,0.02651
1,37,5,8,0,0,1,,3,S,0,S,16,0.02282,0.775675,0.017701
1,38,8,9,0,0,1,,1,S,0,S,21,0.038959,0.763154,0.029732
1,39,8,1,0,0,1,,7,L,0,S,15,0.796369,0.003646,0.002903
1,40,5,2,0,0,1,,3,S,0,S,16,0.761913,0.035864,0.027326
1,41,4,8,0,0,1,,4,S,0,S,14,0.025136,0.761466,0.019141
1,42,1,9,0,0,1,,8,L,0,S,16,0.02567,0.7734,0.019853
1,43,2,1,0,0,1,,1,S,0,S,15,0.769111,0.025952,0.01996
1,44,4,5,0,0,1,,1,S,0,S,19,0.024358,0.777738,0.018944
1,45,4,7,0,0,1,,3,S,0,S,16,0.022413,0.773818,0.017344
1,46,9,1,0,0,1,,8,L,0,S,13,0.774111,0.013345,0.010331
1,47,7,9,0,0,1,,2,S,0,S,18,0.045657,0.751567,0.034314
1,48,3,2,0,0,0,,1,S,0,S,20,0.018627,0.790503,0.014725
1,49,1,6,0,0,1,,5,S,0,S,14,0,0.798856,0
1,50,9,3,0,0,1,,6,S,0,S,15,0.771912,0.022718,0.017536
1,51,3,6,0,0,1,,3,S,0,S,13,0.011917,0.774528,0.00923
1,52,1,3,0,0,1,,2,S,0,S,18,0.035351,0.76503,0.027045
1,53,2,5,0,0,0,,3,S,0,S,22,0.794124,0.015008,0.011919
1,54,2,8,0,0,1,,6,S,0,S,15,0.036581,0.753662,0.02757
1,55,6,5,0,0,1,,1,S,0,S,26,0.754407,0.04789,0.036128
1,56,7,3,0,0,1,,4,S,0,S,35,0.790808,0.018352,0.014513
1,57,5,6,0,0,1,,1,S,0,S,15,0.00688,0.793296,0.005458
1,58,8,6,0,0,0,,2,S,0,S,15,0.013988,0.782412,0.010944
1,59,5,7,0,0,1,,2,S,0,S,21,0.036405,0.767376,0.027936
1,60,2,6,0,0,1,,4,S,0,S,14,0.028265,0.760256,0.021488
1,61,9,6,0,0,0,,3,S,0,S,19,0.035792,0.766902,0.027449
1,62,3,1,0,0,1,,2,S,0,S,20,0.7898,0.018317,0.014467
1,63,4,1,0,0,1,,3,S,0,S,17,0.76704,0.031284,0.023996
1,64,2,9,0,0,1,,7,L,0,S,18,0.038537,0.761365,0.029341
1,65,7,5,0,0,1,,2,S,0,S,21,0.764573,0.037554,0.028713
1,66,9,7,0,0,1,,2,S,0,S,16,0.768402,0.028568,0.021952
1,67,9,4,0,0,1,,5,S,0,S,15,0.780762,0.01868,0.014584
1,68,8,3,0,0,1,,5,S,0,S,20,0.750502,0.04727,0.035476
1,69,4,2,0,0,1,,2,S,0,S,25,0.775163,0.031824,0.024668
1,70,1,8,0,0,1,,7,L,0,S,14,0.031871,0.755338,0.024073
1,71,7,1,0,0,1,,6,S,0,S,15,0.770482,0.024333,0.018748
1,72,9,5,0,0,1,,4,S,0,S,15,0.793907,0.005689,0.004517
2,1,9,2,0,0,1,,7,L,0,S,15,0.787766,0.012848,0.010121
2,2,3,7,0,0,1,,4,S,0,S,16,0.01764,0.778699,0.013736
2,3,4,8,0,0,1,,4,S,0,S,18,0.021837,0.777483,0.016978
2,4,4,1,0,0,1,,3,S,0,S,16,0.790514,0.007527,0.00595
2,5,3,5,0,0,1,,2,S,0,S,20,0.047277,0.753482,0.035622
2,6,4,6,0,0,1,,2,S,0,S,20,0.024885,0.778869,0.019382
2,7,5,7,0,0,1,,2,S,0,S,16,0.009266,0.789586,0.007316
2,8,3,8,0,0,1,,5,S,0,S,16,0.011992,0.785111,0.009415
2,9,6,8,0,0,1,,2,S,0,S,15,0.037924,0.751924,0.028516
2,10,6,7,0,0,1,,1,S,0,S,16,0.006986,0.796045,0.005561
2,11,7,1,0,0,1,,6,S,0,S,16,0.78784,0.012897,0.010161
2,12,9,1,0,0,1,,8,L,0,S,15,0.795119,0.004933,0.003922
2,13,2,7,0,0,1,,5,S,0,S,16,0.013368,0.786253,0.01051
2,14,5,8,0,0,1,,3,S,0,S,16,0.004063,0.795423,0.003232
2,15,1,7,0,0,1,,6,S,0,S,14,0.021011,0.764288,0.016059
2,16,2,3,0,0,0,,1,S,0,S,20,0.782965,0.024719,0.019354
2,17,9,4,0,0,1,,5,S,0,S,16,0.773383,0.027405,0.021195
2,18,1,3,0,0,1,,2,S,0,S,18,0.034509,0.763902,0.026362
2,19,6,2,0,0,1,,4,S,0,S,19,0.794711,0.014327,0.011386
2,20,3,6,0,0,1,,3,S,0,S,17,0.00736,0.796003,0.005858
2,21,9,7,0,0,0,,2,S,0,S,22,0.051703,0.750561,0.038806
2,22,5,3,0,0,1,,2,S,0,S,21,0.792497,0.016121,0.012776
2,23,1,8,0,0,1,,7,L,0,S,14,0.017974,0.767504,0.013795
2,24,8,2,0,0,1,,6,S,0,S,17,0.775947,0.024575,0.019069
2,25,9,5,0,0,1,,4,S,0,S,17,0.779084,0.027178,0.021174
2,26,2,6,0,0,1,,4,S,0,S,16,0.038544,0.755749,0.029129
2,27,5,4,0,0,0,,1,S,0,S,25,0.028755,0.776976,0.022342
2,28,1,5,0,0,1,,4,S,0,S,16,0.013561,0.786612,0.010667
2,29,8,1,0,0,1,,7,L,0,S,17,0.79369,0.008199,0.006507
2,30,4,9,0,0,0,,5,S,0,S,19,0.763981,0.035618,0.027212
2,31,8,5,0,0,0,,3,S,0,S,29,0.046478,0.759856,0.035316
2,32,8,4,0,0,1,,4,S,0,S,21,0.787953,0.019792,0.015595
2,33,6,9,0,0,1,,3,S,0,S,21,0.020147,0.789322,0.015902
2,34,6,5,0,0,0,,1,S,0,S,19,0.049429,0.753695,0.037255
2,35,7,5,0,0,1,,2,S,0,S,21,0.784417,0.027127,0.021279
2,36,7,9,0,0,0,,2,S,0,S,20,0.783321,0.024764,0.019398
2,37,1,6,0,0,1,,5,S,0,S,15,0,0.799798,0
2,38,5,2,0,0,1,,3,S,0,S,19,0.781801,0.021612,0.016896
2,39,2,5,0,0,1,,3,S,0,S,20,0.033882,0.772602,0.026177
2,40,8,7,0,0,0,,1,S,0,S,17,0.010341,0.792314,0.008193
2,41,4,2,0,0,1,,2,S,0,S,16,0.779159,0.018697,0.014568
2,42,9,3,0,0,1,,6,S,0,S,15,0.770366,0.02781,0.021424
2,43,6,1,0,0,1,,5,S,0,S,18,0.779686,0.02268,0.017684
2,44,1,9,0,0,1,,8,L,0,S,16,0.026457,0.767206,0.020298
2,45,3,4,0,0,0,,1,S,0,S,36,0.765309,0.038551,0.029503
2,46,3,1,0,0,1,,2,S,0,S,18,0.78725,0.013493,0.010623
2,47,2,9,0,0,1,,7,L,0,S,22,0.013937,0.795808,0.011091
2,48,7,3,0,0,1,,4,S,0,S,17,0.795583,0.012593,0.010019
2,49,4,5,0,0,0,,1,S,0,S,20,0.778401,0.027609,0.021491
2,50,6,4,0,0,0,,2,S,0,S,25,0.036367,0.771555,0.028059
2,51,4,3,0,0,1,,1,S,0,S,16,0.753056,0.040516,0.030511
2,52,9,8,0,0,0,,1,S,0,S,21,0.044744,0.757696,0.033903
2,53,6,3,0,0,1,,3,S,0,S,20,0.762256,0.042783,0.032611
2,54,3,9,0,0,1,,6,S,0,S,22,0.032966,0.769821,0.025378
2,55,1,2,0,0,1,,1,S,0,S,20,0.019327,0.783864,0.01515
2,56,3,2,0,0,1,,1,S,0,S,18,0.759417,0.037928,0.028803
2,57,8,6,0,0,0,,2,S,0,S,18,0.008692,0.797984,0.006936
2,58,5,6,0,0,1,,1,S,0,S,16,0.032983,0.760899,0.025097
2,59,7,2,0,0,1,,5,S,0,S,16,0.774976,0.025306,0.019611
2,60,7,8,0,0,1,,1,S,0,S,17,0.036269,0.761514,0.02762
2,61,5,9,0,0,1,,4,S,0,S,21,0.021626,0.783573,0.016946
2,62,7,6,0,0,0,,1,S,0,S,19,0.025028,0.781994,0.019572
2,63,5,1,0,0,1,,4,S,0,S,18,0.767803,0.029038,0.022296
2,64,2,4,0,0,1,,2,S,0,S,30,0.016333,0.795065,0.012986
2,65,2,1,0,0,1,,1,S,0,S,18,0.787319,0.015183,0.011954
2,66,1,4,0,0,1,,3,S,0,S,17,0.012741,0.787889,0.010038
2,67,9,6,0,0,1,,3,S,0,S,24,0.762773,0.044131,0.033662
2,68,4,7,0,0,1,,3,S,0,S,18,0.033895,0.763062,0.025864
2,69,2,8,0,0,1,,6,S,0,S,16,0.007862,0.792461,0.00623
2,70,7,4,0,0,1,,3,S,0,S,18,0.759941,0.04152,0.031553
2,71,8,3,0,0,1,,5,S,0,S,18,0.783989,0.021295,0.016695
2,72,8,9,0,0,0,,1,S,0,S,25,0.774888,0.031298,0.024252
3,1,4,8,0,0,1,,4,S,0,S,17,0.04032,0.757293,0.030534
3,2,6,2,0,0,1,,4,S,0,S,17,0.767705,0.030708,0.023575
3,3,8,2,0,0,1,,6,S,0,S,14,0.798992,0,0
3,4,4,6,0,0,1,,2,S,0,S,14,0.024787,0.764675,0.018954
3,5,4,1,0,0,1,,3,S,0,S,23,0.756659,0.048286,0.036536
3,6,9,8,0,0,1,,1,S,0,S,17,0.780597,0.020512,0.016012
3,7,1,3,0,0,1,,2,S,0,S,15,0.021243,0.772502,0.016411
3,8,6,3,0,0,0,,3,S,0,S,18,0.032664,0.766979,0.025052
3,9,8,6,0,0,0,,2,S,0,S,24,0.040987,0.761248,0.031201
3,10,2,7,0,0,1,,5,S,0,S,15,0.015682,0.782198,0.012267
3,11,8,7,0,0,1,,1,S,0,S,18,0.761917,0.036851,0.028078
3,12,4,2,0,0,1,,2,S,0,S,18,0.794781,0.011119,0.008837
3,13,1,4,0,0,1,,3,S,0,S,14,0.016557,0.774848,0.012829
3,14,2,9,0,0,1,,7,L,0,S,17,0.041105,0.756119,0.03108
3,15,9,2,0,0,1,,7,L,0,S,14,0.778345,0.012385,0.00964
3,16,7,1,0,0,1,,6,S,0,S,14,0.775166,0.017168,0.013308
3,17,5,7,0,0,1,,2,S,0,S,21,0.01666,0.790321,0.013166
3,18,2,1,0,0,0,,1,S,0,S,23,0.033833,0.774775,0.026213
3,19,3,4,0,0,1,,1,S,0,S,16,0.037646,0.758968,0.028572
3,20,3,2,0,0,1,,1,S,0,S,16,0.760806,0.035454,0.026973
3,21,2,4,0,0,1,,2,S,0,S,15,0.020458,0.775454,0.015865
3,22,1,6,0,0,1,,5,S,0,S,13,0.019181,0.764717,0.014668
3,23,1,5,0,0,1,,4,S,0,S,15,0.018065,0.775209,0.014004
3,24,5,3,0,0,1,,2,S,0,S,20,0.791848,0.013095,0.010369
3,25,5,1,0,0,1,,4,S,0,S,16,0.784928,0.015711,0.012332
3,26,5,4,0,0,0,,1,S,0,S,21,0.046236,0.752552,0.034795
3,27,7,3,0,0,1,,4,S,0,S,16,0.797515,0.003634,0.002898
3,28,8,1,0,0,1,,7,L,0,S,14,0.76656,0.023586,0.01808
3,29,6,7,0,0,1,,1,S,0,S,16,0.00897,0.794054,0.007123
3,30,8,9,0,0,0,,1,S,0,S,15,0.761484,0.029894,0.022764
3,31,3,1,0,0,1,,2,S,0,S,19,0.782525,0.026283,0.020567
3,32,4,5,0,0,1,,1,S,0,S,17,0.040563,0.753577,0.030567
3,33,1,2,0,0,1,,1,S,0,S,22,0.036321,0.766827,0.027852
3,34,4,7,0,0,1,,3,S,0,S,15,0.035696,0.75644,0.027002
3,35,9,3,0,0,1,,6,S,0,S,17,0.782942,0.017208,0.013473
3,36,9,5,0,0,1,,4,S,0,S,17,0.76949,0.026647,0.020505
3,37,1,8,0,0,1,,7,L,0,S,15,0.017067,0.779612,0.013306
3,38,5,6,0,0,1,,1,S,0,S,17,0.010872,0.791395,0.008604
3,39,6,5,0,0,0,,1,S,0,S,18,0.022995,0.777695,0.017883
3,40,6,9,0,0,1,,3,S,0,S,20,0.013614,0.795225,0.010826
3,41,7,9,0,0,0,,2,S,0,S,15,0.773514,0.020785,0.016077
3,42,5,2,0,0,1,,3,S,0,S,15,0.789411,0.006918,0.005461
3,43,6,4,0,0,0,,2,S,0,S,16,0.015066,0.785694,0.011838
3,44,5,9,0,0,0,,4,S,0,S,18,0.770248,0.029489,0.022714
3,45,7,4,0,0,1,,3,S,0,S,17,0.753528,0.041434,0.031222
3,46,7,6,0,0,1,,1,S,0,S,32,0.789131,0.01963,0.01549
3,47,2,8,0,0,1,,6,S,0,S,16,0.040929,0.753609,0.030845
3,48,3,8,0,0,1,,5,S,0,S,19,0.037185,0.766961,0.028519
3,49,7,8,0,0,0,,1,S,0,S,16,0.796995,0.005421,0.004321
3,50,5,8,0,0,0,,3,S,0,S,20,0.781746,0.022718,0.017759
3,51,9,6,0,0,0,,3,S,0,S,19,0.032825,0.768167,0.025215
3,52,8,4,0,0,1,,4,S,0,S,18,0.775296,0.025722,0.019942
3,53,2,6,0,0,1,,4,S,0,S,14,0.011262,0.782292,0.00881
3,54,2,5,0,0,1,,3,S,0,S,17,0.005415,0.798234,0.004323
3,55,7,5,0,0,1,,2,S,0,S,16,0.788036,0.009991,0.007873
3,56,6,8,0,0,1,,2,S,0,S,18,0.022854,0.78123,0.017854
3,57,3,7,0,0,1,,4,S,0,S,16,0.030217,0.769085,0.023239
3,58,9,4,0,0,1,,5,S,0,S,21,0.791475,0.01587,0.012561
3,59,4,3,0,0,0,,1,S,0,S,18,0.012427,0.792759,0.009851
3,60,6,1,0,0,1,,5,S,0,S,21,0.762423,0.042422,0.032343
3,61,4,9,0,0,1,,5,S,0,S,19,0.019575,0.786959,0.015405
3,62,8,3,0,0,1,,5,S,0,S,16,0.783798,0.014184,0.011117
3,63,3,6,0,0,1,,3,S,0,S,15,0.0078,0.793126,0.006187
3,64,2,3,0,0,1,,1,S,0,S,17,0.011059,0.792545,0.008765
3,65,1,7,0,0,1,,6,S,0,S,14,0.013145,0.779877,0.010251
3,66,8,5,0,0,1,,3,S,0,S,16,0.773528,0.021108,0.016327
3,67,9,7,0,0,1,,2,S,0,S,21,0.7582,0.043048,0.032639
3,68,1,9,0,0,1,,8,L,0,S,15,0.037712,0.752825,0.02839
3,69,3,9,0,0,1,,6,S,0,S,22,0.045999,0.758567,0.034893
3,70,9,1,0,0,1,,8,L,0,S,15,0.790782,0.008853,0.007001
3,71,7,2,0,0,1,,5,S,0,S,13,0.752398,0.027117,0.020403
3,72,3,5,0,0,1,,2,S,0,S,19,0.035828,0.765209,0.027416
4,1,5,7,0,0,1,,2,S,0,S,22,0.041443,0.763942,0.03166
4,2,2,4,0,0,1,,2,S,0,S,16,0.004596,0.795798,0.003657
4,3,7,6,0,0,0,,1,S,0,S,22,0.041438,0.760551,0.031516
4,4,2,3,0,0,1,,1,S,0,S,22,0.018336,0.786625,0.014423
4,5,1,3,0,0,1,,2,S,0,S,16,0.004231,0.796682,0.003371
4,6,3,4,0,0,1,,1,S,0,S,27,0.042558,0.759999,0.032344
4,7,9,2,0,0,1,,7,L,0,S,13,0.772952,0.013374,0.010337
4,8,1,6,0,0,1,,5,S,0,S,13,0.02151,0.761738,0.016385
4,9,5,8,0,0,1,,3,S,0,S,26,0.042276,0.763421,0.032275
4,10,9,6,0,0,1,,3,S,0,S,17,0.767168,0.031903,0.024475
4,11,5,3,0,0,1,,2,S,0,S,16,0.7779,0.020575,0.016006
4,12,3,6,0,0,1,,3,S,0,S,19,0.040051,0.76112,0.030484
4,13,4,6,0,0,1,,2,S,0,S,16,0.02535,0.770482,0.019532
4,14,4,5,0,0,1,,1,S,0,S,22,0.012178,0.793749,0.009666
4,15,8,2,0,0,1,,6,S,0,S,13,0.787522,0.002131,0.001678
4,16,7,1,0,0,1,,6,S,0,S,17,0.781808,0.018569,0.014517
4,17,4,7,0,0,1,,3,S,0,S,17,0.009623,0.793356,0.007635
4,18,9,8,0,0,1,,1,S,0,S,16,0.765374,0.030524,0.023362
4,19,5,1,0,0,1,,4,S,0,S,17,0.756078,0.041208,0.031156
4,20,6,1,0,0,1,,5,S,0,S,20,0.764887,0.034849,0.026655
4,21,2,5,0,0,1,,3,S,0,S,17,0.030456,0.765692,0.02332
4,22,4,2,0,0,1,,2,S,0,S,16,0.772496,0.023987,0.01853
4,23,1,4,0,0,1,,3,S,0,S,14,0.002779,0.790815,0.002198
4,24,4,3,0,0,1,,1,S,0,S,20,0.779004,0.022417,0.017463
4,25,7,3,0,0,1,,4,S,0,S,16,0.792435,0.006917,0.005481
4,26,7,8,0,0,0,,1,S,0,S,24,0.78411,0.022693,0.017794
4,27,8,6,0,0,1,,2,S,0,S,16,0.770705,0.02665,0.02054
4,28,8,1,0,0,1,,7,L,0,S,14,0.771472,0.018434,0.014221
4,29,4,8,0,0,1,,4,S,0,S,17,0.025925,0.771888,0.020011
4,30,3,5,0,0,0,,2,S,0,S,19,0.785797,0.018667,0.014669
4,31,5,4,0,0,1,,1,S,0,S,29,0.788829,0.020764,0.016379
4,32,6,7,0,0,1,,1,S,0,S,18,0.040534,0.75623,0.030653
4,33,6,9,0,0,1,,3,S,0,S,20,0.045138,0.754557,0.034059
4,34,4,1,0,0,0,,3,S,0,S,26,0.021991,0.783876,0.017238
4,35,8,5,0,0,1,,3,S,0,S,14,0.757716,0.028262,0.021415
4,36,6,3,0,0,1,,3,S,0,S,17,0.752912,0.039139,0.029468
4,37,1,8,0,0,1,,7,L,0,S,14,0,0.798036,0
4,38,8,9,0,0,0,,1,S,0,S,15,0.774627,0.021647,0.016769
4,39,7,5,0,0,1,,2,S,0,S,18,0.79564,0.008369,0.006658
4,40,5,2,0,0,1,,3,S,0,S,14,0.759539,0.030063,0.022834
4,41,8,3,0,0,1,,5,S,0,S,14,0.797119,0,0
4,42,9,4,0,0,1,,5,S,0,S,16,0.77333,0.023109,0.017871
4,43,2,9,0,0,1,,7,L,0,S,16,0.007725,0.795214,0.006143
4,44,9,1,0,0,1,,8,L,0,S,15,0.798787,0.001177,0.000941
4,45,3,7,0,0,1,,4,S,0,S,21,0.036601,0.76781,0.028102
4,46,2,8,0,0,1,,6,S,0,S,15,0.032421,0.757953,0.024574
4,47,7,9,0,0,0,,2,S,0,S,21,0.783895,0.023403,0.018346
4,48,8,7,0,0,1,,1,S,0,S,16,0.793696,0.008695,0.006901
4,49,3,1,0,0,1,,2,S,0,S,18,0.785417,0.018574,0.014588
4,50,2,1,0,0,0,,1,S,0,S,18,0.020497,0.781419,0.016017
4,51,3,9,0,0,0,,6,S,0,S,29,0.791777,0.020263,0.016044
4,52,1,5,0,0,1,,4,S,0,S,14,0.031484,0.75349,0.023723
4,53,1,9,0,0,1,,8,L,0,S,14,0.003939,0.792458,0.003122
4,54,9,7,0,0,1,,2,S,0,S,17,0.798587,0.007147,0.005708
4,55,6,8,0,0,1,,2,S,0,S,19,0.033752,0.765543,0.025839
4,56,9,5,0,0,1,,4,S,0,S,15,0.783026,0.012742,0.009977
4,57,1,2,0,0,1,,1,S,0,S,18,0.032098,0.769081,0.024686
4,58,5,6,0,0,1,,1,S,0,S,20,0.024554,0.783217,0.019231
4,59,8,4,0,0,1,,4,S,0,S,15,0.760819,0.029716,0.022609
4,60,6,5,0,0,1,,1,S,0,S,23,0.793501,0.012645,0.010034
4,61,1,7,0,0,1,,6,S,0,S,13,0.028774,0.752316,0.021647
4,62,7,2,0,0,1,,5,S,0,S,14,0.767309,0.021969,0.016857
4,63,3,8,0,0,1,,5,S,0,S,23,0.048686,0.752954,0.036658
4,64,7,4,0,0,1,,3,S,0,S,22,0.771239,0.031021,0.023925
4,65,3,2,0,0,1,,1,S,0,S,14,0.7515,0.035241,0.026484
4,66,6,4,0,0,0,,2,S,0,S,20,0.024654,0.776539,0.019145
4,67,5,9,0,0,0,,4,S,0,S,24,0.772542,0.036313,0.028053
4,68,2,7,0,0,1,,5,S,0,S,15,0.022565,0.771469,0.017408
4,69,9,3,0,0,1,,6,S,0,S,14,0.777734,0.012736,0.009905
4,70,2,6,0,0,1,,4,S,0,S,15,0.009877,0.787587,0.007779
4,71,4,9,0,0,1,,5,S,0,S,18,0.011255,0.794477,0.008942
4,72,6,2,0,0,1,,4,S,0,S,15,0.769014,0.023708,0.018232
5,1,4,3,0,0,0,,1,S,0,S,25,0.038894,0.764667,0.029741
5,2,3,2,0,0,1,,1,S,0,S,17,0.767676,0.03143,0.024128
5,3,9,5,0,0,1,,4,S,0,S,19,0.779959,0.028845,0.022498
5,4,1,9,0,0,1,,8,L,0,S,15,0.033521,0.755539,0.025326
5,5,2,1,0,0,0,,1,S,0,S,27,0.041907,0.760707,0.031879
5,6,9,1,0,0,1,,8,L,0,S,16,0.775829,0.02557,0.019838
5,7,5,4,0,0,0,,1,S,0,S,21,0.011826,0.79604,0.009414
5,8,3,5,0,0,1,,2,S,0,S,22,0.038728,0.767166,0.029711
5,9,2,3,0,0,1,,1,S,0,S,17,0.036204,0.759537,0.027499
5,10,2,5,0,0,1,,3,S,0,S,18,0.010221,0.796137,0.008137
5,11,5,2,0,0,1,,3,S,0,S,17,0.776229,0.025007,0.019411
5,12,3,9,0,0,1,,6,S,0,S,19,0.029059,0.772901,0.02246
5,13,1,3,0,0,1,,2,S,0,S,16,0.015695,0.78381,0.012302
5,14,6,1,0,0,1,,5,S,0,S,17,0.756251,0.039718,0.030036
5,15,1,7,0,0,1,,6,S,0,S,15,0.037737,0.752474,0.028396
5,16,5,8,0,0,1,,3,S,0,S,21,0.019409,0.787056,0.015276
5,17,7,2,0,0,1,,5,S,0,S,14,0.752979,0.034555,0.026019
5,18,6,2,0,0,1,,4,S,0,S,16,0.759382,0.034613,0.026285
5,19,2,9,0,0,1,,7,L,0,S,17,0.007814,0.793855,0.006203
5,20,1,8,0,0,1,,7,L,0,S,16,0.010342,0.788635,0.008156
5,21,2,8,0,0,1,,6,S,0,S,17,0.027023,0.769126,0.020784
5,22,1,5,0,0,1,,4,S,0,S,16,0.021652,0.777875,0.016842
5,23,8,5,0,0,1,,3,S,0,S,20,0.768796,0.038422,0.029539
5,24,6,8,0,0,1,,2,S,0,S,26,0.034782,0.767946,0.026711
5,25,7,4,0,0,1,,3,S,0,S,17,0.756845,0.039256,0.029711
5,26,2,7,0,0,1,,5,S,0,S,17,0.014234,0.788134,0.011218
5,27,1,6,0,0,1,,5,S,0,S,15,0.010781,0.785285,0.008466
5,28,2,4,0,0,1,,2,S,0,S,17,0.024727,0.771621,0.01908
5,29,7,9,0,0,0,,2,S,0,S,18,0.779205,0.023931,0.018647
5,30,9,4,0,0,1,,5,S,0,S,21,0.785841,0.022368,0.017577
5,31,7,6,0,0,1,,1,S,0,S,20,0.776562,0.028618,0.022224
5,32,7,1,0,0,1,,6,S,0,S,15,0.778948,0.018752,0.014607
5,33,9,7,0,0,1,,2,S,0,S,21,0.760647,0.04529,0.03445
5,34,5,7,0,0,1,,2,S,0,S,20,0.022743,0.784941,0.017852
5,35,6,9,0,0,1,,3,S,0,S,22,0.025854,0.778192,0.02012
5,36,2,6,0,0,1,,4,S,0,S,16,0.011632,0.786822,0.009152
5,37,1,2,0,0,1,,1,S,0,S,22,0.033307,0.770523,0.025664
5,38,4,1,0,0,1,,3,S,0,S,18,0.784117,0.019236,0.015083
5,39,6,5,0,0,1,,1,S,0,S,25,0.791629,0.018823,0.014901
5,40,4,8,0,0,1,,4,S,0,S,23,0.028664,0.774567,0.022202
5,41,9,2,0,0,1,,7,L,0,S,15,0.762003,0.032987,0.025136
5,42,6,4,0,0,0,,2,S,0,S,25,0.037175,0.764285,0.028412
5,43,8,6,0,0,0,,2,S,0,S,20,0.048489,0.753046,0.036515
5,44,4,7,0,0,1,,3,S,0,S,21,0.04676,0.753717,0.035244
5,45,3,7,0,0,1,,4,S,0,S,19,0.046607,0.753335,0.035111
5,46,4,2,0,0,1,,2,S,0,S,17,0.793927,0.009469,0.007518
5,47,8,2,0,0,1,,6,S,0,S,16,0.796133,0.00881,0.007014
5,48,4,5,0,0,1,,1,S,0,S,36,0.032109,0.775768,0.024909
5,49,7,3,0,0,1,,4,S,0,S,17,0.780936,0.022225,0.017356
5,50,6,7,0,0,1,,1,S,0,S,23,0.038582,0.765395,0.02953
5,51,6,3,0,0,1,,3,S,0,S,31,0.762096,0.041665,0.031753
5,52,7,5,0,0,1,,2,S,0,S,17,0.797237,0.010561,0.00842
5,53,5,1,0,0,1,,4,S,0,S,18,0.755025,0.043868,0.033122
5,54,8,1,0,0,1,,7,L,0,S,16,0.754762,0.041786,0.031539
5,55,1,4,0,0,1,,3,S,0,S,16,0.008949,0.790004,0.00707
5,56,8,9,0,0,0,,1,S,0,S,32,0.76218,0.043736,0.033335
5,57,3,1,0,0,1,,2,S,0,S,19,0.789483,0.017409,0.013744
5,58,8,4,0,0,1,,4,S,0,S,23,0.767112,0.037949,0.029111
5,59,4,9,0,0,1,,5,S,0,S,21,0.016161,0.789458,0.012759
5,60,8,3,0,0,1,,5,S,0,S,21,0.767073,0.039136,0.03002
5,61,4,6,0,0,1,,2,S,0,S,18,0.036365,0.760959,0.027672
5,62,9,3,0,0,1,,6,S,0,S,20,0.793814,0.017292,0.013726
5,63,9,6,0,0,0,,3,S,0,S,23,0.016368,0.795697,0.013024
5,64,5,3,0,0,0,,2,S,0,S,22,0.018752,0.790669,0.014827
5,65,5,6,0,0,1,,1,S,0,S,18,0.009518,0.79675,0.007584
5,66,3,8,0,0,1,,5,S,0,S,20,0.0396,0.760439,0.030113
5,67,9,8,0,0,1,,1,S,0,S,20,0.751159,0.049688,0.037323
5,68,7,8,0,0,0,,1,S,0,S,17,0.761808,0.035697,0.027194
5,69,3,6,0,0,1,,3,S,0,S,17,0.039572,0.756279,0.029927
5,70,5,9,0,0,1,,4,S,0,S,19,0.039856,0.75973,0.03028
5,71,3,4,0,0,1,,1,S,0,S,20,0.032847,0.768491,0.025243
5,72,8,7,0,0,1,,1,S,0,S,25,0.790484,0.022416,0.01772
6,1,9,1,0,0,1,,8,L,0,S,15,0.752273,0.037776,0.028418
6,2,3,7,0,0,1,,4,S,0,S,16,0.005964,0.793693,0.004733
6,3,4,1,0,0,1,,3,S,0,S,17,0.787898,0.012959,0.010211
6,4,8,7,0,0,0,,1,S,0,S,16,0.037852,0.757179,0.028661
6,5,7,6,0,0,1,,1,S,0,S,21,0.766898,0.037735,0.028939
6,6,1,6,0,0,1,,5,S,0,S,23,0.039635,0.764208,0.030289
6,7,6,4,0,0,1,,2,S,0,S,17,0.788164,0.013666,0.010771
6,8,5,6,0,0,1,,1,S,0,S,32,0.0321,0.771547,0.024767
6,9,8,4,0,0,1,,4,S,0,S,20,0.75571,0.045399,0.034309
6,10,5,3,0,0,1,,2,S,0,S,25,0.776862,0.027197,0.021128
6,11,8,6,0,0,1,,2,S,0,S,21,0.788625,0.019812,0.015624
6,12,1,3,0,0,1,,2,S,0,S,28,0.031913,0.77486,0.024728
6,13,1,7,0,0,1,,6,S,0,S,15,0.03407,0.757296,0.025801
6,14,3,8,0,0,1,,5,S,0,S,14,0.027208,0.758247,0.02063
6,15,9,7,0,0,0,,2,S,0,S,17,0.017412,0.785157,0.013671
6,16,1,2,0,0,1,,1,S,0,S,28,0.022165,0.787693,0.017459
6,17,7,4,0,0,1,,3,S,0,S,21,0.782823,0.024977,0.019553
6,18,6,3,0,0,1,,3,S,0,S,16,0.750763,0.040717,0.030569
6,19,1,8,0,0,1,,7,L,0,S,14,0.021721,0.768582,0.016694
6,20,1,4,0,0,1,,3,S,0,S,24,0.029632,0.777068,0.023026
6,21,3,2,0,0,1,,1,S,0,S,29,0.753843,0.046384,0.034966
6,22,6,7,0,0,1,,1,S,0,S,20,0.020009,0.784893,0.015705
6,23,2,7,0,0,1,,5,S,0,S,14,0.024313,0.761908,0.018524
6,24,4,3,0,0,1,,1,S,0,S,26,0.771873,0.031693,0.024463
6,25,4,8,0,0,1,,4,S,0,S,14,0.028927,0.756645,0.021887
6,26,8,1,0,0,1,,7,L,0,S,16,0.790333,0.011637,0.009197
6,27,8,5,0,0,0,,3,S,0,S,19,0.029392,0.774862,0.022775
6,28,2,3,0,0,1,,1,S,0,S,18,0.010717,0.792397,0.008493
6,29,5,4,0,0,1,,1,S,0,S,32,0.793273,0.01459,0.011574
6,30,4,9,0,0,1,,5,S,0,S,20,0.020714,0.782441,0.016208
6,31,1,5,0,0,1,,4,S,0,S,17,0.023596,0.777596,0.018348
6,32,8,3,0,0,1,,5,S,0,S,20,0.790311,0.017665,0.013961
6,33,5,2,0,0,1,,3,S,0,S,25,0.775675,0.028758,0.022307
6,34,8,2,0,0,1,,6,S,0,S,20,0.791369,0.017388,0.01376
6,35,9,8,0,0,0,,1,S,0,S,15,0.01922,0.776802,0.01493
6,36,3,9,0,0,1,,6,S,0,S,20,0.01021,0.794853,0.008115
6,37,3,5,0,0,1,,2,S,0,S,17,0.036144,0.758176,0.027404
6,38,4,7,0,0,1,,3,S,0,S,16,0.008663,0.790914,0.006851
6,39,2,9,0,0,1,,7,L,0,S,16,0.024555,0.769779,0.018902
6,40,5,9,0,0,1,,4,S,0,S,20,0.029581,0.770906,0.022804
6,41,7,2,0,0,1,,5,S,0,S,20,0.776161,0.030084,0.02335
6,42,9,3,0,0,1,,6,S,0,S,19,0.784699,0.020536,0.016115
6,43,7,9,0,0,1,,2,S,0,S,24,0.025926,0.782671,0.020291
6,44,5,1,0,0,1,,4,S,0,S,17,0.79088,0.010301,0.008147
6,45,4,5,0,0,1,,1,S,0,S,17,0.041337,0.752251,0.031096
6,46,4,2,0,0,1,,2,S,0,S,26,0.769267,0.034392,0.026457
6,47,6,9,0,0,0,,3,S,0,S,18,0.756937,0.039591,0.029968
6,48,2,8,0,0,1,,6,S,0,S,13,0.026072,0.753326,0.01964
6,49,9,4,0,0,1,,5,S,0,S,19,0.759263,0.040871,0.031032
6,50,9,2,0,0,1,,7,L,0,S,19,0.785857,0.020179,0.015857
6,51,2,1,0,0,1,,1,S,0,S,23,0.786215,0.019167,0.015069
6,52,6,5,0,0,1,,1,S,0,S,22,0.774422,0.02978,0.023062
6,53,5,8,0,0,1,,3,S,0,S,14,0.030604,0.754089,0.023078
6,54,7,8,0,0,1,,1,S,0,S,15,0.007091,0.793652,0.005628
6,55,7,5,0,0,0,,2,S,0,S,19,0.018565,0.789003,0.014648
6,56,3,1,0,0,1,,2,S,0,S,17,0.780246,0.018462,0.014405
6,57,7,3,0,0,1,,4,S,0,S,20,0.775182,0.030286,0.023477
6,58,4,6,0,0,1,,2,S,0,S,28,0.031218,0.772849,0.024126
6,59,3,4,0,0,1,,1,S,0,S,27,0.032764,0.770057,0.02523
6,60,5,7,0,0,1,,2,S,0,S,16,0.011217,0.787293,0.008831
6,61,3,6,0,0,1,,3,S,0,S,26,0.015076,0.791902,0.011938
6,62,9,6,0,0,1,,3,S,0,S,20,0.796296,0.012241,0.009747
6,63,7,1,0,0,1,,6,S,0,S,16,0.786868,0.014816,0.011658
6,64,2,4,0,0,1,,2,S,0,S,17,0.034638,0.760178,0.026331
6,65,2,6,0,0,1,,4,S,0,S,17,0.030834,0.765025,0.023589
6,66,2,5,0,0,1,,3,S,0,S,15,0.025768,0.765213,0.019718
6,67,6,2,0,0,1,,4,S,0,S,16,0.751946,0.040346,0.030338
6,68,8,9,0,0,1,,1,S,0,S,25,0.045119,0.758398,0.034218
6,69,9,5,0,0,0,,4,S,0,S,20,0.0324,0.771407,0.024994
6,70,6,8,0,0,1,,2,S,0,S,16,0.032694,0.761669,0.024902
6,71,1,9,0,0,1,,8,L,0,S,19,0.02459,0.779284,0.019163
6,72,6,1,0,0,1,,5,S,0,S,15,0.798954,0.000209,0.000167
7,1,9,8,0,0,1,,1,S,0,S,24,0.780875,0.023784,0.018572
7,2,7,1,0,0,1,,6,S,0,S,13,0.776357,0.009728,0.007553
7,3,6,8,0,0,1,,2,S,0,S,19,0.022136,0.782171,0.017314
7,4,1,9,0,0,1,,8,L,0,S,15,0.024047,0.768584,0.018482
7,5,8,3,0,0,1,,5,S,0,S,13,0.761146,0.021939,0.016699
7,6,6,2,0,0,1,,4,S,0,S,18,0.771616,0.029399,0.022685
7,7,7,4,0,0,1,,3,S,0,S,14,0.779512,0.012107,0.009437
7,8,9,4,0,0,1,,5,S,0,S,15,0.750309,0.03768,0.028271
7,9,5,9,0,0,1,,4,S,0,S,17,0.031828,0.769806,0.024501
7,10,2,6,0,0,1,,4,S,0,S,15,0.010635,0.788509,0.008386
7,11,4,7,0,0,1,,3,S,0,S,19,0.047075,0.750873,0.035347
7,12,7,8,0,0,0,,1,S,0,S,16,0.754592,0.037538,0.028326
7,13,3,2,0,0,1,,1,S,0,S,20,0.768046,0.0318,0.024424
7,14,9,1,0,0,1,,8,L,0,S,14,0.776455,0.013833,0.01074
7,15,3,9,0,0,1,,6,S,0,S,18,0.040063,0.757833,0.030361
7,16,9,3,0,0,1,,6,S,0,S,15,0.794713,0.003898,0.003098
7,17,4,8,0,0,1,,4,S,0,S,19,0.035117,0.765623,0.026886
7,18,1,2,0,0,1,,1,S,0,S,18,0.026871,0.770677,0.020709
7,19,5,3,0,0,1,,2,S,0,S,17,0.762076,0.036982,0.028183
7,20,4,1,0,0,1,,3,S,0,S,15,0.789351,0.009246,0.007299
7,21,7,5,0,0,1,,2,S,0,S,14,0.76742,0.022199,0.017036
7,22,4,6,0,0,1,,2,S,0,S,19,0.013915,0.795144,0.011065
7,23,6,9,0,0,1,,3,S,0,S,20,0.041717,0.761982,0.031788
7,24,2,9,0,0,1,,7,L,0,S,15,0.029585,0.764347,0.022614
7,25,8,1,0,0,1,,7,L,0,S,13,0.782536,0.005247,0.004106
7,26,3,7,0,0,1,,4,S,0,S,18,0.014799,0.787008,0.011647
7,27,1,5,0,0,1,,4,S,0,S,18,0.021555,0.779321,0.016798
7,28,6,7,0,0,1,,1,S,0,S,19,0.032726,0.769229,0.025174
7,29,4,5,0,0,0,,1,S,0,S,18,0.783272,0.021465,0.016813
7,30,1,8,0,0,1,,7,L,0,S,15,0.012767,0.780261,0.009962
7,31,9,5,0,0,1,,4,S,0,S,16,0.778512,0.019542,0.015214
7,32,5,2,0,0,1,,3,S,0,S,23,0.761536,0.041764,0.031805
7,33,5,7,0,0,1,,2,S,0,S,17,0.013681,0.790043,0.010809
7,34,5,8,0,0,1,,3,S,0,S,17,0.008751,0.795912,0.006965
7,35,3,6,0,0,1,,3,S,0,S,17,0.030656,0.767473,0.023528
7,36,6,4,0,0,1,,2,S,0,S,17,0.766855,0.032062,0.024587
7,37,5,6,0,0,1,,1,S,0,S,16,0.034414,0.763444,0.026273
7,38,8,5,0,0,1,,3,S,0,S,14,0.776699,0.015274,0.011864
7,39,2,8,0,0,1,,6,S,0,S,15,0.017397,0.777135,0.01352
7,40,4,9,0,0,1,,5,S,0,S,21,0.026543,0.78163,0.020747
7,41,7,6,0,0,1,,1,S,0,S,16,0.750492,0.04302,0.032286
7,42,3,5,0,0,0,,2,S,0,S,20,0.765982,0.035022,0.026826
7,43,4,2,0,0,1,,2,S,0,S,18,0.782572,0.020519,0.016057
7,44,8,4,0,0,1,,4,S,0,S,14,0.787965,0.005813,0.004581
7,45,6,5,0,0,1,,1,S,0,S,18,0.772043,0.030581,0.02361
7,46,3,8,0,0,1,,5,S,0,S,18,0.008274,0.79487,0.006576
7,47,2,7,0,0,1,,5,S,0,S,15,0.020177,0.773883,0.015615
7,48,2,5,0,0,1,,3,S,0,S,18,0.037641,0.762098,0.028686
7,49,9,6,0,0,1,,3,S,0,S,26,0.754196,0.048052,0.036241
7,50,9,2,0,0,1,,7,L,0,S,16,0.77669,0.019539,0.015176
7,51,5,4,0,0,1,,1,S,0,S,20,0.765255,0.03774,0.028881
7,52,8,6,0,0,1,,2,S,0,S,16,0.770032,0.027966,0.021535
7,53,2,3,0,0,0,,1,S,0,S,25,0.768522,0.036859,0.028327
7,54,2,1,0,0,1,,1,S,0,S,18,0.75014,0.046318,0.034745
7,55,4,3,0,0,1,,1,S,0,S,16,0.793645,0.009247,0.007339
7,56,6,1,0,0,1,,5,S,0,S,15,0.785627,0.01232,0.009679
7,57,6,3,0,0,1,,3,S,0,S,16,0.788454,0.013517,0.010658
7,58,7,9,0,0,0,,2,S,0,S,16,0.78651,0.014854,0.011683
7,59,2,4,0,0,1,,2,S,0,S,20,0.021316,0.784237,0.016717
7,60,5,1,0,0,1,,4,S,0,S,16,0.785182,0.015934,0.012511
7,61,8,7,0,0,1,,1,S,0,S,16,0.779124,0.018869,0.014701
7,62,1,6,0,0,1,,5,S,0,S,15,0.006234,0.791367,0.004933
7,63,9,7,0,0,1,,2,S,0,S,23,0.783874,0.021392,0.016769
7,64,8,2,0,0,1,,6,S,0,S,14,0.774667,0.015531,0.012031
7,65,7,2,0,0,1,,5,S,0,S,14,0.765401,0.022422,0.017162
7,66,3,1,0,0,1,,2,S,0,S,15,0.753377,0.035024,0.026386
7,67,3,4,0,0,0,,1,S,0,S,19,0.791113,0.013146,0.0104
7,68,1,7,0,0,1,,6,S,0,S,15,0.015368,0.777228,0.011944
7,69,8,9,0,0,0,,1,S,0,S,15,0.751643,0.039356,0.029581
7,70,7,3,0,0,1,,4,S,0,S,13,0.753893,0.027221,0.020522
7,71,1,4,0,0,1,,3,S,0,S,19,0.032278,0.766157,0.02473
7,72,1,3,0,0,1,,2,S,0,S,30,0.027992,0.776896,0.021747
8,1,9,8,0,0,0,,1,S,0,S,20,0.016468,0.793968,0.013075
8,2,1,6,0,0,1,,5,S,0,S,19,0.020612,0.783536,0.01615
8,3,3,4,0,0,1,,1,S,0,S,32,0.01925,0.789788,0.015203
8,4,2,9,0,0,1,,7,L,0,S,17,0.015776,0.788474,0.012439
8,5,4,8,0,0,1,,4,S,0,S,17,0.012574,0.794742,0.009993
8,6,5,4,0,0,1,,1,S,0,S,21,0.76196,0.038952,0.02968
8,7,3,1,0,0,1,,2,S,0,S,18,0.763612,0.035358,0.027
8,8,4,9,0,0,1,,5,S,0,S,24,0.017211,0.795539,0.013692
8,9,2,6,0,0,1,,4,S,0,S,17,0.029859,0.77033,0.023001
8,10,9,1,0,0,1,,8,L,0,S,15,0.763134,0.030561,0.023322
8,11,6,2,0,0,1,,4,S,0,S,23,0.77337,0.032072,0.024804
8,12,4,7,0,0,1,,3,S,0,S,20,0.032044,0.776507,0.024882
8,13,2,5,0,0,1,,3,S,0,S,16,0.027426,0.771049,0.021147
8,14,3,2,0,0,1,,1,S,0,S,24,0.751694,0.048515,0.036468
8,15,3,7,0,0,1,,4,S,0,S,18,0.021969,0.783057,0.017203
8,16,6,3,0,0,0,,3,S,0,S,21,0.037418,0.765445,0.028642
8,17,2,7,0,0,1,,5,S,0,S,16,0.02586,0.774603,0.020031
8,18,5,3,0,0,0,,2,S,0,S,28,0.044616,0.756475,0.033751
8,19,1,3,0,0,1,,2,S,0,S,19,0.03638,0.762568,0.027742
8,20,5,1,0,0,1,,4,S,0,S,17,0.77046,0.02767,0.021318
8,21,5,7,0,0,1,,2,S,0,S,20,0.013353,0.795767,0.010626
8,22,1,5,0,0,1,,4,S,0,S,17,0.034121,0.763326,0.026046
8,23,7,1,0,0,1,,6,S,0,S,15,0.770797,0.021736,0.016754
8,24,8,3,0,0,1,,5,S,0,S,15,0.790735,0.007317,0.005786
8,25,2,4,0,0,1,,2,S,0,S,19,0.021974,0.783519,0.017217
8,26,8,1,0,0,1,,7,L,0,S,14,0.801258,0,0
8,27,9,7,0,0,1,,2,S,0,S,21,0.770921,0.036643,0.028249
8,28,4,5,0,0,1,,1,S,0,S,20,0.035049,0.771088,0.027026
8,29,3,5,0,0,1,,2,S,0,S,18,0.024149,0.7787,0.018805
8,30,5,2,0,0,1,,3,S,0,S,20,0.772088,0.029701,0.022932
8,31,7,9,0,0,0,,2,S,0,S,18,0.759723,0.037836,0.028745
8,32,7,6,0,0,1,,1,S,0,S,18,0.782833,0.019249,0.015068
8,33,7,5,0,0,1,,2,S,0,S,20,0.786725,0.018687,0.014701
8,34,3,8,0,0,1,,5,S,0,S,16,0.014927,0.785991,0.011733
8,35,8,9,0,0,0,,1,S,0,S,15,0.780128,0.016649,0.012989
8,36,7,4,0,0,1,,3,S,0,S,17,0.795866,0.006967,0.005545
8,37,6,4,0,0,1,,2,S,0,S,28,0.777027,0.030538,0.023729
8,38,8,7,0,0,1,,1,S,0,S,15,0.762929,0.031357,0.023923
8,39,6,8,0,0,1,,2,S,0,S,16,0.018389,0.782882,0.014396
8,40,9,4,0,0,1,,5,S,0,S,17,0.780047,0.022511,0.01756
8,41,3,6,0,0,1,,3,S,0,S,20,0.030645,0.772771,0.023682
8,42,3,9,0,0,1,,6,S,0,S,19,0.035478,0.765882,0.027172
8,43,4,6,0,0,1,,2,S,0,S,30,0.03297,0.776601,0.025605
8,44,7,2,0,0,1,,5,S,0,S,16,0.762044,0.030971,0.023601
8,45,1,2,0,0,1,,1,S,0,S,26,0.036046,0.767143,0.027652
8,46,4,3,0,0,1,,1,S,0,S,28,0.791508,0.019844,0.015707
8,47,6,9,0,0,1,,3,S,0,S,19,0.04778,0.751767,0.035919
8,48,4,2,0,0,1,,2,S,0,S,19,0.763954,0.03845,0.029374
8,49,9,6,0,0,1,,3,S,0,S,18,0.753717,0.045448,0.034255
8,50,8,5,0,0,1,,3,S,0,S,15,0.760064,0.032383,0.024613
8,51,8,6,0,0,1,,2,S,0,S,15,0.788098,0.010157,0.008005
8,52,5,6,0,0,1,,1,S,0,S,25,0.0253,0.781304,0.019767
8,53,4,1,0,0,1,,3,S,0,S,17,0.791231,0.014265,0.011287
8,54,2,8,0,0,1,,6,S,0,S,15,0.011214,0.788431,0.008841
8,55,6,7,0,0,1,,1,S,0,S,18,0.029691,0.774713,0.023002
8,56,2,1,0,0,1,,1,S,0,S,24,0.793452,0.016855,0.013373
8,57,7,8,0,0,1,,1,S,0,S,22,0.014224,0.794275,0.011298
8,58,2,3,0,0,1,,1,S,0,S,17,0.039473,0.757024,0.029882
8,59,1,4,0,0,1,,3,S,0,S,23,0.013114,0.795458,0.010432
8,60,8,2,0,0,1,,6,S,0,S,14,0.769171,0.020282,0.0156
8,61,6,1,0,0,1,,5,S,0,S,18,0.778792,0.024412,0.019012
8,62,8,4,0,0,1,,4,S,0,S,14,0.76229,0.025975,0.019801
8,63,7,3,0,0,1,,4,S,0,S,18,0.791979,0.011111,0.008799
8,64,9,3,0,0,1,,6,S,0,S,18,0.766303,0.034605,0.026518
8,65,1,8,0,0,1,,7,L,0,S,15,0.037363,0.752865,0.028129
8,66,9,5,0,0,1,,4,S,0,S,21,0.767231,0.03824,0.029339
8,67,5,9,0,0,1,,4,S,0,S,22,0.038291,0.764354,0.029268
8,68,1,9,0,0,1,,8,L,0,S,18,0.034459,0.764907,0.026358
8,69,6,5,0,0,0,,1,S,0,S,18,0.031906,0.770294,0.024577
8,70,1,7,0,0,1,,6,S,0,S,17,0.0322,0.767389,0.02471
8,71,9,2,0,0,1,,7,L,0,S,17,0.79695,0.008636,0.006883
8,72,5,8,0,0,1,,3,S,0,S,17,0.00762,0.797211,0.006074
9,1,7,1,0,0,1,,6,S,0,S,19,0.762328,0.038469,0.029326
9,2,3,2,0,0,1,,1,S,0,S,29,0.77534,0.034993,0.027131
9,3,6,3,0,0,1,,3,S,0,S,15,0.785504,0.009647,0.007577
9,4,2,5,0,0,1,,3,S,0,S,17,0.035664,0.757674,0.027022
9,5,7,8,0,0,1,,1,S,0,S,14,0.027313,0.758718,0.020723
9,6,2,3,0,0,0,,1,S,0,S,17,0.77044,0.026494,0.020412
9,7,8,6,0,0,0,,2,S,0,S,22,0.045806,0.757399,0.034694
9,8,8,7,0,0,0,,1,S,0,S,22,0.051344,0.750101,0.038513
9,9,4,8,0,0,1,,4,S,0,S,14,0.031307,0.751744,0.023535
9,10,5,2,0,0,1,,3,S,0,S,18,0.76458,0.035495,0.027138
9,11,3,9,0,0,1,,6,S,0,S,15,0.007247,0.794193,0.005756
9,12,5,1,0,0,1,,4,S,0,S,18,0.772306,0.02797,0.021602
9,13,8,4,0,0,1,,4,S,0,S,17,0.752197,0.043823,0.032964
9,14,8,2,0,0,1,,6,S,0,S,17,0.758348,0.041412,0.031405
9,15,7,9,0,0,1,,2,S,0,S,15,0.035996,0.75544,0.027193
9,16,4,3,0,0,1,,1,S,0,S,17,0.794667,0.007687,0.006108
9,17,1,3,0,0,0,,2,S,0,S,19,0.794693,0.011828,0.0094
9,18,1,7,0,0,1,,6,S,0,S,17,0.015372,0.786911,0.012096
9,19,2,8,0,0,1,,6,S,0,S,14,0.023554,0.761532,0.017937
9,20,4,6,0,0,1,,2,S,0,S,19,0.031127,0.769154,0.023941
9,21,9,1,0,0,1,,8,L,0,S,14,0.80317,0,0
9,22,7,4,0,0,1,,3,S,0,S,20,0.789038,0.017048,0.013452
9,23,9,5,0,0,1,,4,S,0,S,15,0.765653,0.026771,0.020497
9,24,3,5,0,0,1,,2,S,0,S,16,0.032614,0.763045,0.024886
9,25,8,1,0,0,1,,7,L,0,S,17,0.764146,0.03545,0.027089
9,26,8,9,0,0,1,,1,S,0,S,16,0.032457,0.765671,0.024852
9,27,7,6,0,0,0,,1,S,0,S,19,0.016288,0.789684,0.012863
9,28,1,6,0,0,1,,5,S,0,S,17,0.014233,0.788652,0.011225
9,29,1,4,0,0,1,,3,S,0,S,28,0.017601,0.79128,0.013927
9,30,1,2,0,0,1,,1,S,0,S,27,0.033687,0.774485,0.02609
9,31,6,8,0,0,1,,2,S,0,S,16,0.019614,0.775009,0.015201
9,32,6,2,0,0,1,,4,S,0,S,16,0.780409,0.018453,0.014401
9,33,7,5,0,0,0,,2,S,0,S,18,0.012,0.791994,0.009504
9,34,9,8,0,0,1,,1,S,0,S,22,0.759673,0.041696,0.031675
9,35,9,2,0,0,1,,7,L,0,S,14,0.803275,0,0
9,36,3,4,0,0,0,,1,S,0,S,29,0.786561,0.023306,0.018331
9,37,9,7,0,0,1,,2,S,0,S,15,0.788183,0.010132,0.007986
9,38,4,5,0,0,1,,1,S,0,S,18,0.022768,0.77656,0.017681
9,39,2,9,0,0,1,,7,L,0,S,15,0.029996,0.760991,0.022826
9,40,5,9,0,0,1,,4,S,0,S,16,0.019983,0.778226,0.015551
9,41,5,7,0,0,1,,2,S,0,S,21,0.012954,0.793824,0.010284
9,42,2,6,0,0,1,,4,S,0,S,18,0.034789,0.762518,0.026527
9,43,9,4,0,0,1,,5,S,0,S,14,0.798762,0,0
9,44,6,5,0,0,1,,1,S,0,S,24,0.770853,0.030772,0.023721
9,45,5,4,0,0,1,,1,S,0,S,18,0.75796,0.038245,0.028988
9,46,2,1,0,0,1,,1,S,0,S,20,0.764733,0.035632,0.027249
9,47,9,3,0,0,1,,6,S,0,S,13,0.775761,0.010833,0.008404
9,48,4,1,0,0,1,,3,S,0,S,19,0.774322,0.027411,0.021225
9,49,1,8,0,0,1,,7,L,0,S,14,0.005355,0.787288,0.004216
9,50,5,6,0,0,1,,1,S,0,S,20,0.046052,0.751774,0.034621
9,51,4,7,0,0,1,,3,S,0,S,19,0.033275,0.766117,0.025492
9,52,4,2,0,0,1,,2,S,0,S,19,0.76275,0.038035,0.029011
9,53,6,9,0,0,1,,3,S,0,S,18,0.040568,0.756211,0.030678
9,54,7,2,0,0,1,,5,S,0,S,20,0.795886,0.014018,0.011157
9,55,1,5,0,0,1,,4,S,0,S,16,0.027199,0.767894,0.020886
9,56,4,9,0,0,1,,5,S,0,S,16,0.005496,0.796397,0.004377
9,57,5,8,0,0,1,,3,S,0,S,15,0.004884,0.791157,0.003864
9,58,8,5,0,0,0,,3,S,0,S,20,0.018875,0.787859,0.014871
9,59,1,9,0,0,1,,8,L,0,S,15,0.004366,0.795959,0.003475
9,60,2,7,0,0,1,,5,S,0,S,18,0.036488,0.760037,0.027732
9,61,3,6,0,0,1,,3,S,0,S,17,0.02106,0.782105,0.016471
9,62,6,1,0,0,1,,5,S,0,S,16,0.782627,0.015397,0.01205
9,63,3,8,0,0,1,,5,S,0,S,14,0.007253,0.786682,0.005706
9,64,7,3,0,0,1,,4,S,0,S,17,0.791219,0.011852,0.009378
9,65,8,3,0,0,1,,5,S,0,S,16,0.79413,0.008782,0.006974
9,66,5,3,0,0,1,,2,S,0,S,16,0.769233,0.025766,0.01982
9,67,3,1,0,0,1,,2,S,0,S,25,0.759773,0.045507,0.034575
9,68,6,4,0,0,1,,2,S,0,S,16,0.774614,0.020696,0.016031
9,69,6,7,0,0,0,,1,S,0,S,20,0.759212,0.039212,0.02977
9,70,9,6,0,0,1,,3,S,0,S,15,0.788199,0.010344,0.008153
9,71,2,4,0,0,0,,2,S,0,S,21,0.785526,0.018652,0.014652
9,72,3,7,0,0,1,,4,S,0,S,17,0.022265,0.780279,0.017373
10,1,8,7,0,0,0,,1,S,0,S,30,0.055017,0.750602,0.041296
10,2,8,1,0,0,1,,7,L,0,S,18,0.795335,0.011916,0.009477
10,3,4,1,0,0,1,,3,S,0,S,16,0.776783,0.022289,0.017313
10,4,5,4,0,0,0,,1,S,0,S,37,0.032088,0.775714,0.024891
10,5,8,9,0,0,1,,1,S,0,S,17,0.014572,0.789726,0.011508
10,6,5,2,0,0,1,,3,S,0,S,22,0.762529,0.040297,0.030728
10,7,3,2,0,0,0,,1,S,0,S,26,0.027977,0.781166,0.021854
10,8,2,9,0,0,1,,7,L,0,S,15,0.019914,0.776621,0.015466
10,9,2,5,0,0,1,,3,S,0,S,21,0.021116,0.78847,0.016649
10,10,4,2,0,0,1,,2,S,0,S,17,0.786098,0.018042,0.014183
10,11,4,5,0,0,0,,1,S,0,S,17,0.783716,0.019645,0.015396
10,12,3,1,0,0,1,,2,S,0,S,21,0.750113,0.05014,0.03761
10,13,9,3,0,0,1,,6,S,0,S,17,0.798175,0.005127,0.004092
10,14,9,4,0,0,1,,5,S,0,S,17,0.795947,0.010313,0.008209
10,15,7,2,0,0,1,,5,S,0,S,16,0.778605,0.021714,0.016907
10,16,3,9,0,0,1,,6,S,0,S,15,0.036759,0.753857,0.027711
10,17,6,9,0,0,1,,3,S,0,S,19,0.014908,0.790083,0.011778
10,18,7,9,0,0,1,,2,S,0,S,22,0.037902,0.766247,0.029042
10,19,9,6,0,0,1,,3,S,0,S,17,0.750337,0.043927,0.03296
10,20,6,8,0,0,1,,2,S,0,S,20,0.027917,0.777127,0.021695
10,21,6,5,0,0,1,,1,S,0,S,17,0.765488,0.032351,0.024764
10,22,6,3,0,0,1,,3,S,0,S,18,0.786255,0.015028,0.011816
10,23,2,4,0,0,1,,2,S,0,S,19,0.030712,0.775694,0.023823
10,24,4,8,0,0,1,,4,S,0,S,21,0.017437,0.793279,0.013832
10,25,3,7,0,0,1,,4,S,0,S,19,0.01583,0.793685,0.012564
10,26,6,7,0,0,0,,1,S,0,S,20,0.794681,0.014467,0.011497
10,27,1,3,0,0,1,,2,S,0,S,19,0.019145,0.785588,0.01504
10,28,1,4,0,0,1,,3,S,0,S,18,0.032428,0.771854,0.025029
10,29,2,6,0,0,1,,4,S,0,S,18,0.022777,0.780913,0.017787
10,30,3,6,0,0,1,,3,S,0,S,19,0.033508,0.767824,0.025728
10,31,5,6,0,0,1,,1,S,0,S,22,0.022996,0.781835,0.017979
10,32,7,8,0,0,1,,1,S,0,S,48,0.033909,0.775521,0.026297
10,33,8,5,0,0,1,,3,S,0,S,19,0.762535,0.039996,0.030498
10,34,2,7,0,0,1,,5,S,0,S,17,0.046555,0.752392,0.035027
10,35,2,1,0,0,1,,1,S,0,S,30,0.787682,0.023045,0.018152
10,36,6,1,0,0,1,,5,S,0,S,16,0.762287,0.031988,0.024384
10,37,9,1,0,0,1,,8,L,0,S,15,0.753667,0.036757,0.027703
10,38,2,3,0,0,1,,1,S,0,S,20,0.02461,0.779938,0.019194
10,39,3,5,0,0,1,,2,S,0,S,25,0.047905,0.755719,0.036203
10,40,1,5,0,0,1,,4,S,0,S,19,0.040805,0.761695,0.031081
10,41,1,8,0,0,1,,7,L,0,S,15,0.021214,0.776895,0.016481
10,42,9,7,0,0,1,,2,S,0,S,18,0.796513,0.011968,0.009532
10,43,9,8,0,0,0,,1,S,0,S,28,0.016749,0.795593,0.013325
10,44,7,3,0,0,1,,4,S,0,S,16,0.756652,0.036172,0.027369
10,45,4,7,0,0,0,,3,S,0,S,19,0.780672,0.026532,0.020713
10,46,1,7,0,0,1,,6,S,0,S,17,0.023385,0.78162,0.018278
10,47,5,9,0,0,1,,4,S,0,S,16,0.024516,0.771685,0.018919
10,48,1,9,0,0,1,,8,L,0,S,15,0.009715,0.78964,0.007671
10,49,4,6,0,0,0,,2,S,0,S,19,0.787007,0.018481,0.014545
10,50,5,1,0,0,1,,4,S,0,S,19,0.768477,0.032369,0.024875
10,51,1,2,0,0,1,,1,S,0,S,19,0.043115,0.759174,0.032732
10,52,6,2,0,0,1,,4,S,0,S,17,0.768081,0.030602,0.023505
10,53,6,4,0,0,1,,2,S,0,S,18,0.779384,0.024051,0.018745
10,54,3,8,0,0,1,,5,S,0,S,16,0.015242,0.787213,0.011999
10,55,7,5,0,0,1,,2,S,0,S,16,0.776651,0.022971,0.017841
10,56,4,9,0,0,1,,5,S,0,S,19,0.030483,0.772775,0.023556
10,57,7,1,0,0,1,,6,S,0,S,15,0.759099,0.033084,0.025114
10,58,5,3,0,0,1,,2,S,0,S,26,0.794019,0.012993,0.010317
10,59,3,4,0,0,1,,1,S,0,S,21,0.034188,0.772314,0.026404
10,60,4,3,0,0,1,,1,S,0,S,17,0.758763,0.03681,0.02793
10,61,5,7,0,0,1,,2,S,0,S,21,0.026608,0.780536,0.020768
10,62,8,4,0,0,1,,4,S,0,S,21,0.776288,0.0318,0.024686
10,63,7,6,0,0,1,,1,S,0,S,17,0.759729,0.037137,0.028214
10,64,7,4,0,0,1,,3,S,0,S,16,0.754158,0.041604,0.031376
10,65,8,2,0,0,1,,6,S,0,S,19,0.766933,0.036804,0.028226
10,66,9,2,0,0,1,,7,L,0,S,16,0.772172,0.026227,0.020252
10,67,8,3,0,0,1,,5,S,0,S,20,0.760042,0.040286,0.030619
10,68,8,6,0,0,1,,2,S,0,S,28,0.779303,0.028635,0.022315
10,69,2,8,0,0,1,,6,S,0,S,15,0.032759,0.762151,0.024967
10,70,1,6,0,0,1,,5,S,0,S,17,0.034494,0.763936,0.026351
10,71,9,5,0,0,1,,4,S,0,S,16,0.770158,0.027525,0.021199
10,72,5,8,0,0,1,,3,S,0,S,17,0.006864,0.798815,0.005483
11,1,6,2,0,0,1,,4,S,0,S,18,0.764805,0.035315,0.027009
11,2,9,4,0,0,1,,5,S,0,S,15,0.787258,0.010537,0.008295
11,3,7,4,0,0,1,,3,S,0,S,20,0.784972,0.020335,0.015962
11,4,3,7,0,0,1,,4,S,0,S,17,0.00731,0.79759,0.005831
11,5,3,6,0,0,1,,3,S,0,S,16,0.027592,0.770385,0.021257
11,6,3,8,0,0,1,,5,S,0,S,14,0.005937,0.787185,0.004673
11,7,1,6,0,0,1,,5,S,0,S,15,0.016623,0.781168,0.012985
11,8,5,3,0,0,1,,2,S,0,S,16,0.751853,0.040383,0.030362
11,9,7,6,0,0,0,,1,S,0,S,18,0.046821,0.75166,0.035193
11,10,9,7,0,0,1,,2,S,0,S,17,0.798341,0.007872,0.006284
11,11,3,2,0,0,1,,1,S,0,S,21,0.781352,0.022979,0.017955
11,12,5,9,0,0,0,,4,S,0,S,19,0.772686,0.030384,0.023478
11,13,9,1,0,0,1,,8,L,0,S,14,0.756414,0.032346,0.024467
11,14,4,9,0,0,1,,5,S,0,S,20,0.016603,0.791212,0.013137
11,15,5,8,0,0,1,,3,S,0,S,15,0.03802,0.751405,0.028569
11,16,3,4,0,0,1,,1,S,0,S,22,0.019305,0.78719,0.015197
11,17,8,4,0,0,1,,4,S,0,S,17,0.757667,0.037536,0.02844
11,18,7,8,0,0,1,,1,S,0,S,15,0.001791,0.797693,0.001429
11,19,2,4,0,0,1,,2,S,0,S,18,0.026189,0.776062,0.020324
11,20,8,3,0,0,1,,5,S,0,S,17,0.78524,0.015606,0.012255
11,21,8,6,0,0,0,,2,S,0,S,24,0.017611,0.792806,0.013962
11,22,1,8,0,0,1,,7,L,0,S,13,0.019015,0.764094,0.01453
11,23,6,7,0,0,1,,1,S,0,S,18,0.013911,0.793788,0.011043
11,24,2,6,0,0,1,,4,S,0,S,15,0.024194,0.772462,0.018689
11,25,4,7,0,0,1,,3,S,0,S,17,0.042014,0.754645,0.031706
11,26,8,5,0,0,1,,3,S,0,S,18,0.792046,0.010806,0.008559
11,27,6,8,0,0,1,,2,S,0,S,14,0.020032,0.771133,0.015447
11,28,6,3,0,0,1,,3,S,0,S,21,0.770606,0.033957,0.026167
11,29,6,4,0,0,1,,2,S,0,S,24,0.754729,0.048147,0.036338
11,30,4,5,0,0,1,,1,S,0,S,32,0.019959,0.78751,0.015718
11,31,7,3,0,0,1,,4,S,0,S,19,0.791695,0.01382,0.010942
11,32,7,9,0,0,1,,2,S,0,S,27,0.051026,0.750842,0.038312
11,33,2,1,0,0,0,,1,S,0,S,19,0.033653,0.770874,0.025942
11,34,6,1,0,0,1,,5,S,0,S,20,0.758008,0.045618,0.034579
11,35,7,1,0,0,1,,6,S,0,S,18,0.764234,0.036692,0.028042
11,36,8,2,0,0,1,,6,S,0,S,16,0.784075,0.014157,0.0111
11,37,4,3,0,0,1,,1,S,0,S,22,0.769347,0.034186,0.026301
11,38,1,7,0,0,1,,6,S,0,S,15,0.02724,0.766352,0.020876
11,39,5,4,0,0,1,,1,S,0,S,17,0.775999,0.023922,0.018563
11,40,1,2,0,0,1,,1,S,0,S,21,0.03685,0.764612,0.028176
11,41,4,6,0,0,1,,2,S,0,S,17,0.021099,0.782404,0.016508
11,42,7,2,0,0,1,,5,S,0,S,17,0.773811,0.024928,0.01929
11,43,9,2,0,0,1,,7,L,0,S,14,0.772956,0.017404,0.013453
11,44,4,2,0,0,1,,2,S,0,S,19,0.79161,0.013979,0.011066
11,45,2,9,0,0,1,,7,L,0,S,16,0.035712,0.760044,0.027143
11,46,1,9,0,0,1,,8,L,0,S,16,0.024348,0.77351,0.018833
11,47,4,8,0,0,1,,4,S,0,S,14,0.017812,0.772612,0.013762
11,48,9,6,0,0,1,,3,S,0,S,17,0.779647,0.023722,0.018495
11,49,6,9,0,0,1,,3,S,0,S,20,0.035241,0.769547,0.02712
11,50,3,9,0,0,1,,6,S,0,S,18,0.027582,0.773762,0.021342
11,51,8,7,0,0,1,,1,S,0,S,32,0.75325,0.0491,0.036985
11,52,2,3,0,0,1,,1,S,0,S,19,0.025068,0.778764,0.019522
11,53,1,3,0,0,1,,2,S,0,S,18,0.036865,0.761212,0.028062
11,54,1,5,0,0,1,,4,S,0,S,17,0.037769,0.756618,0.028577
11,55,8,1,0,0,1,,7,L,0,S,17,0.798522,0.007223,0.005768
11,56,9,5,0,0,1,,4,S,0,S,15,0.780272,0.014882,0.011612
11,57,5,6,0,0,1,,1,S,0,S,28,0.026052,0.784199,0.02043
11,58,4,1,0,0,1,,3,S,0,S,21,0.765323,0.039235,0.030027
11,59,3,5,0,0,1,,2,S,0,S,21,0.032932,0.767911,0.025289
11,60,5,1,0,0,1,,4,S,0,S,16,0.764523,0.032657,0.024967
11,61,8,9,0,0,0,,1,S,0,S,20,0.784737,0.02086,0.01637
11,62,6,5,0,0,1,,1,S,0,S,27,0.773526,0.032308,0.024991
11,63,2,7,0,0,1,,5,S,0,S,15,0.035612,0.75659,0.026944
11,64,7,5,0,0,1,,2,S,0,S,20,0.759329,0.039486,0.029983
11,65,5,2,0,0,1,,3,S,0,S,16,0.795867,0.005645,0.004492
11,66,3,1,0,0,0,,2,S,0,S,31,0.018958,0.792014,0.015015
11,67,9,8,0,0,0,,1,S,0,S,19,0.014649,0.792104,0.011604
11,68,5,7,0,0,0,,2,S,0,S,24,0.754879,0.047861,0.036129
11,69,1,4,0,0,1,,3,S,0,S,17,0.043871,0.75039,0.03292
11,70,2,8,0,0,1,,6,S,0,S,13,0.02285,0.759953,0.017365
11,71,9,3,0,0,1,,6,S,0,S,15,0.799583,0.000705,0.000564
11,72,2,5,0,0,1,,3,S,0,S,18,0.019045,0.783522,0.014922
12,1,8,7,0,0,1,,1,S,0,S,20,0.761133,0.039018,0.029698
12,2,2,3,0,0,1,,1,S,0,S,17,0.012122,0.791237,0.009591
12,3,8,4,0,0,1,,4,S,0,S,18,0.787674,0.016742,0.013187
12,4,4,1,0,0,1,,3,S,0,S,15,0.774077,0.02078,0.016085
12,5,8,5,0,0,1,,3,S,0,S,19,0.753549,0.04583,0.034535
12,6,3,9,0,0,1,,6,S,0,S,18,0.00834,0.797013,0.006647
12,7,2,4,0,0,1,,2,S,0,S,23,0.032405,0.771988,0.025016
12,8,8,2,0,0,1,,6,S,0,S,16,0.753119,0.04008,0.030185
12,9,7,4,0,0,1,,3,S,0,S,15,0.751065,0.039263,0.029489
12,10,1,5,0,0,1,,4,S,0,S,17,0.044,0.752155,0.033095
12,11,1,8,0,0,1,,7,L,0,S,15,0.006636,0.792121,0.005257
12,12,8,9,0,0,0,,1,S,0,S,22,0.764128,0.038531,0.029443
12,13,3,7,0,0,1,,4,S,0,S,18,0.035843,0.761591,0.027298
12,14,2,9,0,0,1,,7,L,0,S,18,0.025303,0.775605,0.019625
12,15,1,9,0,0,1,,8,L,0,S,17,0.01281,0.790298,0.010124
12,16,5,3,0,0,0,,2,S,0,S,18,0.00964,0.797911,0.007692
12,17,1,2,0,0,1,,1,S,0,S,24,0.02597,0.781475,0.020295
12,18,7,2,0,0,1,,5,S,0,S,15,0.785154,0.012766,0.010023
12,19,6,5,0,0,1,,1,S,0,S,26,0.794645,0.014576,0.011583
12,20,4,9,0,0,1,,5,S,0,S,18,0.037086,0.762018,0.028261
12,21,9,4,0,0,1,,5,S,0,S,16,0.791886,0.010467,0.008289
12,22,7,3,0,0,1,,4,S,0,S,18,0.760881,0.039197,0.029825
12,23,4,8,0,0,1,,4,S,0,S,15,0.033881,0.757384,0.025661
12,24,5,7,0,0,1,,2,S,0,S,21,0.027443,0.777387,0.021334
12,25,3,6,0,0,1,,3,S,0,S,15,0.022123,0.771759,0.017074
12,26,4,2,0,0,1,,2,S,0,S,21,0.775868,0.029484,0.022876
12,27,8,3,0,0,0,,5,S,0,S,23,0.046132,0.756266,0.034888
12,28,5,8,0,0,1,,3,S,0,S,16,0.012923,0.788263,0.010187
12,29,2,8,0,0,1,,6,S,0,S,15,0.029448,0.761872,0.022436
12,30,2,6,0,0,1,,4,S,0,S,15,0.029597,0.762051,0.022554
12,31,6,2,0,0,1,,4,S,0,S,18,0.784115,0.018057,0.014159
12,32,8,6,0,0,0,,2,S,0,S,18,0.018519,0.785601,0.014549
12,33,6,1,0,0,1,,5,S,0,S,14,0.754876,0.029943,0.022603
12,34,7,5,0,0,1,,2,S,0,S,16,0.767541,0.030143,0.023136
12,35,2,1,0,0,1,,1,S,0,S,15,0.76523,0.026714,0.020442
12,36,2,7,0,0,1,,5,S,0,S,19,0.021329,0.781386,0.016666
12,37,3,1,0,0,1,,2,S,0,S,15,0.755439,0.034361,0.025958
12,38,1,7,0,0,1,,6,S,0,S,17,0.033706,0.763092,0.025721
12,39,5,1,0,0,1,,4,S,0,S,15,0.790399,0.008272,0.006539
12,40,9,8,0,0,0,,1,S,0,S,25,0.041318,0.763313,0.031539
12,41,8,1,0,0,1,,7,L,0,S,14,0.781478,0.010896,0.008515
12,42,9,5,0,0,1,,4,S,0,S,16,0.75522,0.039959,0.030178
12,43,6,3,0,0,0,,3,S,0,S,19,0.032364,0.768189,0.024861
12,44,9,1,0,0,1,,8,L,0,S,13,0.764278,0.019756,0.015099
12,45,3,8,0,0,1,,5,S,0,S,15,0.021999,0.771555,0.016973
12,46,5,6,0,0,1,,1,S,0,S,16,0.013113,0.788387,0.010338
12,47,3,4,0,0,1,,1,S,0,S,21,0.040932,0.760216,0.031117
12,48,6,4,0,0,1,,2,S,0,S,20,0.772396,0.029482,0.022772
12,49,4,3,0,0,0,,1,S,0,S,17,0.0195,0.78318,0.015272
12,50,9,3,0,0,1,,6,S,0,S,19,0.783412,0.022735,0.017811
12,51,4,6,0,0,1,,2,S,0,S,15,0.034051,0.757538,0.025795
12,52,4,5,0,0,1,,1,S,0,S,20,0.021807,0.785428,0.017128
12,53,5,4,0,0,1,,1,S,0,S,24,0.757231,0.04587,0.034734
12,54,6,7,0,0,1,,1,S,0,S,34,0.047766,0.751504,0.035896
12,55,9,2,0,0,1,,7,L,0,S,15,0.777706,0.01873,0.014566
12,56,5,2,0,0,1,,3,S,0,S,19,0.764535,0.037088,0.028355
12,57,1,3,0,0,1,,2,S,0,S,16,0.013681,0.787505,0.010774
12,58,7,6,0,0,1,,1,S,0,S,30,0.757506,0.04665,0.035338
12,59,1,6,0,0,1,,5,S,0,S,15,0.006721,0.792365,0.005325
12,60,1,4,0,0,1,,3,S,0,S,19,0.03303,0.768997,0.0254
12,61,3,5,0,0,1,,2,S,0,S,19,0.01413,0.792639,0.0112
12,62,5,9,0,0,1,,4,S,0,S,19,0.044789,0.754247,0.033782
12,63,7,8,0,0,0,,1,S,0,S,32,0.785171,0.024135,0.01895
12,64,9,7,0,0,1,,2,S,0,S,17,0.787396,0.015227,0.011989
12,65,7,1,0,0,1,,6,S,0,S,13,0.768281,0.016584,0.012741
12,66,4,7,0,0,1,,3,S,0,S,19,0.037031,0.76294,0.028252
12,67,6,9,0,0,1,,3,S,0,S,23,0.031195,0.771718,0.024074
12,68,7,9,0,0,0,,2,S,0,S,17,0.77861,0.022605,0.017601
12,69,6,8,0,0,1,,2,S,0,S,17,0.007227,0.795512,0.005749
12,70,9,6,0,0,0,,3,S,0,S,25,0.050201,0.752611,0.037782
12,71,3,2,0,0,1,,1,S,0,S,24,0.755826,0.04572,0.034556
12,72,2,5,0,0,1,,3,S,0,S,19,0.039303,0.760963,0.029908
13,1,3,4,0,0,1,,1,S,0,S,28,0.0168,0.789522,0.013264
13,2,1,8,0,0,1,,7,L,0,S,16,0.026742,0.768726,0.020557
13,3,9,1,0,0,1,,8,L,0,S,13,0.750225,0.031535,0.023658
13,4,9,8,0,0,1,,1,S,0,S,24,0.794521,0.017095,0.013582
13,5,4,6,0,0,1,,2,S,0,S,17,0.036352,0.758558,0.027575
13,6,8,4,0,0,1,,4,S,0,S,19,0.755892,0.042921,0.032443
13,7,4,1,0,0,1,,3,S,0,S,15,0.77581,0.018959,0.014708
13,8,4,3,0,0,0,,1,S,0,S,20,0.031581,0.77217,0.024386
13,9,2,6,0,0,1,,4,S,0,S,18,0.006862,0.797456,0.005473
13,10,5,4,0,0,1,,1,S,0,S,24,0.793751,0.012632,0.010027
13,11,6,1,0,0,1,,5,S,0,S,14,0.774372,0.015591,0.012073
13,12,8,5,0,0,1,,3,S,0,S,20,0.767206,0.036999,0.028386
13,13,2,5,0,0,1,,3,S,0,S,18,0.033959,0.765534,0.025996
13,14,9,3,0,0,1,,6,S,0,S,18,0.798102,0.010986,0.008768
13,15,8,9,0,0,0,,1,S,0,S,24,0.777997,0.028979,0.022546
13,16,9,7,0,0,1,,2,S,0,S,20,0.767881,0.035929,0.027589
13,17,3,2,0,0,1,,1,S,0,S,24,0.782241,0.025589,0.020017
13,18,7,8,0,0,1,,1,S,0,S,24,0.039472,0.765755,0.030226
13,19,8,6,0,0,1,,2,S,0,S,23,0.787045,0.020905,0.016453
13,20,8,1,0,0,1,,7,L,0,S,14,0.798079,0,0
13,21,2,3,0,0,1,,1,S,0,S,20,0.047246,0.751981,0.035528
13,22,6,7,0,0,1,,1,S,0,S,26,0.040368,0.761112,0.030725
13,23,7,5,0,0,1,,2,S,0,S,22,0.773524,0.033139,0.025634
13,24,4,5,0,0,1,,1,S,0,S,18,0.025804,0.776287,0.020031
13,25,4,7,0,0,1,,3,S,0,S,18,0.013553,0.790225,0.01071
13,26,6,5,0,0,1,,1,S,0,S,31,0.790561,0.018338,0.014497
13,27,7,6,0,0,1,,1,S,0,S,30,0.792101,0.017703,0.014023
13,28,1,9,0,0,1,,8,L,0,S,16,0.035684,0.756385,0.026991
13,29,7,1,0,0,1,,6,S,0,S,14,0.789908,0.005632,0.004449
13,30,2,7,0,0,1,,5,S,0,S,18,0.020793,0.780666,0.016232
13,31,2,1,0,0,1,,1,S,0,S,15,0.778484,0.016549,0.012883
13,32,5,6,0,0,1,,1,S,0,S,24,0.01701,0.788643,0.013415
13,33,5,8,0,0,1,,3,S,0,S,21,0.037992,0.76252,0.02897
13,34,3,1,0,0,1,,2,S,0,S,14,0.763229,0.024082,0.01838
13,35,2,4,0,0,1,,2,S,0,S,19,0.023497,0.777739,0.018275
13,36,7,2,0,0,1,,5,S,0,S,19,0.77353,0.032159,0.024876
13,37,9,6,0,0,1,,3,S,0,S,21,0.763566,0.039494,0.030156
13,38,1,3,0,0,1,,2,S,0,S,18,0.040254,0.75763,0.030498
13,39,1,4,0,0,1,,3,S,0,S,18,0.006322,0.79756,0.005042
13,40,1,7,0,0,1,,6,S,0,S,17,0.01571,0.78478,0.012329
13,41,7,3,0,0,1,,4,S,0,S,19,0.785882,0.021292,0.016733
13,42,6,4,0,0,1,,2,S,0,S,24,0.772978,0.029618,0.022894
13,43,3,6,0,0,1,,3,S,0,S,21,0.015203,0.789772,0.012007
13,44,5,2,0,0,1,,3,S,0,S,21,0.791859,0.016428,0.013009
13,45,6,8,0,0,1,,2,S,0,S,21,0.028846,0.77436,0.022337
13,46,1,2,0,0,1,,1,S,0,S,18,0.029177,0.772877,0.02255
13,47,1,6,0,0,1,,5,S,0,S,17,0.005796,0.796602,0.004617
13,48,7,4,0,0,1,,3,S,0,S,21,0.787477,0.019313,0.015208
13,49,3,9,0,0,1,,6,S,0,S,20,0.031955,0.768559,0.024559
13,50,5,7,0,0,1,,2,S,0,S,28,0.013475,0.794458,0.010706
13,51,5,9,0,0,1,,4,S,0,S,23,0.011912,0.795246,0.009473
13,52,5,1,0,0,1,,4,S,0,S,14,0.774966,0.0149,0.011547
13,53,9,2,0,0,1,,7,L,0,S,18,0.790607,0.017949,0.014191
13,54,4,2,0,0,0,,2,S,0,S,20,0.014052,0.795275,0.011175
13,55,8,3,0,0,1,,5,S,0,S,18,0.777099,0.027118,0.021074
13,56,3,8,0,0,1,,5,S,0,S,19,0.042908,0.754469,0.032373
13,57,7,9,0,0,1,,2,S,0,S,29,0.031527,0.77555,0.024451
13,58,4,9,0,0,1,,5,S,0,S,17,0.028588,0.769034,0.021985
13,59,2,9,0,0,1,,7,L,0,S,17,0.034736,0.760752,0.026425
13,60,8,2,0,0,1,,6,S,0,S,18,0.768001,0.035329,0.027133
13,61,4,8,0,0,1,,4,S,0,S,17,0.017403,0.784091,0.013645
13,62,8,7,0,0,1,,1,S,0,S,21,0.76655,0.037026,0.028382
13,63,9,4,0,0,1,,5,S,0,S,19,0.78614,0.019549,0.015368
13,64,3,5,0,0,1,,2,S,0,S,23,0.035938,0.767309,0.027576
13,65,1,5,0,0,1,,4,S,0,S,17,0.024554,0.775029,0.01903
13,66,5,3,0,0,1,,2,S,0,S,20,0.76527,0.035994,0.027545
13,67,2,8,0,0,1,,6,S,0,S,17,0.023013,0.776547,0.017871
13,68,6,9,0,0,1,,3,S,0,S,22,0.035203,0.766096,0.026969
13,69,3,7,0,0,1,,4,S,0,S,22,0.020161,0.784965,0.015826
13,70,6,3,0,0,1,,3,S,0,S,20,0.757657,0.042323,0.032066
13,71,6,2,0,0,1,,4,S,0,S,21,0.78314,0.023723,0.018579
13,72,9,5,0,0,1,,4,S,0,S,19,0.757809,0.044165,0.033469
14,1,7,3,0,0,1,,4,S,0,S,19,0.790785,0.017357,0.013726
14,2,4,3,0,0,1,,1,S,0,S,18,0.767199,0.035307,0.027087
14,3,9,5,0,0,1,,4,S,0,S,16,0.775623,0.023684,0.01837
14,4,5,9,0,0,1,,4,S,0,S,15,0.028641,0.76599,0.021939
14,5,1,7,0,0,1,,6,S,0,S,15,0.010552,0.790213,0.008339
14,6,3,5,0,0,1,,2,S,0,S,24,0.045691,0.761026,0.034772
14,7,7,4,0,0,1,,3,S,0,S,17,0.798183,0.006923,0.005526
14,8,8,9,0,0,1,,1,S,0,S,18,0.029795,0.770775,0.022965
14,9,8,1,0,0,1,,7,L,0,S,15,0.770343,0.025418,0.01958
14,10,8,3,0,0,1,,5,S,0,S,16,0.793823,0.009863,0.00783
14,11,9,6,0,0,1,,3,S,0,S,16,0.755798,0.038741,0.029281
14,12,7,5,0,0,1,,2,S,0,S,22,0.770155,0.035265,0.02716
14,13,9,7,0,0,1,,2,S,0,S,20,0.789218,0.020387,0.01609
14,14,4,1,0,0,1,,3,S,0,S,17,0.773732,0.028446,0.02201
14,15,5,3,0,0,1,,2,S,0,S,19,0.770104,0.036102,0.027802
14,16,7,8,0,0,1,,1,S,0,S,15,0.032528,0.75812,0.02466
14,17,8,2,0,0,1,,6,S,0,S,17,0.775108,0.02532,0.019626
14,18,4,2,0,0,1,,2,S,0,S,23,0.7763,0.030323,0.02354
14,19,5,1,0,0,1,,4,S,0,S,18,0.793472,0.016133,0.012801
14,20,8,5,0,0,1,,3,S,0,S,17,0.797111,0.008642,0.006889
14,21,2,3,0,0,1,,1,S,0,S,21,0.025337,0.78433,0.019873
14,22,6,9,0,0,1,,3,S,0,S,17,0.029248,0.769939,0.022519
14,23,3,4,0,0,0,,1,S,0,S,17,0.754592,0.043602,0.032901
14,24,6,3,0,0,1,,3,S,0,S,16,0.767581,0.031018,0.023809
14,25,1,4,0,0,1,,3,S,0,S,24,0.025398,0.782505,0.019874
14,26,4,7,0,0,1,,3,S,0,S,18,0.043277,0.757853,0.032797
14,27,1,3,0,0,1,,2,S,0,S,18,0.028239,0.775927,0.021912
14,28,3,7,0,0,1,,4,S,0,S,17,0.015604,0.792672,0.012369
14,29,7,2,0,0,1,,5,S,0,S,26,0.78748,0.021557,0.016976
14,30,2,9,0,0,1,,7,L,0,S,14,0.021242,0.769199,0.016339
14,31,2,4,0,0,0,,2,S,0,S,21,0.769258,0.035647,0.027422
14,32,6,5,0,0,1,,1,S,0,S,17,0.760645,0.038003,0.028907
14,33,5,7,0,0,1,,2,S,0,S,17,0.045714,0.754698,0.0345
14,34,1,9,0,0,1,,8,L,0,S,14,0.00398,0.790687,0.003147
14,35,4,9,0,0,1,,5,S,0,S,16,0.00769,0.794385,0.006109
14,36,6,7,0,0,1,,1,S,0,S,28,0.022134,0.790565,0.017498
14,37,3,6,0,0,1,,3,S,0,S,21,0.045542,0.758868,0.03456
14,38,1,2,0,0,1,,1,S,0,S,16,0.03716,0.75748,0.028148
14,39,5,8,0,0,1,,3,S,0,S,15,0.024048,0.7716,0.018555
14,40,6,1,0,0,1,,5,S,0,S,16,0.798813,0.006416,0.005125
14,41,3,8,0,0,1,,5,S,0,S,15,0.010031,0.789615,0.007921
14,42,2,6,0,0,1,,4,S,0,S,18,0.012028,0.795595,0.009569
14,43,9,3,0,0,1,,6,S,0,S,15,0.764618,0.030047,0.022975
14,44,9,1,0,0,1,,8,L,0,S,15,0.788182,0.011689,0.009213
14,45,2,7,0,0,1,,5,S,0,S,15,0.037595,0.756595,0.028444
14,46,5,2,0,0,0,,3,S,0,S,30,0.049499,0.756079,0.037425
14,47,1,5,0,0,1,,4,S,0,S,17,0.014408,0.790185,0.011385
14,48,9,2,0,0,1,,7,L,0,S,16,0.756772,0.037693,0.028525
14,49,2,1,0,0,0,,1,S,0,S,31,0.022933,0.789924,0.018115
14,50,2,5,0,0,1,,3,S,0,S,18,0.03645,0.765588,0.027905
14,51,1,6,0,0,1,,5,S,0,S,16,0.035483,0.759991,0.026967
14,52,4,5,0,0,0,,1,S,0,S,21,0.781355,0.026171,0.020449
14,53,9,8,0,0,0,,1,S,0,S,19,0.020792,0.78367,0.016294
14,54,7,6,0,0,1,,1,S,0,S,26,0.758387,0.045255,0.034321
14,55,6,8,0,0,1,,2,S,0,S,17,0.02087,0.780251,0.016284
14,56,5,6,0,0,1,,1,S,0,S,28,0.052358,0.752743,0.039412
14,57,4,6,0,0,0,,2,S,0,S,23,0.764324,0.040237,0.030754
14,58,3,1,0,0,1,,2,S,0,S,19,0.788186,0.021743,0.017138
14,59,1,8,0,0,1,,7,L,0,S,14,0.001386,0.793789,0.0011
14,60,2,8,0,0,1,,6,S,0,S,14,0.01815,0.772943,0.014029
14,61,8,7,0,0,1,,1,S,0,S,22,0.770134,0.036751,0.028303
14,62,5,4,0,0,1,,1,S,0,S,17,0.791073,0.014644,0.011584
14,63,3,9,0,0,1,,6,S,0,S,15,0.014031,0.784779,0.011012
14,64,6,2,0,0,1,,4,S,0,S,18,0.780526,0.023178,0.018091
14,65,8,6,0,0,1,,2,S,0,S,17,0.773836,0.026615,0.020596
14,66,6,4,0,0,1,,2,S,0,S,15,0.771944,0.022985,0.017743
14,67,9,4,0,0,1,,5,S,0,S,14,0.753863,0.032782,0.024713
14,68,4,8,0,0,1,,4,S,0,S,15,0.038787,0.750532,0.029111
14,69,7,1,0,0,1,,6,S,0,S,17,0.756833,0.041388,0.031323
14,70,7,9,0,0,1,,2,S,0,S,15,0.037434,0.752073,0.028153
14,71,3,2,0,0,0,,1,S,0,S,22,0.016131,0.79576,0.012837
14,72,8,4,0,0,1,,4,S,0,S,15,0.790082,0.008399,0.006636
15,1,3,6,0,0,0,,3,S,0,S,31,0.788207,0.02029,0.015993
15,2,7,6,0,0,1,,1,S,0,S,22,0.755744,0.046313,0.035001
15,3,3,5,0,0,1,,2,S,0,S,19,0.011891,0.790711,0.009402
15,4,1,9,0,0,1,,8,L,0,S,15,0.007112,0.789085,0.005612
15,5,4,1,0,0,0,,3,S,0,S,30,0.029755,0.77737,0.023131
15,6,3,7,0,0,1,,4,S,0,S,16,0.036517,0.753665,0.027521
15,7,1,3,0,0,1,,2,S,0,S,21,0.034628,0.765658,0.026513
15,8,5,1,0,0,1,,4,S,0,S,21,0.788325,0.020643,0.016273
15,9,2,9,0,0,1,,7,L,0,S,17,0.040761,0.755018,0.030775
15,10,7,2,0,0,1,,5,S,0,S,20,0.764016,0.039421,0.030118
15,11,8,6,0,0,1,,2,S,0,S,16,0.772953,0.027068,0.020922
15,12,7,9,0,0,1,,2,S,0,S,17,0.008916,0.793875,0.007078
15,13,8,3,0,0,1,,5,S,0,S,15,0.766299,0.027147,0.020802
15,14,6,5,0,0,1,,1,S,0,S,19,0.772525,0.028359,0.021908
15,15,9,6,0,0,1,,3,S,0,S,16,0.799035,0.00318,0.002541
15,16,3,8,0,0,1,,5,S,0,S,16,0.010053,0.787739,0.007919
15,17,1,8,0,0,1,,7,L,0,S,14,0.031154,0.752547,0.023445
15,18,9,4,0,0,1,,5,S,0,S,20,0.789015,0.015622,0.012326
15,19,5,8,0,0,1,,3,S,0,S,16,0.008927,0.79235,0.007073
15,20,1,6,0,0,1,,5,S,0,S,18,0.019167,0.784412,0.015034
15,21,5,2,0,0,1,,3,S,0,S,22,0.775309,0.033091,0.025655
15,22,4,6,0,0,1,,2,S,0,S,21,0.030389,0.774715,0.023543
15,23,4,5,0,0,1,,1,S,0,S,17,0.032538,0.762482,0.02481
15,24,4,3,0,0,1,,1,S,0,S,23,0.782202,0.022917,0.017926
15,25,4,9,0,0,1,,5,S,0,S,15,0.037844,0.750117,0.028387
15,26,1,5,0,0,1,,4,S,0,S,16,0.018891,0.776435,0.014667
15,27,2,5,0,0,1,,3,S,0,S,22,0.048249,0.751031,0.036237
15,28,3,1,0,0,1,,2,S,0,S,21,0.766608,0.035231,0.027008
15,29,2,4,0,0,1,,2,S,0,S,18,0.034176,0.76649,0.026196
15,30,5,7,0,0,1,,2,S,0,S,16,0.035697,0.758072,0.027061
15,31,8,1,0,0,1,,7,L,0,S,15,0.751081,0.040679,0.030553
15,32,4,2,0,0,0,,2,S,0,S,24,0.023684,0.785822,0.018611
15,33,7,3,0,0,1,,4,S,0,S,18,0.757132,0.039296,0.029752
15,34,6,1,0,0,1,,5,S,0,S,16,0.79116,0.010976,0.008684
15,35,2,6,0,0,0,,4,S,0,S,19,0.75791,0.043562,0.033016
15,36,9,2,0,0,1,,7,L,0,S,15,0.766842,0.026393,0.020239
15,37,3,2,0,0,1,,1,S,0,S,23,0.792479,0.016829,0.013337
15,38,6,3,0,0,1,,3,S,0,S,15,0.756765,0.033224,0.025142
15,39,5,4,0,0,0,,1,S,0,S,17,0.010589,0.794255,0.00841
15,40,6,4,0,0,1,,2,S,0,S,26,0.76161,0.042092,0.032057
15,41,1,4,0,0,1,,3,S,0,S,15,0.01787,0.776084,0.013869
15,42,8,7,0,0,1,,1,S,0,S,32,0.771457,0.034817,0.02686
15,43,8,9,0,0,1,,1,S,0,S,26,0.048721,0.754259,0.036748
15,44,9,5,0,0,1,,4,S,0,S,17,0.756546,0.035889,0.027152
15,45,1,2,0,0,1,,1,S,0,S,19,0.011428,0.796789,0.009106
15,46,8,5,0,0,1,,3,S,0,S,19,0.795273,0.011643,0.009259
15,47,5,9,0,0,1,,4,S,0,S,16,0.028063,0.768457,0.021565
15,48,9,3,0,0,1,,6,S,0,S,15,0.784484,0.009785,0.007676
15,49,2,1,0,0,1,,1,S,0,S,18,0.781216,0.023294,0.018198
15,50,5,3,0,0,1,,2,S,0,S,19,0.768038,0.033324,0.025594
15,51,4,8,0,0,1,,4,S,0,S,15,0.022395,0.769632,0.017236
15,52,3,4,0,0,1,,1,S,0,S,17,0.011489,0.789873,0.009075
15,53,7,4,0,0,0,,3,S,0,S,17,0.0306,0.767319,0.02348
15,54,2,3,0,0,0,,1,S,0,S,17,0.766268,0.03163,0.024237
15,55,7,5,0,0,0,,2,S,0,S,20,0.013543,0.791434,0.010719
15,56,5,6,0,0,0,,1,S,0,S,28,0.790684,0.021014,0.016615
15,57,3,9,0,0,1,,6,S,0,S,16,0.02896,0.764012,0.022126
15,58,7,1,0,0,1,,6,S,0,S,19,0.752598,0.046057,0.034662
15,59,8,4,0,0,1,,4,S,0,S,24,0.790309,0.020137,0.015914
15,60,6,7,0,0,1,,1,S,0,S,27,0.029218,0.776156,0.022678
15,61,8,2,0,0,1,,6,S,0,S,16,0.794046,0.011276,0.008953
15,62,6,9,0,0,1,,3,S,0,S,24,0.029792,0.775501,0.023103
15,63,7,8,0,0,1,,1,S,0,S,16,0.023246,0.77251,0.017958
15,64,1,7,0,0,1,,6,S,0,S,15,0.011734,0.782553,0.009182
15,65,6,2,0,0,1,,4,S,0,S,16,0.783246,0.018502,0.014492
15,66,6,8,0,0,1,,2,S,0,S,20,0.046677,0.751331,0.03507
15,67,2,8,0,0,1,,6,S,0,S,17,0.012767,0.790029,0.010086
15,68,4,7,0,0,1,,3,S,0,S,16,0.007833,0.79175,0.006202
15,69,2,7,0,0,1,,5,S,0,S,18,0.015841,0.788029,0.012483
15,70,9,7,0,0,1,,2,S,0,S,21,0.782639,0.020105,0.015735
15,71,9,8,0,0,1,,1,S,0,S,28,0.762752,0.03784,0.028862
15,72,9,1,0,0,1,,8,L,0,S,15,0.772642,0.02063,0.01594
16,1,3,8,0,0,1,,5,S,0,S,17,0.029078,0.770475,0.022404
16,2,6,5,0,0,0,,1,S,0,S,17,0.015198,0.787719,0.011972
16,3,8,3,0,0,1,,5,S,0,S,16,0.787211,0.016539,0.01302
16,4,1,6,0,0,1,,5,S,0,S,16,0.024697,0.770481,0.019029
16,5,2,8,0,0,1,,6,S,0,S,19,0.026221,0.779957,0.020451
16,6,6,3,0,0,1,,3,S,0,S,21,0.759292,0.044163,0.033532
16,7,3,7,0,0,1,,4,S,0,S,15,0.037936,0.750685,0.028478
16,8,7,8,0,0,0,,1,S,0,S,20,0.756,0.043126,0.032603
16,9,5,9,0,0,1,,4,S,0,S,14,0.013468,0.780149,0.010507
16,10,7,3,0,0,1,,4,S,0,S,18,0.79614,0.010423,0.008298
16,11,4,7,0,0,1,,3,S,0,S,16,0.039137,0.751924,0.029428
16,12,8,1,0,0,1,,7,L,0,S,14,0.767158,0.022224,0.017049
16,13,7,9,0,0,1,,2,S,0,S,16,0.006361,0.794637,0.005054
16,14,4,2,0,0,1,,2,S,0,S,20,0.79317,0.01574,0.012484
16,15,2,7,0,0,1,,5,S,0,S,16,0.036728,0.75824,0.027849
16,16,9,4,0,0,1,,5,S,0,S,16,0.78241,0.014204,0.011113
16,17,1,3,0,0,1,,2,S,0,S,19,0.029605,0.774615,0.022932
16,18,5,7,0,0,1,,2,S,0,S,16,0.01955,0.779729,0.015244
16,19,3,9,0,0,1,,6,S,0,S,14,0.004352,0.790464,0.00344
16,20,4,6,0,0,1,,2,S,0,S,17,0.038994,0.754652,0.029427
16,21,1,2,0,0,1,,1,S,0,S,31,0.046713,0.758446,0.035429
16,22,4,9,0,0,1,,5,S,0,S,14,0.023462,0.764635,0.01794
16,23,8,4,0,0,1,,4,S,0,S,15,0.750654,0.03945,0.029614
16,24,7,6,0,0,0,,1,S,0,S,35,0.046289,0.753317,0.03487
16,25,9,5,0,0,0,,4,S,0,S,28,0.049208,0.750339,0.036923
16,26,5,4,0,0,0,,1,S,0,S,27,0.031789,0.77498,0.024635
16,27,7,1,0,0,1,,6,S,0,S,15,0.772522,0.019223,0.01485
16,28,5,2,0,0,1,,3,S,0,S,21,0.764816,0.041552,0.03178
16,29,1,9,0,0,1,,8,L,0,S,14,0.003427,0.791022,0.002711
16,30,9,7,0,0,1,,2,S,0,S,23,0.754644,0.04367,0.032955
16,31,6,9,0,0,1,,3,S,0,S,15,0.003872,0.795828,0.003082
16,32,8,2,0,0,1,,6,S,0,S,15,0.785752,0.015034,0.011813
16,33,2,5,0,0,1,,3,S,0,S,16,0.017085,0.784587,0.013405
16,34,1,7,0,0,1,,6,S,0,S,15,0.036002,0.752474,0.02709
16,35,7,5,0,0,0,,2,S,0,S,19,0.038797,0.759915,0.029483
16,36,8,7,0,0,1,,1,S,0,S,22,0.796223,0.01388,0.011051
16,37,4,8,0,0,1,,4,S,0,S,19,0.029327,0.772758,0.022662
16,38,1,5,0,0,1,,4,S,0,S,15,0.021411,0.772633,0.016543
16,39,4,1,0,0,1,,3,S,0,S,17,0.773168,0.024119,0.018648
16,40,2,9,0,0,1,,7,L,0,S,14,0.021774,0.769776,0.016761
16,41,1,4,0,0,1,,3,S,0,S,21,0.022878,0.781394,0.017877
16,42,2,4,0,0,0,,2,S,0,S,24,0.78764,0.02144,0.016887
16,43,3,5,0,0,1,,2,S,0,S,15,0.023072,0.771187,0.017793
16,44,6,2,0,0,1,,4,S,0,S,18,0.789839,0.017135,0.013534
16,45,2,1,0,0,1,,1,S,0,S,17,0.781222,0.02029,0.015851
16,46,2,6,0,0,1,,4,S,0,S,17,0.036277,0.761404,0.027622
16,47,3,4,0,0,1,,1,S,0,S,21,0.035455,0.766416,0.027173
16,48,9,1,0,0,1,,8,L,0,S,14,0.753377,0.029521,0.02224
16,49,3,1,0,0,1,,2,S,0,S,19,0.788026,0.01604,0.01264
16,50,4,3,0,0,0,,1,S,0,S,26,0.023971,0.785337,0.018825
16,51,9,2,0,0,1,,7,L,0,S,15,0.769762,0.024197,0.018626
16,52,5,8,0,0,1,,3,S,0,S,18,0.026251,0.77788,0.02042
16,53,5,1,0,0,1,,4,S,0,S,18,0.797002,0.009025,0.007193
16,54,5,3,0,0,0,,2,S,0,S,21,0.044259,0.760953,0.033679
16,55,3,6,0,0,1,,3,S,0,S,16,0.027109,0.768113,0.020823
16,56,9,8,0,0,1,,1,S,0,S,18,0.790278,0.013044,0.010308
16,57,6,4,0,0,1,,2,S,0,S,20,0.792784,0.013689,0.010852
16,58,7,4,0,0,1,,3,S,0,S,17,0.774137,0.023467,0.018167
16,59,8,5,0,0,1,,3,S,0,S,27,0.791413,0.020123,0.015926
16,60,9,6,0,0,1,,3,S,0,S,20,0.785543,0.017214,0.013523
16,61,3,2,0,0,1,,1,S,0,S,30,0.763865,0.04297,0.032823
16,62,9,3,0,0,1,,6,S,0,S,16,0.767315,0.028732,0.022047
16,63,4,5,0,0,1,,1,S,0,S,16,0.019424,0.778523,0.015122
16,64,2,3,0,0,1,,1,S,0,S,26,0.024668,0.78788,0.019436
16,65,5,6,0,0,1,,1,S,0,S,17,0.013666,0.789597,0.010791
16,66,6,8,0,0,1,,2,S,0,S,22,0.039379,0.764107,0.030089
16,67,7,2,0,0,1,,5,S,0,S,16,0.775156,0.023573,0.018273
16,68,6,7,0,0,1,,1,S,0,S,17,0.041581,0.752861,0.031305
16,69,1,8,0,0,1,,7,L,0,S,17,0.025568,0.774193,0.019795
16,70,8,9,0,0,1,,1,S,0,S,17,0.020328,0.783285,0.015922
16,71,8,6,0,0,1,,2,S,0,S,19,0.780255,0.024285,0.018949
16,72,6,1,0,0,1,,5,S,0,S,16,0.770951,0.024559,0.018934
17,1,5,7,0,0,1,,2,S,0,S,20,0.026821,0.775952,0.020812
17,2,7,2,0,0,1,,5,S,0,S,15,0.7824,0.01515,0.011854
17,3,1,7,0,0,1,,6,S,0,S,16,0.022973,0.776459,0.017838
17,4,7,4,0,0,1,,3,S,0,S,24,0.774857,0.033124,0.025667
17,5,9,5,0,0,1,,4,S,0,S,15,0.797611,0.001807,0.001441
17,6,8,4,0,0,1,,4,S,0,S,22,0.770291,0.036419,0.028053
17,7,9,7,0,0,1,,2,S,0,S,16,0.78901,0.012654,0.009984
17,8,4,2,0,0,1,,2,S,0,S,15,0.784864,0.011596,0.009102
17,9,4,3,0,0,1,,1,S,0,S,19,0.753861,0.042034,0.031688
17,10,6,5,0,0,1,,1,S,0,S,18,0.762644,0.034582,0.026374
17,11,4,8,0,0,1,,4,S,0,S,19,0.017791,0.787848,0.014017
17,12,4,6,0,0,1,,2,S,0,S,22,0.025797,0.780877,0.020145
17,13,8,5,0,0,1,,3,S,0,S,26,0.781889,0.026689,0.020868
17,14,3,1,0,0,1,,2,S,0,S,18,0.771019,0.031171,0.024033
17,15,6,2,0,0,1,,4,S,0,S,14,0.773961,0.015691,0.012145
17,16,7,5,0,0,0,,2,S,0,S,31,0.046228,0.757592,0.035022
17,17,8,9,0,0,1,,1,S,0,S,15,0.029665,0.762294,0.022614
17,18,6,1,0,0,1,,5,S,0,S,15,0.753589,0.035415,0.026688
17,19,5,1,0,0,1,,4,S,0,S,16,0.759462,0.033049,0.0251
17,20,1,4,0,0,1,,3,S,0,S,19,0.040021,0.761607,0.03048
17,21,2,3,0,0,1,,1,S,0,S,25,0.038931,0.764638,0.029768
17,22,7,9,0,0,1,,2,S,0,S,15,0.024076,0.769099,0.018517
17,23,9,6,0,0,1,,3,S,0,S,15,0.778617,0.01803,0.014038
17,24,1,3,0,0,1,,2,S,0,S,23,0.021009,0.784981,0.016491
17,25,8,6,0,0,0,,2,S,0,S,22,0.021671,0.788788,0.017094
17,26,7,8,0,0,1,,1,S,0,S,18,0.034587,0.767464,0.026545
17,27,8,1,0,0,1,,7,L,0,S,17,0.786014,0.017905,0.014074
17,28,7,1,0,0,1,,6,S,0,S,17,0.771577,0.029019,0.02239
17,29,8,3,0,0,1,,5,S,0,S,19,0.761585,0.038164,0.029065
17,30,3,4,0,0,1,,1,S,0,S,23,0.051848,0.751059,0.038941
17,31,8,7,0,0,0,,1,S,0,S,18,0.037269,0.764679,0.028499
17,32,1,5,0,0,1,,4,S,0,S,19,0.011971,0.794951,0.009516
17,33,5,4,0,0,1,,1,S,0,S,20,0.785311,0.019346,0.015192
17,34,2,1,0,0,1,,1,S,0,S,20,0.796563,0.013324,0.010613
17,35,2,7,0,0,1,,5,S,0,S,16,0.031,0.767493,0.023792
17,36,4,5,0,0,0,,1,S,0,S,26,0.768796,0.034896,0.026828
17,37,6,8,0,0,0,,2,S,0,S,28,0.791245,0.017698,0.014003
17,38,3,9,0,0,1,,6,S,0,S,15,0.008355,0.789289,0.006594
17,39,6,3,0,0,1,,3,S,0,S,17,0.786176,0.013048,0.010258
17,40,1,8,0,0,1,,7,L,0,S,16,0.029533,0.767947,0.02268
17,41,4,1,0,0,1,,3,S,0,S,17,0.779896,0.020672,0.016122
17,42,2,8,0,0,1,,6,S,0,S,16,0.038115,0.758263,0.028901
17,43,5,9,0,0,1,,4,S,0,S,16,0.015302,0.780064,0.011937
17,44,7,6,0,0,0,,1,S,0,S,21,0.018863,0.791178,0.014924
17,45,5,3,0,0,1,,2,S,0,S,18,0.763908,0.031347,0.023946
17,46,5,2,0,0,1,,3,S,0,S,15,0.798493,0,0
17,47,3,6,0,0,1,,3,S,0,S,19,0.018112,0.790053,0.014309
17,48,6,9,0,0,1,,3,S,0,S,17,0.01599,0.782845,0.012518
17,49,9,4,0,0,1,,5,S,0,S,14,0.758283,0.029726,0.022541
17,50,4,7,0,0,1,,3,S,0,S,18,0.040208,0.758209,0.030486
17,51,4,9,0,0,1,,5,S,0,S,15,0.031606,0.757204,0.023932
17,52,6,4,0,0,1,,2,S,0,S,18,0.794183,0.010992,0.008729
17,53,3,2,0,0,1,,1,S,0,S,15,0.760546,0.032173,0.024469
17,54,5,8,0,0,1,,3,S,0,S,21,0.013651,0.793064,0.010827
17,55,1,9,0,0,1,,8,L,0,S,14,0.026436,0.760236,0.020098
17,56,3,5,0,0,1,,2,S,0,S,21,0.041971,0.760311,0.031911
17,57,3,8,0,0,1,,5,S,0,S,17,0.031374,0.76932,0.024136
17,58,2,6,0,0,1,,4,S,0,S,17,0.045719,0.751937,0.034378
17,59,3,7,0,0,1,,4,S,0,S,17,0.022401,0.780818,0.017491
17,60,1,6,0,0,1,,5,S,0,S,17,0.033167,0.766571,0.025425
17,61,8,2,0,0,1,,6,S,0,S,15,0.789808,0.009657,0.007627
17,62,1,2,0,0,0,,1,S,0,S,16,0.773383,0.024538,0.018977
17,63,7,3,0,0,1,,4,S,0,S,20,0.777519,0.026098,0.020292
17,64,9,3,0,0,1,,6,S,0,S,14,0.771047,0.017463,0.013465
17,65,2,9,0,0,1,,7,L,0,S,14,0.030518,0.756099,0.023075
17,66,2,4,0,0,1,,2,S,0,S,20,0.029431,0.777446,0.022881
17,67,9,1,0,0,1,,8,L,0,S,14,0.803446,0,0
17,68,5,6,0,0,0,,1,S,0,S,34,0.794551,0.014622,0.011618
17,69,2,5,0,0,1,,3,S,0,S,19,0.031471,0.771847,0.024291
17,70,9,2,0,0,1,,7,L,0,S,13,0.791079,0,0
17,71,6,7,0,0,1,,1,S,0,S,30,0.027598,0.779311,0.021508
17,72,9,8,0,0,1,,1,S,0,S,16,0.795641,0.007294,0.005803
18,1,2,7,0,0,1,,5,S,0,S,19,0.024785,0.779499,0.01932
18,2,6,9,0,0,0,,3,S,0,S,20,0.757553,0.042706,0.032352
18,3,8,7,0,0,1,,1,S,0,S,22,0.76699,0.033326,0.025561
18,4,9,4,0,0,0,,5,S,0,S,22,0.046387,0.75573,0.035056
18,5,3,4,0,0,1,,1,S,0,S,15,0.005748,0.792916,0.004558
18,6,8,4,0,0,0,,4,S,0,S,22,0.037849,0.765384,0.028969
18,7,6,8,0,0,0,,2,S,0,S,19,0.787791,0.018777,0.014792
18,8,4,5,0,0,1,,1,S,0,S,21,0.046087,0.753464,0.034725
18,9,5,6,0,0,0,,1,S,0,S,22,0.782455,0.026305,0.020583
18,10,2,4,0,0,1,,2,S,0,S,17,0.020911,0.784416,0.016403
18,11,2,5,0,0,1,,3,S,0,S,22,0.042809,0.76231,0.032634
18,12,2,8,0,0,1,,6,S,0,S,19,0.044851,0.759202,0.034051
18,13,1,9,0,0,1,,8,L,0,S,14,0.028896,0.758185,0.021909
18,14,9,5,0,0,1,,4,S,0,S,19,0.791327,0.014651,0.011594
18,15,1,6,0,0,1,,5,S,0,S,14,0.02221,0.766897,0.017033
18,16,1,7,0,0,1,,6,S,0,S,15,0.000951,0.796109,0.000757
18,17,6,7,0,0,0,,1,S,0,S,20,0.789865,0.01415,0.011177
18,18,4,7,0,0,1,,3,S,0,S,19,0.014502,0.788569,0.011436
18,19,2,1,0,0,1,,1,S,0,S,22,0.772718,0.035857,0.027707
18,20,5,2,0,0,1,,3,S,0,S,14,0.77981,0.012659,0.009872
18,21,8,5,0,0,1,,3,S,0,S,19,0.784501,0.019312,0.01515
18,22,3,5,0,0,1,,2,S,0,S,16,0.028118,0.766683,0.021558
18,23,2,3,0,0,1,,1,S,0,S,29,0.031251,0.77999,0.024376
18,24,7,3,0,0,1,,4,S,0,S,17,0.756777,0.043118,0.032631
18,25,5,3,0,0,1,,2,S,0,S,17,0.781696,0.022083,0.017262
18,26,9,8,0,0,1,,1,S,0,S,20,0.758809,0.043438,0.032961
18,27,4,1,0,0,1,,3,S,0,S,24,0.78268,0.025376,0.019861
18,28,9,3,0,0,1,,6,S,0,S,18,0.785911,0.018873,0.014832
18,29,1,4,0,0,1,,3,S,0,S,14,0.013049,0.77917,0.010168
18,30,1,3,0,0,1,,2,S,0,S,15,0.030161,0.762122,0.022986
18,31,5,8,0,0,0,,3,S,0,S,19,0.793831,0.016052,0.012742
18,32,5,4,0,0,1,,1,S,0,S,29,0.776758,0.032657,0.025367
18,33,9,1,0,0,1,,8,L,0,S,17,0.778803,0.02304,0.017944
18,34,7,8,0,0,0,,1,S,0,S,20,0.792114,0.019738,0.015635
18,35,9,2,0,0,1,,7,L,0,S,14,0.763263,0.024015,0.01833
18,36,8,1,0,0,1,,7,L,0,S,17,0.77402,0.026053,0.020165
18,37,3,2,0,0,1,,1,S,0,S,19,0.770155,0.029542,0.022752
18,38,3,9,0,0,1,,6,S,0,S,15,0.026447,0.765946,0.020257
18,39,4,6,0,0,1,,2,S,0,S,17,0.041507,0.754203,0.031305
18,40,7,2,0,0,1,,5,S,0,S,14,0.772795,0.019218,0.014852
18,41,2,6,0,0,1,,4,S,0,S,18,0.011606,0.797773,0.009259
18,42,9,7,0,0,1,,2,S,0,S,22,0.781142,0.022859,0.017857
18,43,2,9,0,0,1,,7,L,0,S,18,0.034632,0.768948,0.02663
18,44,5,1,0,0,1,,4,S,0,S,16,0.764981,0.033172,0.025376
18,45,3,8,0,0,1,,5,S,0,S,16,0.00473,0.798635,0.003778
18,46,9,6,0,0,1,,3,S,0,S,42,0.772746,0.034043,0.026306
18,47,7,1,0,0,1,,6,S,0,S,17,0.79505,0.012908,0.010262
18,48,6,1,0,0,1,,5,S,0,S,16,0.759809,0.035186,0.026735
18,49,5,7,0,0,0,,2,S,0,S,20,0.796407,0.011064,0.008812
18,50,7,5,0,0,1,,2,S,0,S,18,0.766928,0.035748,0.027416
18,51,3,6,0,0,1,,3,S,0,S,15,0.017592,0.777347,0.013675
18,52,4,2,0,0,1,,2,S,0,S,16,0.796197,0.004672,0.00372
18,53,6,2,0,0,1,,4,S,0,S,14,0.775579,0.014091,0.010929
18,54,7,6,0,0,1,,1,S,0,S,26,0.756631,0.04961,0.037536
18,55,3,1,0,0,0,,2,S,0,S,17,0.034312,0.763279,0.026189
18,56,6,4,0,0,1,,2,S,0,S,29,0.779552,0.028115,0.021917
18,57,6,5,0,0,1,,1,S,0,S,18,0.791971,0.01239,0.009813
18,58,1,2,0,0,1,,1,S,0,S,30,0.04861,0.751236,0.036517
18,59,4,8,0,0,1,,4,S,0,S,19,0.031047,0.772661,0.023989
18,60,8,6,0,0,0,,2,S,0,S,31,0.042978,0.76039,0.03268
18,61,4,3,0,0,0,,1,S,0,S,25,0.023429,0.785113,0.018395
18,62,5,9,0,0,0,,4,S,0,S,20,0.764022,0.039782,0.030394
18,63,1,5,0,0,1,,4,S,0,S,15,0.01995,0.773941,0.01544
18,64,3,7,0,0,1,,4,S,0,S,16,0.00102,0.798907,0.000815
18,65,4,9,0,0,1,,5,S,0,S,18,0.02613,0.775852,0.020273
18,66,1,8,0,0,1,,7,L,0,S,15,0.003246,0.797462,0.002589
18,67,6,3,0,0,1,,3,S,0,S,17,0.776225,0.024356,0.018906
18,68,8,9,0,0,0,,1,S,0,S,24,0.766666,0.037176,0.028502
18,69,8,3,0,0,1,,5,S,0,S,18,0.780202,0.022635,0.01766
18,70,7,4,0,0,0,,3,S,0,S,23,0.045804,0.760881,0.034852
18,71,8,2,0,0,1,,6,S,0,S,14,0.760536,0.025407,0.019323
18,72,7,9,0,0,0,,2,S,0,S,22,0.764528,0.0421,0.032186
19,1,9,2,0,0,1,,7,L,0,S,16,0.793868,0.009308,0.007389
19,2,8,1,0,0,1,,7,L,0,S,16,0.779411,0.019963,0.015559
19,3,7,8,0,0,0,,1,S,0,S,18,0.77726,0.026302,0.020443
19,4,6,1,0,0,1,,5,S,0,S,20,0.788286,0.017399,0.013716
19,5,4,9,0,0,1,,5,S,0,S,15,0.006182,0.793945,0.004908
19,6,6,3,0,0,1,,3,S,0,S,18,0.775101,0.023214,0.017993
19,7,8,3,0,0,1,,5,S,0,S,15,0.756867,0.032201,0.024372
19,8,4,3,0,0,0,,1,S,0,S,22,0.01855,0.788277,0.014622
19,9,9,7,0,0,1,,2,S,0,S,24,0.788769,0.018206,0.01436
19,10,8,6,0,0,1,,2,S,0,S,19,0.77713,0.023346,0.018143
19,11,7,3,0,0,1,,4,S,0,S,15,0.782677,0.01332,0.010425
19,12,6,5,0,0,1,,1,S,0,S,27,0.769913,0.035119,0.027038
19,13,4,2,0,0,0,,2,S,0,S,21,0.027893,0.778419,0.021712
19,14,3,1,0,0,0,,2,S,0,S,21,0.023336,0.785471,0.01833
19,15,9,1,0,0,1,,8,L,0,S,16,0.76281,0.034421,0.026257
19,16,8,2,0,0,1,,6,S,0,S,15,0.756716,0.034056,0.025771
19,17,7,1,0,0,1,,6,S,0,S,15,0.75988,0.033399,0.025379
19,18,1,7,0,0,1,,6,S,0,S,16,0.023799,0.771312,0.018357
19,19,9,3,0,0,1,,6,S,0,S,16,0.794238,0.007296,0.005795
19,20,5,8,0,0,1,,3,S,0,S,23,0.019305,0.791191,0.015274
19,21,5,1,0,0,1,,4,S,0,S,18,0.786819,0.019485,0.015332
19,22,5,4,0,0,1,,1,S,0,S,20,0.79214,0.016708,0.013235
19,23,9,4,0,0,1,,5,S,0,S,17,0.762017,0.036683,0.027953
19,24,4,5,0,0,1,,1,S,0,S,17,0.023972,0.779078,0.018676
19,25,6,7,0,0,1,,1,S,0,S,19,0.017297,0.78272,0.013539
19,26,7,6,0,0,1,,1,S,0,S,18,0.794254,0.009785,0.007772
19,27,6,9,0,0,1,,3,S,0,S,17,0.019397,0.780516,0.015139
19,28,5,3,0,0,1,,2,S,0,S,17,0.788783,0.013793,0.01088
19,29,8,5,0,0,1,,3,S,0,S,17,0.777701,0.024076,0.018724
19,30,3,2,0,0,0,,1,S,0,S,31,0.017348,0.794428,0.013782
19,31,4,6,0,0,1,,2,S,0,S,16,0.02242,0.773268,0.017337
19,32,2,1,0,0,1,,1,S,0,S,23,0.787996,0.022367,0.017625
19,33,2,3,0,0,0,,1,S,0,S,19,0.763704,0.036543,0.027908
19,34,7,9,0,0,0,,2,S,0,S,23,0.768924,0.036933,0.028399
19,35,9,6,0,0,1,,3,S,0,S,20,0.774391,0.027967,0.021657
19,36,4,8,0,0,1,,4,S,0,S,16,0.008141,0.79502,0.006472
19,37,1,6,0,0,1,,5,S,0,S,17,0.014696,0.785714,0.011547
19,38,6,8,0,0,1,,2,S,0,S,19,0.043536,0.753595,0.032809
19,39,1,3,0,0,0,,2,S,0,S,29,0.794523,0.014698,0.011678
19,40,3,8,0,0,1,,5,S,0,S,16,0.032629,0.764375,0.024941
19,41,6,2,0,0,1,,4,S,0,S,18,0.77053,0.028696,0.022111
19,42,3,4,0,0,1,,1,S,0,S,18,0.044055,0.754784,0.033252
19,43,1,5,0,0,1,,4,S,0,S,18,0.029817,0.773784,0.023072
19,44,2,4,0,0,1,,2,S,0,S,23,0.040162,0.764943,0.030721
19,45,7,4,0,0,1,,3,S,0,S,16,0.774998,0.023943,0.018556
19,46,8,9,0,0,1,,1,S,0,S,24,0.039431,0.764525,0.030146
19,47,4,1,0,0,0,,3,S,0,S,19,0.015467,0.792725,0.012261
19,48,9,8,0,0,1,,1,S,0,S,21,0.771032,0.034508,0.026607
19,49,3,7,0,0,1,,4,S,0,S,16,0.023009,0.77288,0.017783
19,50,2,8,0,0,1,,6,S,0,S,18,0.019294,0.786403,0.015173
19,51,3,6,0,0,1,,3,S,0,S,17,0.013765,0.787451,0.010839
19,52,3,5,0,0,1,,2,S,0,S,18,0.028594,0.775896,0.022186
19,53,2,7,0,0,1,,5,S,0,S,17,0.039213,0.755179,0.029613
19,54,7,2,0,0,1,,5,S,0,S,15,0.783036,0.014714,0.011521
19,55,2,5,0,0,1,,3,S,0,S,22,0.024554,0.785517,0.019287
19,56,5,9,0,0,1,,4,S,0,S,18,0.022047,0.78304,0.017263
19,57,5,7,0,0,1,,2,S,0,S,21,0.026001,0.777705,0.020221
19,58,9,5,0,0,1,,4,S,0,S,17,0.752258,0.045629,0.034324
19,59,8,7,0,0,1,,1,S,0,S,21,0.770316,0.030258,0.023308
19,60,8,4,0,0,1,,4,S,0,S,17,0.785104,0.016988,0.013337
19,61,4,7,0,0,1,,3,S,0,S,15,0.036829,0.75084,0.027653
19,62,5,6,0,0,1,,1,S,0,S,28,0.021249,0.785895,0.016699
19,63,1,2,0,0,1,,1,S,0,S,31,0.044185,0.760537,0.033604
19,64,1,9,0,0,1,,8,L,0,S,15,0.023782,0.771325,0.018343
19,65,2,6,0,0,1,,4,S,0,S,19,0.01138,0.794069,0.009037
19,66,2,9,0,0,1,,7,L,0,S,16,0.023755,0.775863,0.018431
19,67,5,2,0,0,1,,3,S,0,S,17,0.786705,0.017233,0.013557
19,68,1,4,0,0,1,,3,S,0,S,18,0.04538,0.752511,0.034149
19,69,3,9,0,0,1,,6,S,0,S,15,0.023156,0.772666,0.017892
19,70,6,4,0,0,1,,2,S,0,S,24,0.765997,0.036376,0.027864
19,71,7,5,0,0,1,,2,S,0,S,16,0.76957,0.029412,0.022635
19,72,1,8,0,0,1,,7,L,0,S,16,0.033447,0.76277,0.025512
20,1,1,5,0,0,1,,4,S,0,S,21,0.016409,0.791237,0.012984
20,2,4,2,0,0,1,,2,S,0,S,17,0.777061,0.022595,0.017558
20,3,2,9,0,0,1,,7,L,0,S,15,0.031956,0.756954,0.024189
20,4,3,5,0,0,1,,2,S,0,S,19,0.01902,0.783417,0.014901
20,5,9,7,0,0,1,,2,S,0,S,18,0.789121,0.015686,0.012378
20,6,3,8,0,0,1,,5,S,0,S,17,0.029761,0.768616,0.022875
20,7,5,1,0,0,1,,4,S,0,S,16,0.791738,0.011838,0.009372
20,8,3,2,0,0,0,,1,S,0,S,47,0.042065,0.760781,0.032002
20,9,2,4,0,0,1,,2,S,0,S,16,0.036651,0.752126,0.027566
20,10,8,3,0,0,1,,5,S,0,S,15,0.758307,0.032846,0.024907
20,11,8,4,0,0,1,,4,S,0,S,18,0.795399,0.008197,0.00652
20,12,2,8,0,0,1,,6,S,0,S,17,0.018517,0.781683,0.014474
20,13,6,8,0,0,0,,2,S,0,S,20,0.776524,0.027398,0.021275
20,14,7,2,0,0,1,,5,S,0,S,16,0.79529,0.009128,0.007259
20,15,1,7,0,0,1,,6,S,0,S,15,0.022631,0.772914,0.017492
20,16,1,2,0,0,0,,1,S,0,S,21,0.759373,0.043213,0.032815
20,17,1,3,0,0,1,,2,S,0,S,25,0.04658,0.757137,0.035267
20,18,4,8,0,0,0,,4,S,0,S,26,0.755469,0.046665,0.035254
20,19,6,9,0,0,1,,3,S,0,S,22,0.015319,0.792007,0.012133
20,20,9,1,0,0,1,,8,L,0,S,13,0.774094,0.011495,0.008898
20,21,6,4,0,0,1,,2,S,0,S,22,0.750086,0.046581,0.03494
20,22,4,6,0,0,1,,2,S,0,S,20,0.017669,0.785244,0.013874
20,23,9,3,0,0,1,,6,S,0,S,14,0.769997,0.020016,0.015412
20,24,7,9,0,0,1,,2,S,0,S,23,0.052824,0.750198,0.039629
20,25,4,7,0,0,1,,3,S,0,S,17,0.01789,0.783197,0.014011
20,26,4,5,0,0,0,,1,S,0,S,20,0.775941,0.026013,0.020184
20,27,3,9,0,0,1,,6,S,0,S,16,0.002444,0.799552,0.001954
20,28,6,3,0,0,1,,3,S,0,S,17,0.776924,0.022655,0.017601
20,29,7,6,0,0,1,,1,S,0,S,33,0.760822,0.043399,0.033019
20,30,2,3,0,0,1,,1,S,0,S,20,0.018819,0.785213,0.014777
20,31,1,4,0,0,1,,3,S,0,S,17,0.039517,0.755112,0.02984
20,32,8,9,0,0,0,,1,S,0,S,20,0.776492,0.027465,0.021326
20,33,4,1,0,0,1,,3,S,0,S,15,0.770644,0.022166,0.017082
20,34,4,9,0,0,1,,5,S,0,S,19,0.016253,0.788405,0.012814
20,35,2,6,0,0,1,,4,S,0,S,16,0.008656,0.788211,0.006823
20,36,3,6,0,0,1,,3,S,0,S,16,0.015681,0.78038,0.012237
20,37,3,4,0,0,1,,1,S,0,S,17,0.010055,0.790032,0.007944
20,38,9,8,0,0,1,,1,S,0,S,15,0.780243,0.016462,0.012844
20,39,8,2,0,0,1,,6,S,0,S,15,0.787123,0.010385,0.008174
20,40,1,8,0,0,1,,7,L,0,S,18,0.030634,0.772221,0.023656
20,41,5,4,0,0,0,,1,S,0,S,19,0.027814,0.775836,0.021579
20,42,7,1,0,0,1,,6,S,0,S,14,0.760857,0.028773,0.021892
20,43,7,8,0,0,0,,1,S,0,S,19,0.782095,0.02546,0.019912
20,44,5,2,0,0,1,,3,S,0,S,18,0.757774,0.04313,0.032682
20,45,1,9,0,0,1,,8,L,0,S,16,0.02181,0.777364,0.016955
20,46,5,6,0,0,1,,1,S,0,S,17,0.042272,0.753881,0.031868
20,47,5,3,0,0,1,,2,S,0,S,21,0.772638,0.034437,0.026607
20,48,5,8,0,0,1,,3,S,0,S,20,0.044726,0.759599,0.033974
20,49,5,7,0,0,1,,2,S,0,S,16,0.011045,0.793368,0.008763
20,50,9,6,0,0,1,,3,S,0,S,16,0.774104,0.021562,0.016691
20,51,1,6,0,0,1,,5,S,0,S,16,0.037637,0.754745,0.028406
20,52,7,5,0,0,1,,2,S,0,S,17,0.76145,0.036929,0.02812
20,53,4,3,0,0,1,,1,S,0,S,18,0.760191,0.037633,0.028608
20,54,6,2,0,0,1,,4,S,0,S,16,0.773563,0.02306,0.017839
20,55,8,7,0,0,0,,1,S,0,S,27,0.038295,0.766451,0.029351
20,56,9,4,0,0,1,,5,S,0,S,15,0.756195,0.032467,0.024551
20,57,2,5,0,0,1,,3,S,0,S,18,0.036861,0.758087,0.027944
20,58,7,4,0,0,1,,3,S,0,S,21,0.791048,0.016971,0.013425
20,59,6,7,0,0,1,,1,S,0,S,18,0.030748,0.768899,0.023642
20,60,6,1,0,0,1,,5,S,0,S,15,0.796656,0.001834,0.001461
20,61,2,1,0,0,1,,1,S,0,S,18,0.768459,0.029555,0.022712
20,62,8,5,0,0,1,,3,S,0,S,16,0.779975,0.017678,0.013788
20,63,3,1,0,0,1,,2,S,0,S,18,0.791733,0.012058,0.009547
20,64,9,5,0,0,1,,4,S,0,S,14,0.750872,0.033542,0.025185
20,65,9,2,0,0,1,,7,L,0,S,14,0.789444,0.004989,0.003939
20,66,3,7,0,0,1,,4,S,0,S,15,0.008133,0.789158,0.006418
20,67,7,3,0,0,1,,4,S,0,S,16,0.754497,0.041312,0.03117
20,68,8,1,0,0,1,,7,L,0,S,14,0.787794,0.005815,0.004581
20,69,2,7,0,0,1,,5,S,0,S,15,0.003306,0.794259,0.002626
20,70,6,5,0,0,1,,1,S,0,S,18,0.776291,0.023507,0.018248
20,71,8,6,0,0,1,,2,S,0,S,19,0.770498,0.029286,0.022565
20,72,5,9,0,0,1,,4,S,0,S,17,0.02072,0.783606,0.016236
21,1,7,2,0,0,1,,5,S,0,S,16,0.774262,0.025887,0.020044
21,2,7,6,0,0,1,,1,S,0,S,18,0.750011,0.048746,0.03656
21,3,9,6,0,0,1,,3,S,0,S,18,0.79296,0.013762,0.010913
21,4,3,5,0,0,0,,2,S,0,S,21,0.782717,0.024594,0.01925
21,5,4,2,0,0,1,,2,S,0,S,15,0.755253,0.035838,0.027067
21,6,4,5,0,0,0,,1,S,0,S,17,0.767095,0.031957,0.024514
21,7,8,1,0,0,1,,7,L,0,S,14,0.782969,0.009816,0.007686
21,8,9,4,0,0,1,,5,S,0,S,20,0.784131,0.024309,0.019061
21,9,3,2,0,0,1,,1,S,0,S,17,0.780653,0.021602,0.016863
21,10,1,3,0,0,1,,2,S,0,S,20,0.040754,0.758826,0.030925
21,11,1,6,0,0,1,,5,S,0,S,19,0.03352,0.76883,0.025771
21,12,8,2,0,0,1,,6,S,0,S,14,0.793611,0.001699,0.001348
21,13,3,8,0,0,1,,5,S,0,S,20,0.012134,0.794588,0.009641
21,14,8,5,0,0,1,,3,S,0,S,14,0.751932,0.033806,0.02542
21,15,9,1,0,0,1,,8,L,0,S,16,0.772326,0.026488,0.020458
21,16,2,9,0,0,1,,7,L,0,S,14,0.000979,0.796149,0.00078
21,17,9,5,0,0,1,,4,S,0,S,18,0.792926,0.014214,0.011271
21,18,5,4,0,0,0,,1,S,0,S,22,0.017526,0.793362,0.013905
21,19,7,1,0,0,1,,6,S,0,S,17,0.797421,0.009663,0.007705
21,20,1,8,0,0,1,,7,L,0,S,16,0.030131,0.76431,0.023029
21,21,7,9,0,0,1,,2,S,0,S,19,0.019661,0.789864,0.01553
21,22,2,7,0,0,1,,5,S,0,S,14,0.000249,0.796229,0.000198
21,23,2,5,0,0,1,,3,S,0,S,15,0.023589,0.770945,0.018186
21,24,5,9,0,0,1,,4,S,0,S,17,0.022689,0.780563,0.01771
21,25,1,7,0,0,1,,6,S,0,S,15,0.031029,0.762037,0.023646
21,26,3,4,0,0,1,,1,S,0,S,25,0.038593,0.768226,0.029648
21,27,5,7,0,0,1,,2,S,0,S,17,0.01966,0.7834,0.015402
21,28,8,4,0,0,1,,4,S,0,S,15,0.776313,0.019653,0.015257
21,29,4,9,0,0,1,,5,S,0,S,22,0.03411,0.772133,0.026337
21,30,2,1,0,0,0,,1,S,0,S,16,0.027398,0.769687,0.021088
21,31,2,4,0,0,1,,2,S,0,S,14,0.035789,0.750976,0.026877
21,32,4,8,0,0,0,,4,S,0,S,23,0.761359,0.039866,0.030353
21,33,6,8,0,0,1,,2,S,0,S,19,0.015329,0.788605,0.012088
21,34,6,9,0,0,1,,3,S,0,S,17,0.024671,0.777051,0.019171
21,35,3,7,0,0,1,,4,S,0,S,17,0.039955,0.757559,0.030269
21,36,8,7,0,0,1,,1,S,0,S,17,0.788595,0.014373,0.011334
21,37,6,7,0,0,1,,1,S,0,S,17,0.021612,0.779929,0.016856
21,38,7,5,0,0,1,,2,S,0,S,19,0.797351,0.012759,0.010174
21,39,1,2,0,0,0,,1,S,0,S,23,0.794416,0.015971,0.012688
21,40,6,1,0,0,1,,5,S,0,S,18,0.761423,0.037713,0.028716
21,41,4,7,0,0,1,,3,S,0,S,22,0.017589,0.791624,0.013924
21,42,6,3,0,0,1,,3,S,0,S,21,0.773755,0.0289,0.022361
21,43,2,8,0,0,1,,6,S,0,S,14,0.018928,0.769479,0.014564
21,44,1,9,0,0,1,,8,L,0,S,15,0.032684,0.760869,0.024868
21,45,4,1,0,0,1,,3,S,0,S,16,0.785381,0.015169,0.011914
21,46,5,8,0,0,1,,3,S,0,S,19,0.012443,0.79325,0.00987
21,47,9,8,0,0,1,,1,S,0,S,30,0.750765,0.050561,0.03796
21,48,3,1,0,0,1,,2,S,0,S,18,0.794461,0.012156,0.009658
21,49,2,6,0,0,1,,4,S,0,S,15,0.024437,0.769344,0.018801
21,50,5,6,0,0,0,,1,S,0,S,23,0.770708,0.034839,0.026851
21,51,7,4,0,0,1,,3,S,0,S,22,0.77155,0.03661,0.028246
21,52,8,6,0,0,1,,2,S,0,S,14,0.751466,0.033774,0.02538
21,53,1,4,0,0,1,,3,S,0,S,17,0.033365,0.766806,0.025585
21,54,7,8,0,0,1,,1,S,0,S,23,0.018762,0.790293,0.014827
21,55,9,3,0,0,1,,6,S,0,S,17,0.765862,0.032006,0.024512
21,56,5,2,0,0,1,,3,S,0,S,17,0.755041,0.041931,0.031659
21,57,5,3,0,0,1,,2,S,0,S,21,0.77291,0.03044,0.023527
21,58,6,2,0,0,1,,4,S,0,S,17,0.754085,0.041858,0.031565
21,59,9,2,0,0,1,,7,L,0,S,16,0.794301,0.009256,0.007352
21,60,3,9,0,0,1,,6,S,0,S,17,0.043755,0.753748,0.03298
21,61,6,5,0,0,1,,1,S,0,S,23,0.769952,0.035028,0.02697
21,62,4,3,0,0,1,,1,S,0,S,17,0.784478,0.016237,0.012738
21,63,4,6,0,0,0,,2,S,0,S,17,0.767006,0.0316,0.024237
21,64,8,9,0,0,0,,1,S,0,S,17,0.795386,0.009747,0.007752
21,65,6,4,0,0,0,,2,S,0,S,22,0.02344,0.784973,0.0184
21,66,2,3,0,0,1,,1,S,0,S,15,0.035921,0.752594,0.027034
21,67,8,3,0,0,1,,5,S,0,S,14,0.757517,0.027706,0.020988
21,68,5,1,0,0,1,,4,S,0,S,18,0.76214,0.037982,0.028947
21,69,1,5,0,0,1,,4,S,0,S,19,0.031155,0.772359,0.024062
21,70,7,3,0,0,1,,4,S,0,S,18,0.778777,0.024335,0.018952
21,71,3,6,0,0,0,,3,S,0,S,21,0.784531,0.022687,0.017798
21,72,9,7,0,0,0,,2,S,0,S,20,0.031193,0.774578,0.024161
22,1,5,9,0,0,1,,4,S,0,S,16,0.009824,0.788806,0.00775
22,2,6,7,0,0,1,,1,S,0,S,16,0.03499,0.761213,0.026635
22,3,1,7,0,0,1,,6,S,0,S,15,0.026362,0.767105,0.020222
22,4,3,7,0,0,1,,4,S,0,S,15,0.02566,0.768433,0.019718
22,5,5,1,0,0,1,,4,S,0,S,16,0.780997,0.01886,0.01473
22,6,9,3,0,0,1,,6,S,0,S,15,0.795461,0.005585,0.004443
22,7,1,2,0,0,1,,1,S,0,S,25,0.019374,0.790364,0.015313
22,8,6,1,0,0,1,,5,S,0,S,17,0.775738,0.026007,0.020175
22,9,7,2,0,0,1,,5,S,0,S,13,0.751261,0.030226,0.022707
22,10,8,1,0,0,1,,7,L,0,S,16,0.792939,0.011068,0.008776
22,11,5,7,0,0,1,,2,S,0,S,18,0.016031,0.7892,0.012652
22,12,3,6,0,0,1,,3,S,0,S,16,0.020766,0.776189,0.016119
22,13,2,3,0,0,1,,1,S,0,S,19,0.044479,0.758966,0.033758
22,14,2,9,0,0,1,,7,L,0,S,14,0.017592,0.772449,0.013589
22,15,8,3,0,0,1,,5,S,0,S,18,0.772472,0.032336,0.024979
22,16,4,7,0,0,1,,3,S,0,S,16,0.021311,0.779598,0.016614
22,17,5,4,0,0,1,,1,S,0,S,18,0.793787,0.010223,0.008115
22,18,9,5,0,0,1,,4,S,0,S,15,0.774751,0.018391,0.014249
22,19,6,9,0,0,1,,3,S,0,S,15,0.015533,0.778857,0.012098
22,20,9,6,0,0,1,,3,S,0,S,17,0.784061,0.016644,0.01305
22,21,3,9,0,0,1,,6,S,0,S,14,0.021886,0.764902,0.016741
22,22,2,6,0,0,1,,4,S,0,S,16,0.01342,0.787583,0.010569
22,23,4,3,0,0,1,,1,S,0,S,27,0.75657,0.0499,0.037753
22,24,8,6,0,0,0,,2,S,0,S,21,0.013424,0.795778,0.010682
22,25,7,9,0,0,0,,2,S,0,S,18,0.76509,0.032697,0.025016
22,26,4,5,0,0,1,,1,S,0,S,24,0.039675,0.763613,0.030296
22,27,5,3,0,0,1,,2,S,0,S,19,0.797134,0.012129,0.009669
22,28,8,2,0,0,1,,6,S,0,S,17,0.775766,0.027047,0.020982
22,29,9,7,0,0,1,,2,S,0,S,18,0.768864,0.032204,0.02476
22,30,8,4,0,0,1,,4,S,0,S,17,0.763683,0.034148,0.026078
22,31,5,6,0,0,1,,1,S,0,S,20,0.029129,0.773074,0.022519
22,32,7,3,0,0,1,,4,S,0,S,14,0.792692,0.004379,0.003471
22,33,2,1,0,0,1,,1,S,0,S,20,0.758395,0.044847,0.034012
22,34,4,2,0,0,1,,2,S,0,S,21,0.796125,0.015248,0.012139
22,35,7,4,0,0,1,,3,S,0,S,14,0.798562,0,0
22,36,7,8,0,0,0,,1,S,0,S,19,0.770554,0.030198,0.023269
22,37,7,6,0,0,1,,1,S,0,S,15,0.770663,0.022533,0.017365
22,38,5,2,0,0,1,,3,S,0,S,17,0.758691,0.038805,0.029441
22,39,3,8,0,0,1,,5,S,0,S,14,0.013666,0.77627,0.010609
22,40,1,9,0,0,1,,8,L,0,S,14,0.022421,0.76379,0.017125
22,41,3,1,0,0,1,,2,S,0,S,20,0.779822,0.025967,0.02025
22,42,9,2,0,0,1,,7,L,0,S,14,0.761158,0.02753,0.020954
22,43,2,5,0,0,1,,3,S,0,S,19,0.01272,0.79399,0.010099
22,44,2,8,0,0,1,,6,S,0,S,14,0.009622,0.783435,0.007538
22,45,3,5,0,0,1,,2,S,0,S,19,0.029462,0.77082,0.02271
22,46,6,2,0,0,1,,4,S,0,S,19,0.753866,0.046521,0.035071
22,47,6,3,0,0,1,,3,S,0,S,23,0.794167,0.01789,0.014208
22,48,4,6,0,0,1,,2,S,0,S,17,0.027976,0.77169,0.021589
22,49,6,5,0,0,1,,1,S,0,S,31,0.763799,0.039416,0.030106
22,50,1,4,0,0,1,,3,S,0,S,24,0.029342,0.774419,0.022723
22,51,1,3,0,0,1,,2,S,0,S,20,0.032329,0.772779,0.024983
22,52,5,8,0,0,1,,3,S,0,S,15,0.032394,0.756824,0.024516
22,53,2,7,0,0,1,,5,S,0,S,15,0.019816,0.77793,0.015415
22,54,3,4,0,0,1,,1,S,0,S,24,0.023199,0.782551,0.018155
22,55,6,4,0,0,1,,2,S,0,S,20,0.781634,0.022821,0.017838
22,56,8,9,0,0,1,,1,S,0,S,16,0.013621,0.786055,0.010706
22,57,4,9,0,0,1,,5,S,0,S,15,0.006933,0.790836,0.005483
22,58,1,6,0,0,1,,5,S,0,S,16,0.02164,0.774638,0.016764
22,59,7,1,0,0,1,,6,S,0,S,13,0.774243,0.012664,0.009805
22,60,2,4,0,0,1,,2,S,0,S,22,0.042522,0.759829,0.03231
22,61,9,1,0,0,1,,8,L,0,S,14,0.790954,0.004442,0.003513
22,62,4,1,0,0,1,,3,S,0,S,17,0.754627,0.043472,0.032805
22,63,9,8,0,0,0,,1,S,0,S,22,0.03098,0.771665,0.023906
22,64,3,2,0,0,0,,1,S,0,S,24,0.048302,0.75454,0.036445
22,65,8,5,0,0,1,,3,S,0,S,19,0.76561,0.035308,0.027032
22,66,9,4,0,0,1,,5,S,0,S,14,0.753811,0.030952,0.023332
22,67,7,5,0,0,1,,2,S,0,S,14,0.776382,0.013788,0.010705
22,68,4,8,0,0,1,,4,S,0,S,14,0.033173,0.752576,0.024965
22,69,1,5,0,0,1,,4,S,0,S,19,0.031334,0.767992,0.024064
22,70,1,8,0,0,1,,7,L,0,S,14,0.014175,0.775203,0.010988
22,71,6,8,0,0,1,,2,S,0,S,15,0.005029,0.792999,0.003988
22,72,8,7,0,0,0,,1,S,0,S,18,0.025106,0.779997,0.019582
23,1,7,2,0,0,1,,5,S,0,S,18,0.780076,0.019645,0.015325
23,2,8,6,0,0,1,,2,S,0,S,20,0.761013,0.037784,0.028754
23,3,1,4,0,0,1,,3,S,0,S,19,0.023961,0.782936,0.01876
23,4,9,4,0,0,1,,5,S,0,S,14,0.76023,0.026529,0.020168
23,5,3,1,0,0,1,,2,S,0,S,14,0.763181,0.025074,0.019136
23,6,4,2,0,0,1,,2,S,0,S,18,0.775164,0.023769,0.018425
23,7,7,9,0,0,1,,2,S,0,S,14,0.029749,0.754196,0.022437
23,8,4,8,0,0,1,,4,S,0,S,21,0.017636,0.787807,0.013893
23,9,9,2,0,0,1,,7,L,0,S,14,0.751378,0.031807,0.023899
23,10,2,1,0,0,1,,1,S,0,S,15,0.776077,0.020258,0.015722
23,11,6,1,0,0,1,,5,S,0,S,14,0.772146,0.019597,0.015131
23,12,6,9,0,0,1,,3,S,0,S,15,0.005524,0.793857,0.004385
23,13,8,7,0,0,1,,1,S,0,S,21,0.753571,0.042138,0.031754
23,14,2,4,0,0,0,,2,S,0,S,19,0.760145,0.041169,0.031295
23,15,1,9,0,0,1,,8,L,0,S,13,0.008139,0.78002,0.006348
23,16,8,1,0,0,1,,7,L,0,S,14,0.80191,0,0
23,17,7,5,0,0,1,,2,S,0,S,20,0.783479,0.020184,0.015814
23,18,4,5,0,0,0,,1,S,0,S,20,0.773931,0.028049,0.021708
23,19,4,7,0,0,1,,3,S,0,S,18,0.036205,0.758794,0.027472
23,20,6,3,0,0,1,,3,S,0,S,19,0.762843,0.04087,0.031177
23,21,3,8,0,0,1,,5,S,0,S,24,0.024786,0.781784,0.019377
23,22,1,3,0,0,1,,2,S,0,S,16,0.031881,0.768159,0.024489
23,23,5,9,0,0,1,,4,S,0,S,14,0,0.799432,0
23,24,8,2,0,0,1,,6,S,0,S,15,0.756689,0.03057,0.023132
23,25,1,8,0,0,1,,7,L,0,S,15,0.027879,0.766845,0.021379
23,26,3,6,0,0,1,,3,S,0,S,20,0.028575,0.775322,0.022155
23,27,3,7,0,0,1,,4,S,0,S,19,0.041753,0.754766,0.031514
23,28,6,8,0,0,1,,2,S,0,S,27,0.052016,0.750632,0.039045
23,29,2,9,0,0,1,,7,L,0,S,14,0.009118,0.784192,0.00715
23,30,2,5,0,0,0,,3,S,0,S,28,0.782957,0.025937,0.020307
23,31,9,6,0,0,1,,3,S,0,S,17,0.765793,0.031272,0.023948
23,32,6,5,0,0,1,,1,S,0,S,18,0.773374,0.029058,0.022473
23,33,5,8,0,0,1,,3,S,0,S,17,0.015331,0.785918,0.012049
23,34,8,5,0,0,1,,3,S,0,S,16,0.773849,0.021209,0.016412
23,35,6,4,0,0,1,,2,S,0,S,16,0.752445,0.042007,0.031608
23,36,5,3,0,0,0,,2,S,0,S,19,0.018912,0.787584,0.014895
23,37,5,1,0,0,1,,4,S,0,S,16,0.786317,0.013336,0.010486
23,38,7,6,0,0,0,,1,S,0,S,19,0.021485,0.781349,0.016788
23,39,9,5,0,0,1,,4,S,0,S,15,0.779626,0.014915,0.011628
23,40,7,3,0,0,1,,4,S,0,S,22,0.760284,0.042118,0.032022
23,41,4,6,0,0,1,,2,S,0,S,19,0.015174,0.78956,0.011981
23,42,5,2,0,0,1,,3,S,0,S,30,0.776406,0.027973,0.021718
23,43,9,3,0,0,1,,6,S,0,S,15,0.764419,0.028644,0.021896
23,44,7,8,0,0,1,,1,S,0,S,21,0.029131,0.77313,0.022522
23,45,2,7,0,0,1,,5,S,0,S,17,0.0159,0.785611,0.012491
23,46,1,7,0,0,1,,6,S,0,S,15,0.006292,0.792639,0.004988
23,47,1,2,0,0,1,,1,S,0,S,18,0.046246,0.751086,0.034735
23,48,2,8,0,0,1,,6,S,0,S,18,0.028792,0.773437,0.022269
23,49,8,3,0,0,1,,5,S,0,S,17,0.798697,0.005722,0.00457
23,50,4,9,0,0,1,,5,S,0,S,14,0.02814,0.756581,0.02129
23,51,2,3,0,0,1,,1,S,0,S,22,0.038202,0.768816,0.02937
23,52,5,6,0,0,1,,1,S,0,S,16,0.023614,0.773242,0.018259
23,53,8,9,0,0,1,,1,S,0,S,16,0.022062,0.771924,0.01703
23,54,9,1,0,0,1,,8,L,0,S,13,0.775776,0.00964,0.007478
23,55,6,2,0,0,1,,4,S,0,S,17,0.785999,0.016247,0.01277
23,56,3,9,0,0,1,,6,S,0,S,15,0.002037,0.796482,0.001623
23,57,9,7,0,0,1,,2,S,0,S,18,0.79049,0.011292,0.008926
23,58,2,6,0,0,1,,4,S,0,S,17,0.024729,0.777032,0.019215
23,59,9,8,0,0,1,,1,S,0,S,16,0.754656,0.037259,0.028117
23,60,4,1,0,0,1,,3,S,0,S,15,0.798523,0.000511,0.000408
23,61,4,3,0,0,1,,1,S,0,S,23,0.783555,0.024133,0.01891
23,62,5,4,0,0,1,,1,S,0,S,25,0.787643,0.020253,0.015952
23,63,8,4,0,0,1,,4,S,0,S,15,0.767629,0.023673,0.018172
23,64,3,4,0,0,0,,1,S,0,S,17,0.784647,0.017363,0.013624
23,65,7,4,0,0,1,,3,S,0,S,17,0.751981,0.041774,0.031413
23,66,1,5,0,0,1,,4,S,0,S,17,0.024454,0.777925,0.019023
23,67,6,7,0,0,1,,1,S,0,S,20,0.027363,0.776227,0.02124
23,68,7,1,0,0,1,,6,S,0,S,15,0.799903,0,0
23,69,3,5,0,0,0,,2,S,0,S,19,0.79429,0.011984,0.009519
23,70,1,6,0,0,1,,5,S,0,S,15,0.010032,0.790247,0.007928
23,71,3,2,0,0,1,,1,S,0,S,17,0.767768,0.029047,0.022302
23,72,5,7,0,0,1,,2,S,0,S,16,0.017569,0.778423,0.013676
24,1,6,4,0,0,1,,2,S,0,S,16,0.751038,0.039625,0.02976
24,2,2,5,0,0,1,,3,S,0,S,15,0.032626,0.762327,0.024871
24,3,8,2,0,0,1,,6,S,0,S,15,0.798024,0.001224,0.000977
24,4,5,3,0,0,1,,2,S,0,S,29,0.792382,0.014999,0.011885
24,5,9,6,0,0,1,,3,S,0,S,14,0.768857,0.020162,0.015501
24,6,6,9,0,0,1,,3,S,0,S,21,0.017523,0.790316,0.013849
24,7,8,7,0,0,1,,1,S,0,S,17,0.759251,0.038686,0.029372
24,8,3,5,0,0,1,,2,S,0,S,16,0.010007,0.79467,0.007952
24,9,7,3,0,0,1,,4,S,0,S,16,0.752883,0.038553,0.029026
24,10,2,3,0,0,1,,1,S,0,S,17,0.01423,0.790644,0.011251
24,11,1,8,0,0,1,,7,L,0,S,15,0.011176,0.789094,0.008819
24,12,1,4,0,0,1,,3,S,0,S,20,0.020625,0.786085,0.016213
24,13,1,5,0,0,1,,4,S,0,S,15,0.017355,0.780833,0.013551
24,14,7,8,0,0,0,,1,S,0,S,19,0.773714,0.029163,0.022564
24,15,7,4,0,0,1,,3,S,0,S,15,0.787443,0.008593,0.006766
24,16,5,9,0,0,1,,4,S,0,S,19,0.010821,0.796054,0.008614
24,17,2,6,0,0,1,,4,S,0,S,26,0.038742,0.769267,0.029803
24,18,6,5,0,0,0,,1,S,0,S,22,0.015752,0.792465,0.012483
24,19,2,9,0,0,1,,7,L,0,S,15,0.026666,0.770578,0.020548
24,20,3,2,0,0,1,,1,S,0,S,24,0.763844,0.040939,0.031271
24,21,4,6,0,0,0,,2,S,0,S,29,0.784616,0.025008,0.019621
24,22,2,4,0,0,1,,2,S,0,S,22,0.046879,0.755997,0.03544
24,23,6,7,0,0,0,,1,S,0,S,34,0.756789,0.046174,0.034944
24,24,5,2,0,0,1,,3,S,0,S,17,0.774549,0.022797,0.017658
24,25,7,1,0,0,1,,6,S,0,S,13,0.76198,0.018881,0.014387
24,26,1,2,0,0,1,,1,S,0,S,21,0.029174,0.776084,0.022642
24,27,4,7,0,0,1,,3,S,0,S,16,0.026396,0.772639,0.020394
24,28,1,7,0,0,1,,6,S,0,S,15,0.034977,0.758544,0.026532
24,29,7,6,0,0,1,,1,S,0,S,15,0.799348,0.000405,0.000324
24,30,9,1,0,0,1,,8,L,0,S,13,0.775276,0.008731,0.006769
24,31,2,8,0,0,1,,6,S,0,S,15,0.025531,0.771793,0.019705
24,32,4,5,0,0,1,,1,S,0,S,16,0.004676,0.799864,0.00374
24,33,9,7,0,0,1,,2,S,0,S,16,0.757146,0.036734,0.027813
24,34,3,6,0,0,0,,3,S,0,S,24,0.77233,0.035635,0.027522
24,35,4,2,0,0,1,,2,S,0,S,29,0.76854,0.036437,0.028003
24,36,3,9,0,0,1,,6,S,0,S,15,0.04001,0.753224,0.030136
24,37,2,1,0,0,1,,1,S,0,S,16,0.763196,0.032805,0.025037
24,38,1,9,0,0,1,,8,L,0,S,15,0.012143,0.788091,0.009569
24,39,4,3,0,0,0,,1,S,0,S,17,0.027307,0.772255,0.021088
24,40,4,1,0,0,1,,3,S,0,S,16,0.770468,0.025638,0.019753
24,41,8,3,0,0,1,,5,S,0,S,16,0.75469,0.038272,0.028884
24,42,3,1,0,0,1,,2,S,0,S,16,0.78337,0.016758,0.013128
24,43,9,8,0,0,1,,1,S,0,S,17,0.752278,0.042925,0.032292
24,44,6,3,0,0,1,,3,S,0,S,21,0.784004,0.020534,0.016099
24,45,5,6,0,0,0,,1,S,0,S,17,0.778776,0.020835,0.016226
24,46,8,5,0,0,1,,3,S,0,S,18,0.751996,0.045915,0.034528
24,47,5,7,0,0,1,,2,S,0,S,21,0.035544,0.766796,0.027255
24,48,4,8,0,0,1,,4,S,0,S,15,0.033526,0.759723,0.025471
24,49,6,1,0,0,1,,5,S,0,S,14,0.770625,0.017104,0.013181
24,50,6,8,0,0,1,,2,S,0,S,20,0.04736,0.751772,0.035604
24,51,3,7,0,0,1,,4,S,0,S,16,0.033223,0.765562,0.025434
24,52,5,8,0,0,1,,3,S,0,S,18,0.043708,0.75282,0.032904
24,53,7,2,0,0,1,,5,S,0,S,15,0.796102,0.001706,0.001358
24,54,2,7,0,0,1,,5,S,0,S,16,0.016398,0.787147,0.012907
24,55,4,9,0,0,1,,5,S,0,S,15,0.034741,0.758403,0.026348
24,56,8,4,0,0,1,,4,S,0,S,15,0.78936,0.008132,0.006419
24,57,3,8,0,0,1,,5,S,0,S,15,0.038714,0.754645,0.029215
24,58,6,2,0,0,1,,4,S,0,S,16,0.766529,0.027403,0.021006
24,59,5,4,0,0,1,,1,S,0,S,17,0.754273,0.038859,0.029311
24,60,3,4,0,0,1,,1,S,0,S,31,0.049678,0.754149,0.037465
24,61,1,6,0,0,1,,5,S,0,S,21,0.027008,0.780608,0.021083
24,62,8,9,0,0,0,,1,S,0,S,19,0.780802,0.024891,0.019435
24,63,7,9,0,0,0,,2,S,0,S,19,0.779824,0.0245,0.019105
24,64,8,6,0,0,1,,2,S,0,S,15,0.801236,0,0
24,65,9,4,0,0,1,,5,S,0,S,14,0.758117,0.027302,0.020698
24,66,5,1,0,0,1,,4,S,0,S,14,0.750991,0.031651,0.023769
24,67,8,1,0,0,1,,7,L,0,S,13,0.763728,0.018515,0.014141
24,68,7,5,0,0,1,,2,S,0,S,18,0.750854,0.045628,0.03426
24,69,9,3,0,0,1,,6,S,0,S,16,0.789744,0.00958,0.007566
24,70,1,3,0,0,1,,2,S,0,S,16,0.027274,0.770241,0.021008
24,71,9,5,0,0,1,,4,S,0,S,17,0.768038,0.030218,0.023209
24,72,9,2,0,0,1,,7,L,0,S,14,0.76579,0.021287,0.016302
25,1,3,2,0,0,1,,1,S,0,S,20,0.765862,0.038254,0.029297
25,2,2,9,0,0,1,,7,L,0,S,17,0.035527,0.764927,0.027176
25,3,8,3,0,0,1,,5,S,0,S,18,0.763997,0.034352,0.026245
25,4,2,8,0,0,1,,6,S,0,S,14,0.02769,0.762576,0.021115
25,5,9,4,0,0,1,,5,S,0,S,17,0.75257,0.041549,0.031269
25,6,8,5,0,0,1,,3,S,0,S,22,0.794996,0.016137,0.012829
25,7,2,4,0,0,1,,2,S,0,S,16,0.017377,0.785426,0.013649
25,8,1,8,0,0,1,,7,L,0,S,14,0.006068,0.78912,0.004788
25,9,6,8,0,0,1,,2,S,0,S,16,0.028194,0.767804,0.021647
25,10,5,8,0,0,1,,3,S,0,S,17,0.031598,0.765256,0.02418
25,11,9,5,0,0,1,,4,S,0,S,15,0.755504,0.035576,0.026878
25,12,9,6,0,0,1,,3,S,0,S,16,0.785981,0.014748,0.011591
25,13,4,1,0,0,1,,3,S,0,S,18,0.765777,0.036402,0.027876
25,14,3,8,0,0,1,,5,S,0,S,15,0.000868,0.799832,0.000694
25,15,8,2,0,0,1,,6,S,0,S,17,0.791386,0.013285,0.010513
25,16,6,2,0,0,1,,4,S,0,S,16,0.765658,0.031387,0.024032
25,17,4,5,0,0,1,,1,S,0,S,23,0.049416,0.75572,0.037345
25,18,5,7,0,0,0,,2,S,0,S,21,0.790287,0.014108,0.011149
25,19,3,7,0,0,1,,4,S,0,S,17,0.041544,0.751982,0.03124
25,20,3,1,0,0,1,,2,S,0,S,21,0.791891,0.017968,0.014229
25,21,8,9,0,0,1,,1,S,0,S,30,0.024567,0.783585,0.01925
25,22,1,4,0,0,1,,3,S,0,S,15,0.018288,0.778978,0.014246
25,23,1,3,0,0,1,,2,S,0,S,18,0.038704,0.760222,0.029424
25,24,4,8,0,0,1,,4,S,0,S,15,0.020455,0.775354,0.01586
25,25,7,4,0,0,0,,3,S,0,S,20,0.02826,0.778113,0.02199
25,26,9,3,0,0,1,,6,S,0,S,15,0.786403,0.008794,0.006916
25,27,7,1,0,0,1,,6,S,0,S,16,0.757277,0.039251,0.029724
25,28,9,2,0,0,1,,7,L,0,S,14,0.766092,0.022785,0.017456
25,29,5,1,0,0,1,,4,S,0,S,16,0.797027,0.005775,0.004603
25,30,2,3,0,0,1,,1,S,0,S,23,0.025292,0.783634,0.01982
25,31,8,7,0,0,0,,1,S,0,S,23,0.03561,0.765587,0.027263
25,32,4,9,0,0,1,,5,S,0,S,20,0.027106,0.778739,0.021108
25,33,5,2,0,0,1,,3,S,0,S,15,0.751488,0.038566,0.028982
25,34,3,6,0,0,1,,3,S,0,S,18,0.033313,0.770121,0.025655
25,35,7,6,0,0,1,,1,S,0,S,23,0.792924,0.019788,0.015691
25,36,4,3,0,0,1,,1,S,0,S,21,0.785625,0.02127,0.01671
25,37,6,9,0,0,0,,3,S,0,S,23,0.757214,0.044711,0.033856
25,38,1,2,0,0,1,,1,S,0,S,21,0.033215,0.773937,0.025706
25,39,3,4,0,0,1,,1,S,0,S,16,0.033343,0.762789,0.025434
25,40,7,9,0,0,0,,2,S,0,S,25,0.795217,0.016253,0.012925
25,41,9,8,0,0,0,,1,S,0,S,26,0.024647,0.780866,0.019246
25,42,3,5,0,0,1,,2,S,0,S,19,0.039907,0.763473,0.030468
25,43,9,1,0,0,1,,8,L,0,S,14,0.763066,0.024998,0.019075
25,44,5,9,0,0,0,,4,S,0,S,19,0.759596,0.039264,0.029825
25,45,6,3,0,0,1,,3,S,0,S,17,0.750981,0.042895,0.032213
25,46,7,8,0,0,1,,1,S,0,S,16,0.022238,0.777172,0.017282
25,47,9,7,0,0,1,,2,S,0,S,17,0.79792,0.003324,0.002652
25,48,1,9,0,0,1,,8,L,0,S,16,0.019386,0.780906,0.015138
25,49,1,5,0,0,1,,4,S,0,S,16,0.043354,0.752927,0.032642
25,50,8,6,0,0,1,,2,S,0,S,27,0.758014,0.04717,0.035755
25,51,6,7,0,0,0,,1,S,0,S,35,0.763582,0.038343,0.029278
25,52,2,7,0,0,1,,5,S,0,S,17,0.019718,0.782157,0.015423
25,53,2,1,0,0,1,,1,S,0,S,23,0.793708,0.019451,0.015439
25,54,2,5,0,0,1,,3,S,0,S,18,0.039875,0.764306,0.030477
25,55,3,9,0,0,1,,6,S,0,S,18,0.024255,0.778883,0.018892
25,56,7,5,0,0,1,,2,S,0,S,20,0.773338,0.033847,0.026175
25,57,1,6,0,0,1,,5,S,0,S,16,0.023359,0.778366,0.018182
25,58,6,1,0,0,1,,5,S,0,S,16,0.759749,0.035896,0.027272
25,59,4,6,0,0,1,,2,S,0,S,20,0.04689,0.756676,0.035481
25,60,6,4,0,0,0,,2,S,0,S,20,0.047211,0.752397,0.035521
25,61,7,3,0,0,1,,4,S,0,S,18,0.794578,0.01155,0.009177
25,62,1,7,0,0,1,,6,S,0,S,16,0.009707,0.790554,0.007674
25,63,7,2,0,0,1,,5,S,0,S,16,0.763405,0.034565,0.026387
25,64,4,2,0,0,1,,2,S,0,S,18,0.77624,0.028213,0.0219
25,65,5,4,0,0,1,,1,S,0,S,36,0.783077,0.024592,0.019257
25,66,8,1,0,0,1,,7,L,0,S,17,0.784687,0.018483,0.014504
25,67,8,4,0,0,0,,4,S,0,S,19,0.032496,0.769679,0.025011
25,68,4,7,0,0,1,,3,S,0,S,19,0.028765,0.772604,0.022224
25,69,2,6,0,0,1,,4,S,0,S,17,0.042871,0.758258,0.032507
25,70,5,6,0,0,0,,1,S,0,S,19,0.78671,0.019823,0.015595
25,71,6,5,0,0,1,,1,S,0,S,20,0.787173,0.021238,0.016718
25,72,5,3,0,0,1,,2,S,0,S,16,0.753086,0.03813,0.028715
26,1,1,9,0,0,1,,8,L,0,S,13,0.013389,0.768888,0.010295
26,2,2,4,0,0,1,,2,S,0,S,18,0.024442,0.772914,0.018891
26,3,9,2,0,0,1,,7,L,0,S,14,0.771037,0.019511,0.015044
26,4,7,5,0,0,1,,2,S,0,S,26,0.781347,0.025101,0.019613
26,5,5,8,0,0,0,,3,S,0,S,21,0.781442,0.02405,0.018794
26,6,5,1,0,0,1,,4,S,0,S,17,0.788028,0.011521,0.009078
26,7,4,5,0,0,1,,1,S,0,S,16,0.019236,0.780943,0.015022
26,8,5,6,0,0,1,,1,S,0,S,27,0.048415,0.750024,0.036313
26,9,2,1,0,0,1,,1,S,0,S,21,0.793332,0.010792,0.008561
26,10,8,9,0,0,1,,1,S,0,S,16,0.015101,0.782757,0.011821
26,11,6,3,0,0,1,,3,S,0,S,16,0.784257,0.016317,0.012797
26,12,2,3,0,0,1,,1,S,0,S,20,0.030308,0.772742,0.02342
26,13,3,6,0,0,1,,3,S,0,S,17,0.016791,0.783458,0.013155
26,14,5,9,0,0,1,,4,S,0,S,16,0.00762,0.791231,0.00603
26,15,7,2,0,0,1,,5,S,0,S,16,0.781128,0.016902,0.013203
26,16,8,5,0,0,0,,3,S,0,S,17,0.033521,0.765519,0.025661
26,17,6,1,0,0,1,,5,S,0,S,15,0.792716,0.003639,0.002885
26,18,4,3,0,0,1,,1,S,0,S,31,0.768265,0.038407,0.029507
26,19,6,9,0,0,1,,3,S,0,S,19,0.034041,0.764691,0.026031
26,20,2,5,0,0,1,,3,S,0,S,15,0.025328,0.767411,0.019437
26,21,2,7,0,0,1,,5,S,0,S,22,0.031618,0.77228,0.024418
26,22,8,7,0,0,1,,1,S,0,S,18,0.761218,0.038494,0.029303
26,23,4,2,0,0,0,,2,S,0,S,30,0.044431,0.760223,0.033777
26,24,8,2,0,0,1,,6,S,0,S,20,0.794595,0.014014,0.011136
26,25,8,4,0,0,1,,4,S,0,S,25,0.777885,0.026198,0.020379
26,26,7,6,0,0,1,,1,S,0,S,17,0.773062,0.022916,0.017716
26,27,3,9,0,0,1,,6,S,0,S,14,0.017927,0.770787,0.013818
26,28,1,8,0,0,1,,7,L,0,S,15,0.02471,0.768087,0.01898
26,29,4,8,0,0,1,,4,S,0,S,27,0.046036,0.757532,0.034874
26,30,1,5,0,0,1,,4,S,0,S,14,0,0.802658,0
26,31,3,4,0,0,1,,1,S,0,S,17,0.022984,0.774847,0.017809
26,32,3,5,0,0,1,,2,S,0,S,15,0.008002,0.791587,0.006334
26,33,7,8,0,0,0,,1,S,0,S,16,0.777462,0.019499,0.01516
26,34,9,4,0,0,1,,5,S,0,S,15,0.792875,0.003563,0.002825
26,35,6,2,0,0,1,,4,S,0,S,16,0.779508,0.019725,0.015376
26,36,5,4,0,0,0,,1,S,0,S,37,0.043873,0.755303,0.033138
26,37,2,9,0,0,1,,7,L,0,S,14,0.031472,0.751125,0.02364
26,38,2,8,0,0,1,,6,S,0,S,20,0.013488,0.792935,0.010695
26,39,4,1,0,0,1,,3,S,0,S,18,0.779196,0.021075,0.016422
26,40,7,1,0,0,1,,6,S,0,S,15,0.792602,0.002269,0.001798
26,41,9,8,0,0,1,,1,S,0,S,14,0.76879,0.020983,0.016132
26,42,1,3,0,0,1,,2,S,0,S,15,0.028332,0.764189,0.021651
26,43,8,3,0,0,1,,5,S,0,S,19,0.760789,0.040434,0.030762
26,44,3,8,0,0,1,,5,S,0,S,18,0.028529,0.773519,0.022068
26,45,4,7,0,0,0,,3,S,0,S,22,0.754312,0.047724,0.035998
26,46,9,7,0,0,1,,2,S,0,S,14,0.783421,0.010028,0.007857
26,47,7,9,0,0,1,,2,S,0,S,20,0.014386,0.788405,0.011342
26,48,7,3,0,0,1,,4,S,0,S,16,0.785748,0.013603,0.010689
