ANN,trial,N1,N2,P1,P2,Succ.,,Ndist,Ndist,Pdist,Pdist,rt,a1,a2,x_acc
1,1,4,5,0,0,1,,1,S,0,S,19,0.008206,0.795439,0.006527
1,2,2,1,0,0,1,,1,S,0,S,14,0.750185,0.034135,0.025607
1,3,6,8,0,0,1,,2,S,0,S,15,0.004154,0.79285,0.003293
1,4,1,2,0,0,1,,1,S,0,S,19,0.043265,0.75663,0.032735
1,5,7,2,0,0,1,,5,S,0,S,14,0.795547,0.000331,0.000263
1,6,7,5,0,0,1,,2,S,0,S,17,0.783605,0.016054,0.01258
1,7,1,4,0,0,1,,3,S,0,S,14,0.035588,0.751178,0.026733
1,8,4,3,0,0,1,,1,S,0,S,25,0.763531,0.036609,0.027952
1,9,6,3,0,0,1,,3,S,0,S,17,0.786125,0.014346,0.011278
1,10,6,4,0,0,1,,2,S,0,S,19,0.770737,0.032405,0.024975
1,11,1,8,0,0,1,,7,L,0,S,12,0.016508,0.757251,0.012501
1,12,9,7,0,0,1,,2,S,0,S,15,0.761906,0.028841,0.021974
1,13,6,9,0,0,1,,3,S,0,S,16,0.025298,0.77052,0.019493
1,14,9,6,0,0,1,,3,S,0,S,17,0.780862,0.020606,0.01609
1,15,1,7,0,0,1,,6,S,0,S,13,0.017023,0.765423,0.01303
1,16,6,2,0,0,1,,4,S,0,S,14,0.75185,0.034166,0.025688
1,17,1,5,0,0,1,,4,S,0,S,14,0.028987,0.756236,0.021921
1,18,5,7,0,0,1,,2,S,0,S,18,0.027582,0.7719,0.02129
1,19,8,2,0,0,1,,6,S,0,S,13,0.768331,0.015935,0.012243
1,20,9,2,0,0,1,,7,L,0,S,12,0.760193,0.016364,0.01244
1,21,8,4,0,0,1,,4,S,0,S,15,0.773161,0.021725,0.016797
1,22,5,1,0,0,1,,4,S,0,S,13,0.772794,0.012249,0.009466
1,23,2,5,0,0,1,,3,S,0,S,17,0.029557,0.766574,0.022658
1,24,2,9,0,0,1,,7,L,0,S,14,0.01483,0.775239,0.011497
1,25,9,3,0,0,1,,6,S,0,S,13,0.771916,0.012315,0.009506
1,26,9,4,0,0,1,,5,S,0,S,13,0.75082,0.03076,0.023095
1,27,4,1,0,0,1,,3,S,0,S,14,0.767861,0.01949,0.014965
1,28,8,3,0,0,1,,5,S,0,S,14,0.757934,0.02692,0.020403
1,29,4,7,0,0,1,,3,S,0,S,15,0.024581,0.765022,0.018805
1,30,6,7,0,0,1,,1,S,0,S,18,0.011906,0.79121,0.00942
1,31,9,1,0,0,1,,8,L,0,S,12,0.794705,0,0
1,32,3,8,0,0,1,,5,S,0,S,13,0,0.787553,0
1,33,2,6,0,0,1,,4,S,0,S,14,0.004578,0.789332,0.003614
1,34,6,5,0,0,1,,1,S,0,S,21,0.789614,0.0158,0.012476
1,35,5,3,0,0,1,,2,S,0,S,16,0.752277,0.039036,0.029366
1,36,1,6,0,0,1,,5,S,0,S,13,0,0.796493,0
1,37,3,5,0,0,1,,2,S,0,S,16,0.002355,0.798271,0.00188
1,38,7,4,0,0,1,,3,S,0,S,16,0.765671,0.030895,0.023655
1,39,7,9,0,0,1,,2,S,0,S,19,0.017931,0.785913,0.014092
1,40,4,8,0,0,1,,4,S,0,S,14,0,0.79745,0
1,41,1,9,0,0,1,,8,L,0,S,13,0.00137,0.787018,0.001078
1,42,9,8,0,0,1,,1,S,0,S,20,0.780425,0.023075,0.018008
1,43,4,6,0,0,1,,2,S,0,S,14,0.019111,0.769009,0.014697
1,44,2,8,0,0,1,,6,S,0,S,13,0.01961,0.761344,0.01493
1,45,9,5,0,0,1,,4,S,0,S,14,0.790037,0.003287,0.002597
1,46,3,7,0,0,1,,4,S,0,S,14,0.008667,0.782118,0.006779
1,47,2,7,0,0,1,,5,S,0,S,15,0.004468,0.792441,0.00354
1,48,8,6,0,0,0,,2,S,0,S,22,0.01885,0.787781,0.014849
1,49,5,4,0,0,1,,1,S,0,S,18,0.752761,0.045697,0.034399
1,50,1,3,0,0,1,,2,S,0,S,16,0.003483,0.797675,0.002779
1,51,7,6,0,0,0,,1,S,0,S,18,0.012341,0.792285,0.009778
1,52,2,3,0,0,1,,1,S,0,S,22,0.037435,0.763095,0.028566
1,53,8,5,0,0,1,,3,S,0,S,15,0.750631,0.036351,0.027286
1,54,4,9,0,0,1,,5,S,0,S,14,0.030831,0.752884,0.023212
1,55,3,2,0,0,1,,1,S,0,S,21,0.752461,0.047615,0.035829
1,56,8,1,0,0,1,,7,L,0,S,12,0.758283,0.015866,0.012031
1,57,7,1,0,0,1,,6,S,0,S,13,0.796029,0,0
1,58,2,4,0,0,1,,2,S,0,S,18,0.012917,0.793428,0.010248
1,59,5,8,0,0,1,,3,S,0,S,15,0.009633,0.786218,0.007573
1,60,6,1,0,0,1,,5,S,0,S,13,0.767805,0.015734,0.012081
1,61,3,1,0,0,1,,2,S,0,S,16,0.797459,0.00396,0.003158
1,62,8,7,0,0,1,,1,S,0,S,20,0.794987,0.010321,0.008205
1,63,4,2,0,0,1,,2,S,0,S,16,0.757731,0.035332,0.026772
1,64,5,6,0,0,1,,1,S,0,S,16,0.013127,0.787286,0.010335
1,65,7,8,0,0,1,,1,S,0,S,16,0.019522,0.776446,0.015158
1,66,7,3,0,0,1,,4,S,0,S,15,0.767977,0.023352,0.017933
1,67,3,4,0,0,1,,1,S,0,S,16,0.012326,0.789186,0.009727
1,68,3,6,0,0,1,,3,S,0,S,13,0.016568,0.766984,0.012708
1,69,5,9,0,0,1,,4,S,0,S,16,0.034743,0.758872,0.026365
1,70,3,9,0,0,1,,6,S,0,S,13,0.024785,0.75535,0.018721
1,71,5,2,0,0,1,,3,S,0,S,14,0.75963,0.028511,0.021658
1,72,8,9,0,0,1,,1,S,0,S,31,0.029529,0.775305,0.022894
2,1,6,7,0,0,1,,1,S,0,S,21,0.017895,0.784572,0.01404
2,2,5,3,0,0,1,,2,S,0,S,18,0.783983,0.017038,0.013357
2,3,2,7,0,0,1,,5,S,0,S,14,0.000363,0.789019,0.000287
2,4,5,2,0,0,1,,3,S,0,S,15,0.777621,0.01628,0.01266
2,5,8,9,0,0,1,,1,S,0,S,20,0.011815,0.792143,0.009359
2,6,2,3,0,0,1,,1,S,0,S,17,0.024184,0.769394,0.018607
2,7,4,7,0,0,1,,3,S,0,S,16,0.02392,0.768522,0.018383
2,8,6,5,0,0,1,,1,S,0,S,22,0.788499,0.018752,0.014786
2,9,4,5,0,0,1,,1,S,0,S,18,0.016526,0.786808,0.013003
2,10,7,2,0,0,1,,5,S,0,S,13,0.785221,0.002084,0.001636
2,11,7,8,0,0,1,,1,S,0,S,26,0.01834,0.788319,0.014458
2,12,3,6,0,0,1,,3,S,0,S,16,0.032569,0.756481,0.024638
2,13,1,3,0,0,1,,2,S,0,S,16,0.005534,0.79434,0.004396
2,14,5,1,0,0,1,,4,S,0,S,14,0.770805,0.016958,0.013071
2,15,8,7,0,0,1,,1,S,0,S,19,0.781444,0.016423,0.012834
2,16,5,4,0,0,1,,1,S,0,S,32,0.77621,0.027978,0.021717
2,17,8,5,0,0,1,,3,S,0,S,16,0.753014,0.037161,0.027983
2,18,7,9,0,0,1,,2,S,0,S,21,0.044786,0.75618,0.033867
2,19,3,4,0,0,1,,1,S,0,S,26,0.042421,0.755845,0.032064
2,20,4,2,0,0,1,,2,S,0,S,15,0.761365,0.027817,0.021179
2,21,7,4,0,0,1,,3,S,0,S,15,0.788091,0.007657,0.006035
2,22,9,4,0,0,1,,5,S,0,S,15,0.76727,0.023705,0.018188
2,23,6,3,0,0,1,,3,S,0,S,15,0.75132,0.03506,0.026342
2,24,9,2,0,0,1,,7,L,0,S,13,0.774871,0.009817,0.007607
2,25,2,9,0,0,1,,7,L,0,S,13,0,0.789473,0
2,26,9,6,0,0,1,,3,S,0,S,19,0.781975,0.01884,0.014732
2,27,2,4,0,0,1,,2,S,0,S,15,0.025999,0.760864,0.019782
2,28,3,1,0,0,1,,2,S,0,S,14,0.76288,0.021858,0.016675
2,29,7,3,0,0,1,,4,S,0,S,14,0.786277,0.005365,0.004218
2,30,4,1,0,0,1,,3,S,0,S,14,0.758447,0.025392,0.019258
2,31,1,7,0,0,1,,6,S,0,S,13,0.015007,0.766887,0.011509
2,32,9,3,0,0,1,,6,S,0,S,14,0.771528,0.016575,0.012788
2,33,2,5,0,0,1,,3,S,0,S,14,0.023038,0.763109,0.017581
2,34,9,7,0,0,1,,2,S,0,S,19,0.781674,0.019641,0.015353
2,35,9,1,0,0,1,,8,L,0,S,13,0.798327,0,0
2,36,1,2,0,0,1,,1,S,0,S,20,0.016291,0.788938,0.012853
2,37,6,4,0,0,1,,2,S,0,S,18,0.797137,0.005823,0.004641
2,38,6,8,0,0,1,,2,S,0,S,16,0.032095,0.759392,0.024373
2,39,6,1,0,0,1,,5,S,0,S,13,0.760269,0.019294,0.014668
2,40,1,5,0,0,1,,4,S,0,S,14,0,0.799351,0
2,41,6,2,0,0,1,,4,S,0,S,14,0.782133,0.008347,0.006529
2,42,7,1,0,0,1,,6,S,0,S,12,0.751173,0.020393,0.015318
2,43,2,8,0,0,1,,6,S,0,S,13,0.004215,0.778804,0.003283
2,44,3,9,0,0,1,,6,S,0,S,14,0.025141,0.76166,0.019149
2,45,5,7,0,0,1,,2,S,0,S,16,0.037882,0.751979,0.028487
2,46,3,8,0,0,1,,5,S,0,S,15,0.000459,0.795962,0.000365
2,47,8,3,0,0,1,,5,S,0,S,14,0.766916,0.017191,0.013184
2,48,4,6,0,0,1,,2,S,0,S,16,0.025281,0.766092,0.019368
2,49,5,9,0,0,1,,4,S,0,S,14,0.028361,0.758985,0.021526
2,50,1,4,0,0,1,,3,S,0,S,14,0.028278,0.756625,0.021396
2,51,2,6,0,0,1,,4,S,0,S,14,0.001095,0.787451,0.000862
2,52,1,6,0,0,1,,5,S,0,S,13,0.015605,0.765493,0.011946
2,53,2,1,0,0,1,,1,S,0,S,18,0.766718,0.027713,0.021248
2,54,5,8,0,0,1,,3,S,0,S,15,0.003815,0.793147,0.003026
2,55,1,9,0,0,1,,8,L,0,S,12,0.018377,0.756807,0.013908
2,56,3,7,0,0,1,,4,S,0,S,16,0.031149,0.759002,0.023642
2,57,4,9,0,0,1,,5,S,0,S,14,0.021296,0.766879,0.016332
2,58,9,5,0,0,1,,4,S,0,S,16,0.756252,0.037884,0.02865
2,59,8,6,0,0,1,,2,S,0,S,19,0.78157,0.015759,0.012317
2,60,7,5,0,0,1,,2,S,0,S,16,0.787442,0.013518,0.010645
2,61,8,2,0,0,1,,6,S,0,S,13,0.770424,0.010475,0.00807
2,62,3,2,0,0,1,,1,S,0,S,15,0.767576,0.022855,0.017543
2,63,1,8,0,0,1,,7,L,0,S,13,0,0.803269,0
2,64,4,8,0,0,1,,4,S,0,S,14,0.031988,0.750379,0.024003
2,65,6,9,0,0,1,,3,S,0,S,16,0.013504,0.785804,0.010612
2,66,4,3,0,0,1,,1,S,0,S,19,0.791883,0.010767,0.008526
2,67,5,6,0,0,1,,1,S,0,S,17,0.003592,0.797764,0.002865
2,68,8,1,0,0,1,,7,L,0,S,13,0.793874,0,0
2,69,8,4,0,0,1,,4,S,0,S,15,0.762863,0.024025,0.018328
2,70,9,8,0,0,0,,1,S,0,S,21,0.016413,0.788721,0.012946
2,71,7,6,0,0,1,,1,S,0,S,18,0.791976,0.009851,0.007802
2,72,3,5,0,0,1,,2,S,0,S,18,0.029401,0.770359,0.022649
3,1,3,9,0,0,1,,6,S,0,S,14,0.022277,0.767588,0.017099
3,2,5,7,0,0,1,,2,S,0,S,22,0.014356,0.794684,0.011409
3,3,8,4,0,0,1,,4,S,0,S,15,0.777913,0.018664,0.014519
3,4,7,6,0,0,1,,1,S,0,S,23,0.764783,0.037313,0.028537
3,5,1,2,0,0,1,,1,S,0,S,15,0.022781,0.765593,0.017441
3,6,2,9,0,0,1,,7,L,0,S,13,0.026539,0.752245,0.019964
3,7,7,3,0,0,1,,4,S,0,S,14,0.763556,0.020659,0.015774
3,8,4,8,0,0,1,,4,S,0,S,15,0.011416,0.781879,0.008926
3,9,3,4,0,0,1,,1,S,0,S,19,0.035616,0.76667,0.027306
3,10,6,1,0,0,1,,5,S,0,S,14,0.785234,0.007456,0.005855
3,11,8,3,0,0,1,,5,S,0,S,14,0.778476,0.011236,0.008747
3,12,1,5,0,0,1,,4,S,0,S,13,0.016702,0.763341,0.012749
3,13,9,4,0,0,1,,5,S,0,S,14,0.762157,0.025571,0.019489
3,14,3,5,0,0,1,,2,S,0,S,17,0.00689,0.796513,0.005488
3,15,8,2,0,0,1,,6,S,0,S,14,0.788257,0.00423,0.003334
3,16,9,3,0,0,1,,6,S,0,S,14,0.802705,0,0
3,17,4,9,0,0,1,,5,S,0,S,15,0.037457,0.75005,0.028094
3,18,5,3,0,0,1,,2,S,0,S,15,0.788787,0.005852,0.004616
3,19,6,8,0,0,1,,2,S,0,S,16,0.004176,0.797554,0.003331
3,20,6,7,0,0,1,,1,S,0,S,18,0.025159,0.778333,0.019582
3,21,5,1,0,0,1,,4,S,0,S,13,0.753456,0.025784,0.019427
3,22,3,1,0,0,1,,2,S,0,S,16,0.791742,0.008855,0.007011
3,23,2,7,0,0,1,,5,S,0,S,14,0.007536,0.78432,0.00591
3,24,8,1,0,0,1,,7,L,0,S,13,0.781433,0.005621,0.004393
3,25,9,5,0,0,1,,4,S,0,S,15,0.75918,0.029795,0.02262
3,26,5,4,0,0,1,,1,S,0,S,16,0.764783,0.030776,0.023537
3,27,1,3,0,0,1,,2,S,0,S,15,0.013575,0.776839,0.010545
3,28,7,4,0,0,1,,3,S,0,S,15,0.757411,0.032499,0.024615
3,29,9,7,0,0,1,,2,S,0,S,17,0.758261,0.037898,0.028736
3,30,7,1,0,0,1,,6,S,0,S,13,0.770339,0.012173,0.009377
3,31,1,4,0,0,1,,3,S,0,S,14,0.003259,0.789714,0.002573
3,32,2,6,0,0,1,,4,S,0,S,14,0.007102,0.784583,0.005572
3,33,5,8,0,0,1,,3,S,0,S,17,0.012741,0.78807,0.010041
3,34,9,6,0,0,1,,3,S,0,S,17,0.754714,0.040409,0.030497
3,35,5,6,0,0,1,,1,S,0,S,21,0.043849,0.75684,0.033187
3,36,2,8,0,0,1,,6,S,0,S,13,0.01352,0.767836,0.010381
3,37,1,9,0,0,1,,8,L,0,S,12,0.015884,0.75764,0.012035
3,38,9,1,0,0,1,,8,L,0,S,13,0.798327,0,0
3,39,4,3,0,0,1,,1,S,0,S,17,0.792797,0.006012,0.004766
3,40,4,5,0,0,1,,1,S,0,S,21,0.023046,0.778436,0.01794
3,41,8,9,0,0,1,,1,S,0,S,25,0.025134,0.783326,0.019688
3,42,2,5,0,0,1,,3,S,0,S,15,0.016811,0.774476,0.01302
3,43,6,9,0,0,1,,3,S,0,S,16,0.039597,0.754292,0.029868
3,44,1,7,0,0,1,,6,S,0,S,13,0,0.800003,0
3,45,4,6,0,0,1,,2,S,0,S,16,0.038518,0.752851,0.028998
3,46,4,2,0,0,1,,2,S,0,S,16,0.765709,0.025732,0.019704
3,47,7,8,0,0,1,,1,S,0,S,18,0.038681,0.75584,0.029237
3,48,3,2,0,0,1,,1,S,0,S,19,0.771166,0.028904,0.02229
3,49,2,1,0,0,1,,1,S,0,S,18,0.761396,0.033872,0.02579
3,50,4,7,0,0,1,,3,S,0,S,16,0.039793,0.751554,0.029906
3,51,6,4,0,0,1,,2,S,0,S,18,0.79135,0.014689,0.011624
3,52,9,8,0,0,1,,1,S,0,S,29,0.767996,0.034526,0.026516
3,53,8,5,0,0,1,,3,S,0,S,16,0.754868,0.03759,0.028375
3,54,7,5,0,0,1,,2,S,0,S,17,0.77316,0.023264,0.017987
3,55,5,2,0,0,1,,3,S,0,S,15,0.800971,0,0
3,56,6,3,0,0,1,,3,S,0,S,15,0.752386,0.034969,0.02631
3,57,1,6,0,0,1,,5,S,0,S,13,0,0.800041,0
3,58,2,4,0,0,1,,2,S,0,S,16,0.028362,0.765869,0.021722
3,59,3,8,0,0,1,,5,S,0,S,14,0.004991,0.788306,0.003935
3,60,3,7,0,0,1,,4,S,0,S,15,0.009476,0.789621,0.007482
3,61,9,2,0,0,1,,7,L,0,S,13,0.758132,0.020962,0.015892
3,62,8,7,0,0,1,,1,S,0,S,20,0.758306,0.043492,0.03298
3,63,6,2,0,0,1,,4,S,0,S,15,0.768046,0.023417,0.017985
3,64,3,6,0,0,1,,3,S,0,S,15,0.008814,0.790157,0.006965
3,65,5,9,0,0,1,,4,S,0,S,18,0.032484,0.767109,0.024919
3,66,7,2,0,0,1,,5,S,0,S,14,0.774122,0.013115,0.010153
3,67,2,3,0,0,1,,1,S,0,S,20,0.032139,0.763926,0.024552
3,68,8,6,0,0,1,,2,S,0,S,20,0.750127,0.049693,0.037276
3,69,6,5,0,0,1,,1,S,0,S,24,0.779761,0.02579,0.02011
3,70,4,1,0,0,1,,3,S,0,S,14,0.751899,0.030802,0.02316
3,71,7,9,0,0,1,,2,S,0,S,21,0.045672,0.752764,0.03438
3,72,1,8,0,0,1,,7,L,0,S,12,0.007418,0.767532,0.005694
4,1,9,4,0,0,1,,5,S,0,S,15,0.770451,0.022032,0.016974
4,2,3,2,0,0,1,,1,S,0,S,16,0.765056,0.029219,0.022354
4,3,4,9,0,0,1,,5,S,0,S,15,0,0.800128,0
4,4,2,5,0,0,1,,3,S,0,S,15,0.008826,0.790457,0.006977
4,5,4,8,0,0,1,,4,S,0,S,17,0.039875,0.75425,0.030076
4,6,3,9,0,0,1,,6,S,0,S,14,0.007559,0.782375,0.005914
4,7,2,4,0,0,1,,2,S,0,S,16,0.015002,0.785673,0.011787
4,8,7,6,0,0,1,,1,S,0,S,23,0.779859,0.025353,0.019772
4,9,5,3,0,0,1,,2,S,0,S,18,0.761449,0.03664,0.027899
4,10,6,7,0,0,1,,1,S,0,S,18,0.035397,0.759865,0.026897
4,11,1,7,0,0,1,,6,S,0,S,13,0.008387,0.772726,0.006481
4,12,9,1,0,0,1,,8,L,0,S,13,0.78846,0,0
4,13,6,1,0,0,1,,5,S,0,S,14,0.799738,0,0
4,14,8,6,0,0,1,,2,S,0,S,17,0.780333,0.018145,0.01416
4,15,6,3,0,0,1,,3,S,0,S,16,0.771481,0.022209,0.017134
4,16,7,5,0,0,1,,2,S,0,S,21,0.787215,0.01987,0.015642
4,17,8,3,0,0,1,,5,S,0,S,14,0.751083,0.031557,0.023702
4,18,8,5,0,0,1,,3,S,0,S,16,0.75479,0.037186,0.028068
4,19,3,8,0,0,1,,5,S,0,S,16,0.015211,0.781995,0.011895
4,20,3,6,0,0,1,,3,S,0,S,17,0.030835,0.765511,0.023605
4,21,1,2,0,0,1,,1,S,0,S,18,0.023222,0.772962,0.017949
4,22,4,6,0,0,1,,2,S,0,S,20,0.036187,0.76463,0.02767
4,23,4,2,0,0,1,,2,S,0,S,15,0.774273,0.019833,0.015356
4,24,8,1,0,0,1,,7,L,0,S,13,0.786243,0,0
4,25,2,9,0,0,1,,7,L,0,S,13,0.001084,0.786327,0.000853
4,26,5,8,0,0,1,,3,S,0,S,17,0.013759,0.788185,0.010844
4,27,3,1,0,0,1,,2,S,0,S,15,0.79044,0.004857,0.003839
4,28,8,2,0,0,1,,6,S,0,S,13,0.754154,0.024766,0.018677
4,29,2,8,0,0,1,,6,S,0,S,14,0.013233,0.777886,0.010293
4,30,8,4,0,0,1,,4,S,0,S,15,0.766048,0.025031,0.019175
4,31,7,4,0,0,1,,3,S,0,S,17,0.762149,0.034722,0.026463
4,32,7,3,0,0,1,,4,S,0,S,16,0.780539,0.0169,0.013191
4,33,5,1,0,0,1,,4,S,0,S,14,0.767036,0.020437,0.015676
4,34,6,8,0,0,1,,2,S,0,S,21,0.010251,0.794437,0.008144
4,35,3,5,0,0,1,,2,S,0,S,18,0.013188,0.791446,0.010438
4,36,7,8,0,0,1,,1,S,0,S,21,0.019997,0.784715,0.015692
4,37,3,7,0,0,1,,4,S,0,S,15,0.025672,0.765385,0.019649
4,38,9,3,0,0,1,,6,S,0,S,14,0.754689,0.029208,0.022043
4,39,8,7,0,0,1,,1,S,0,S,22,0.768596,0.032192,0.024743
4,40,2,1,0,0,1,,1,S,0,S,17,0.764382,0.031588,0.024145
4,41,3,4,0,0,1,,1,S,0,S,22,0.034246,0.768642,0.026323
4,42,2,7,0,0,1,,5,S,0,S,14,0,0.796662,0
4,43,1,4,0,0,1,,3,S,0,S,15,0,0.797484,0
4,44,5,2,0,0,1,,3,S,0,S,15,0.757919,0.033093,0.025082
4,45,5,7,0,0,1,,2,S,0,S,16,0.016534,0.782442,0.012937
4,46,1,3,0,0,1,,2,S,0,S,15,0.030335,0.754587,0.02289
4,47,1,6,0,0,1,,5,S,0,S,14,0.001425,0.788177,0.001123
4,48,4,7,0,0,1,,3,S,0,S,16,0.035916,0.756928,0.027186
4,49,9,2,0,0,1,,7,L,0,S,13,0.756828,0.023126,0.017502
4,50,6,5,0,0,1,,1,S,0,S,21,0.760185,0.039498,0.030026
4,51,9,5,0,0,1,,4,S,0,S,16,0.761005,0.032776,0.024942
4,52,5,4,0,0,1,,1,S,0,S,23,0.766796,0.037589,0.028823
4,53,4,3,0,0,1,,1,S,0,S,17,0.752607,0.041256,0.031049
4,54,7,1,0,0,1,,6,S,0,S,13,0.752128,0.025965,0.019529
4,55,6,9,0,0,1,,3,S,0,S,15,0.03127,0.754683,0.023599
4,56,4,1,0,0,1,,3,S,0,S,14,0.777567,0.011839,0.009206
4,57,9,6,0,0,1,,3,S,0,S,17,0.787166,0.013188,0.010381
4,58,5,6,0,0,1,,1,S,0,S,19,0.018155,0.786881,0.014285
4,59,7,2,0,0,1,,5,S,0,S,14,0.762485,0.024835,0.018937
4,60,1,5,0,0,1,,4,S,0,S,14,0.006158,0.783376,0.004824
4,61,5,9,0,0,1,,4,S,0,S,14,0.023174,0.763531,0.017694
4,62,4,5,0,0,1,,1,S,0,S,22,0.020698,0.787182,0.016293
4,63,6,4,0,0,1,,2,S,0,S,18,0.797584,0.006453,0.005147
4,64,1,8,0,0,1,,7,L,0,S,13,0.019138,0.757919,0.014505
4,65,2,6,0,0,1,,4,S,0,S,15,0.001779,0.79804,0.001419
4,66,1,9,0,0,1,,8,L,0,S,12,0.016972,0.751199,0.01275
4,67,9,7,0,0,1,,2,S,0,S,22,0.795125,0.011408,0.009071
4,68,9,8,0,0,1,,1,S,0,S,19,0.784084,0.017832,0.013982
4,69,8,9,0,0,1,,1,S,0,S,18,0.017148,0.781559,0.013402
4,70,7,9,0,0,1,,2,S,0,S,15,0.032121,0.755852,0.024279
4,71,2,3,0,0,1,,1,S,0,S,17,0.0358,0.76056,0.027228
4,72,6,2,0,0,1,,4,S,0,S,14,0.755989,0.028146,0.021278
5,1,2,8,0,0,1,,6,S,0,S,13,0.011637,0.77374,0.009004
5,2,9,6,0,0,1,,3,S,0,S,16,0.759272,0.033205,0.025211
5,3,1,2,0,0,1,,1,S,0,S,17,0.005323,0.795637,0.004235
5,4,2,6,0,0,1,,4,S,0,S,14,0.011935,0.778317,0.009289
5,5,9,3,0,0,1,,6,S,0,S,14,0.799924,0,0
5,6,3,4,0,0,1,,1,S,0,S,21,0.013939,0.789166,0.011
5,7,1,6,0,0,1,,5,S,0,S,14,0,0.797564,0
5,8,7,6,0,0,1,,1,S,0,S,18,0.764686,0.033345,0.025498
5,9,3,9,0,0,1,,6,S,0,S,14,0.012749,0.775106,0.009882
5,10,5,6,0,0,1,,1,S,0,S,19,0.034766,0.764073,0.026563
5,11,8,4,0,0,1,,4,S,0,S,16,0.787654,0.010264,0.008084
5,12,6,5,0,0,1,,1,S,0,S,21,0.762332,0.035156,0.026801
5,13,5,8,0,0,1,,3,S,0,S,16,0.011885,0.78835,0.00937
5,14,5,7,0,0,1,,2,S,0,S,17,0.017622,0.779785,0.013742
5,15,8,2,0,0,1,,6,S,0,S,14,0.777985,0.013075,0.010172
5,16,6,2,0,0,1,,4,S,0,S,15,0.760965,0.028288,0.021527
5,17,1,4,0,0,1,,3,S,0,S,15,0,0.798015,0
5,18,1,5,0,0,1,,4,S,0,S,14,0.01691,0.768096,0.012988
5,19,3,7,0,0,1,,4,S,0,S,15,0.031732,0.754744,0.023949
5,20,3,2,0,0,1,,1,S,0,S,18,0.78142,0.019456,0.015203
5,21,2,3,0,0,1,,1,S,0,S,17,0.0408,0.753798,0.030755
5,22,9,7,0,0,1,,2,S,0,S,18,0.75573,0.037953,0.028682
5,23,8,1,0,0,1,,7,L,0,S,13,0.785358,0.0029,0.002277
5,24,7,9,0,0,1,,2,S,0,S,18,0.009728,0.792613,0.007711
5,25,3,6,0,0,1,,3,S,0,S,17,0.006134,0.796146,0.004883
5,26,5,2,0,0,1,,3,S,0,S,16,0.781236,0.016291,0.012727
5,27,4,2,0,0,1,,2,S,0,S,19,0.790359,0.014675,0.011598
5,28,1,7,0,0,1,,6,S,0,S,13,0.013165,0.766292,0.010088
5,29,3,5,0,0,1,,2,S,0,S,18,0.040556,0.7526,0.030522
5,30,8,5,0,0,1,,3,S,0,S,16,0.751927,0.038525,0.028968
5,31,4,6,0,0,1,,2,S,0,S,16,0.022953,0.773486,0.017754
5,32,7,1,0,0,1,,6,S,0,S,13,0.78367,0.00369,0.002892
5,33,4,5,0,0,1,,1,S,0,S,18,0.009036,0.793968,0.007174
5,34,6,9,0,0,1,,3,S,0,S,15,0.031099,0.755397,0.023492
5,35,3,8,0,0,1,,5,S,0,S,15,0.004174,0.794142,0.003315
5,36,6,3,0,0,1,,3,S,0,S,15,0.752116,0.035891,0.026994
5,37,8,7,0,0,1,,1,S,0,S,24,0.790471,0.015406,0.012178
5,38,7,5,0,0,1,,2,S,0,S,17,0.796717,0.004947,0.003941
5,39,5,4,0,0,1,,1,S,0,S,21,0.759714,0.037845,0.028751
5,40,6,7,0,0,1,,1,S,0,S,18,0.028002,0.767363,0.021488
5,41,1,3,0,0,1,,2,S,0,S,16,0.02861,0.764307,0.021867
5,42,4,8,0,0,1,,4,S,0,S,14,0.029466,0.757843,0.022331
5,43,3,1,0,0,1,,2,S,0,S,15,0.788228,0.008019,0.006321
5,44,4,9,0,0,1,,5,S,0,S,14,0.004264,0.787456,0.003358
5,45,2,9,0,0,1,,7,L,0,S,13,0,0.791522,0
5,46,6,4,0,0,1,,2,S,0,S,19,0.782996,0.016818,0.013168
5,47,9,5,0,0,1,,4,S,0,S,15,0.757743,0.030032,0.022757
5,48,7,8,0,0,1,,1,S,0,S,21,0.046841,0.753168,0.035279
5,49,7,4,0,0,1,,3,S,0,S,16,0.784502,0.012155,0.009536
5,50,9,2,0,0,1,,7,L,0,S,13,0.750592,0.027947,0.020976
5,51,2,5,0,0,1,,3,S,0,S,15,0.001441,0.794876,0.001145
5,52,1,8,0,0,1,,7,L,0,S,13,0,0.787677,0
5,53,7,3,0,0,1,,4,S,0,S,14,0.770588,0.01894,0.014595
5,54,4,3,0,0,1,,1,S,0,S,19,0.759101,0.040385,0.030657
5,55,2,7,0,0,1,,5,S,0,S,13,0.026761,0.750113,0.020074
5,56,5,1,0,0,1,,4,S,0,S,14,0.78013,0.010974,0.008561
5,57,8,6,0,0,1,,2,S,0,S,18,0.770069,0.029716,0.022884
5,58,7,2,0,0,1,,5,S,0,S,14,0.775817,0.014209,0.011024
5,59,4,7,0,0,1,,3,S,0,S,15,0.018478,0.773287,0.014289
5,60,5,9,0,0,1,,4,S,0,S,15,0.009393,0.784657,0.00737
5,61,2,4,0,0,1,,2,S,0,S,15,0.020367,0.769989,0.015683
5,62,2,1,0,0,1,,1,S,0,S,19,0.769831,0.030699,0.023633
5,63,9,4,0,0,1,,5,S,0,S,15,0.782948,0.010198,0.007984
5,64,8,3,0,0,1,,5,S,0,S,14,0.772807,0.017771,0.013733
5,65,1,9,0,0,1,,8,L,0,S,13,0,0.803101,0
5,66,9,8,0,0,1,,1,S,0,S,21,0.774645,0.029227,0.022641
5,67,6,8,0,0,1,,2,S,0,S,17,0.007643,0.795214,0.006078
5,68,9,1,0,0,1,,8,L,0,S,13,0.802678,0,0
5,69,4,1,0,0,1,,3,S,0,S,15,0.776653,0.01805,0.014019
5,70,6,1,0,0,1,,5,S,0,S,14,0.795407,0,0
5,71,5,3,0,0,1,,2,S,0,S,16,0.770134,0.025769,0.019846
5,72,8,9,0,0,1,,1,S,0,S,18,0.011052,0.791714,0.00875
6,1,7,2,0,0,1,,5,S,0,S,13,0.78872,0,0
6,2,7,6,0,0,1,,1,S,0,S,17,0.785119,0.016461,0.012924
6,3,9,6,0,0,1,,3,S,0,S,15,0.792658,0.003794,0.003008
6,4,9,3,0,0,1,,6,S,0,S,14,0.792774,0,0
6,5,5,7,0,0,1,,2,S,0,S,16,0.017763,0.777998,0.013819
6,6,5,6,0,0,1,,1,S,0,S,23,0.017296,0.789735,0.013659
6,7,9,8,0,0,1,,1,S,0,S,18,0.779909,0.020474,0.015967
6,8,2,1,0,0,1,,1,S,0,S,16,0.795825,0.003502,0.002787
6,9,4,7,0,0,1,,3,S,0,S,15,0.019417,0.771534,0.014981
6,10,6,4,0,0,1,,2,S,0,S,17,0.780494,0.017754,0.013857
6,11,5,9,0,0,1,,4,S,0,S,15,0.003571,0.792035,0.002828
6,12,6,2,0,0,1,,4,S,0,S,13,0.773637,0.008681,0.006716
6,13,7,1,0,0,1,,6,S,0,S,13,0.796367,0,0
6,14,4,1,0,0,1,,3,S,0,S,14,0.768585,0.01909,0.014672
6,15,7,5,0,0,1,,2,S,0,S,18,0.772918,0.028063,0.02169
6,16,9,7,0,0,1,,2,S,0,S,17,0.751713,0.039165,0.029441
6,17,6,5,0,0,1,,1,S,0,S,20,0.774676,0.0268,0.020761
6,18,4,2,0,0,1,,2,S,0,S,14,0.756428,0.027131,0.020523
6,19,2,6,0,0,1,,4,S,0,S,16,0.00439,0.794993,0.00349
6,20,6,1,0,0,1,,5,S,0,S,13,0.781901,0.003589,0.002807
6,21,8,2,0,0,1,,6,S,0,S,13,0.795509,0,0
6,22,3,7,0,0,1,,4,S,0,S,14,0.021869,0.762973,0.016686
6,23,8,4,0,0,1,,4,S,0,S,16,0.796122,0.005186,0.004128
6,24,1,5,0,0,1,,4,S,0,S,12,0.009138,0.766639,0.007006
6,25,2,3,0,0,1,,1,S,0,S,19,0.02332,0.7725,0.018014
6,26,4,8,0,0,1,,4,S,0,S,15,0.00955,0.786392,0.00751
6,27,8,6,0,0,1,,2,S,0,S,16,0.76244,0.032031,0.024422
6,28,3,6,0,0,1,,3,S,0,S,16,0.03117,0.761423,0.023734
6,29,4,6,0,0,1,,2,S,0,S,18,0.040248,0.755377,0.030403
6,30,5,8,0,0,1,,3,S,0,S,16,0.00494,0.796509,0.003935
6,31,3,4,0,0,1,,1,S,0,S,17,0.030572,0.764446,0.02337
6,32,3,9,0,0,1,,6,S,0,S,14,0,0.801498,0
6,33,6,7,0,0,1,,1,S,0,S,20,0.010592,0.792607,0.008395
6,34,1,3,0,0,1,,2,S,0,S,13,0.009902,0.76999,0.007624
6,35,7,8,0,0,1,,1,S,0,S,21,0.019029,0.787814,0.014991
6,36,4,5,0,0,1,,1,S,0,S,17,0.024184,0.77405,0.01872
6,37,2,9,0,0,1,,7,L,0,S,13,0.016722,0.762073,0.012743
6,38,8,1,0,0,1,,7,L,0,S,13,0.802858,0,0
6,39,9,2,0,0,1,,7,L,0,S,12,0.765289,0.008634,0.006607
6,40,3,5,0,0,1,,2,S,0,S,16,0.00207,0.798937,0.001654
6,41,3,8,0,0,1,,5,S,0,S,14,0.0143,0.77496,0.011082
6,42,9,4,0,0,1,,5,S,0,S,14,0.761593,0.023657,0.018017
6,43,2,8,0,0,1,,6,S,0,S,14,0.001274,0.791327,0.001008
6,44,6,9,0,0,1,,3,S,0,S,17,0.003032,0.797122,0.002417
6,45,3,1,0,0,1,,2,S,0,S,15,0.776069,0.016681,0.012946
6,46,1,6,0,0,1,,5,S,0,S,12,0.016959,0.755747,0.012817
6,47,5,1,0,0,1,,4,S,0,S,14,0.795929,0,0
6,48,9,1,0,0,1,,8,L,0,S,12,0.771707,0.004953,0.003823
6,49,1,7,0,0,1,,6,S,0,S,12,0,0.788037,0
6,50,8,5,0,0,1,,3,S,0,S,17,0.762292,0.034696,0.026449
6,51,8,7,0,0,1,,1,S,0,S,35,0.766486,0.036109,0.027677
6,52,8,9,0,0,1,,1,S,0,S,18,0.027977,0.769886,0.021539
6,53,5,3,0,0,1,,2,S,0,S,18,0.777987,0.019469,0.015146
6,54,2,7,0,0,1,,5,S,0,S,14,0.008045,0.780463,0.006279
6,55,7,4,0,0,1,,3,S,0,S,16,0.775882,0.021149,0.016409
6,56,9,5,0,0,1,,4,S,0,S,15,0.766728,0.024178,0.018538
6,57,6,8,0,0,1,,2,S,0,S,19,0.012625,0.791325,0.00999
6,58,1,8,0,0,1,,7,L,0,S,12,0,0.794078,0
6,59,7,9,0,0,1,,2,S,0,S,17,0.034816,0.759168,0.026431
6,60,1,2,0,0,1,,1,S,0,S,15,0.030463,0.756276,0.023039
6,61,8,3,0,0,1,,5,S,0,S,15,0.795261,0.000389,0.000309
6,62,7,3,0,0,1,,4,S,0,S,15,0.781514,0.011097,0.008673
6,63,1,4,0,0,1,,3,S,0,S,13,0,0.800623,0
6,64,5,4,0,0,1,,1,S,0,S,24,0.770648,0.032434,0.024995
6,65,4,3,0,0,1,,1,S,0,S,21,0.773662,0.024921,0.019281
6,66,4,9,0,0,1,,5,S,0,S,14,0.01616,0.770308,0.012448
6,67,5,2,0,0,1,,3,S,0,S,14,0.78563,0.005342,0.004197
6,68,3,2,0,0,1,,1,S,0,S,15,0.76052,0.027396,0.020835
6,69,2,5,0,0,1,,3,S,0,S,15,0.016459,0.776355,0.012778
6,70,6,3,0,0,1,,3,S,0,S,15,0.751843,0.032113,0.024144
6,71,1,9,0,0,1,,8,L,0,S,12,0,0.804332,0
6,72,2,4,0,0,1,,2,S,0,S,16,0.031575,0.759669,0.023986
7,1,6,1,0,0,1,,5,S,0,S,14,0.784385,0.009317,0.007308
7,2,3,6,0,0,1,,3,S,0,S,14,0.030028,0.75527,0.022679
7,3,6,9,0,0,1,,3,S,0,S,16,0.020317,0.780253,0.015852
7,4,2,4,0,0,1,,2,S,0,S,18,0.033404,0.764933,0.025552
7,5,8,6,0,0,1,,2,S,0,S,20,0.781179,0.021843,0.017063
7,6,8,5,0,0,1,,3,S,0,S,16,0.76186,0.030314,0.023095
7,7,7,4,0,0,1,,3,S,0,S,15,0.791054,0.007977,0.00631
7,8,7,6,0,0,1,,1,S,0,S,22,0.765599,0.039716,0.030407
7,9,5,8,0,0,1,,3,S,0,S,17,0.01305,0.784893,0.010243
7,10,4,8,0,0,1,,4,S,0,S,16,0.008347,0.790997,0.006602
7,11,8,9,0,0,1,,1,S,0,S,20,0.043026,0.755611,0.032511
7,12,9,5,0,0,1,,4,S,0,S,14,0.773856,0.016543,0.012802
7,13,2,3,0,0,1,,1,S,0,S,17,0.032296,0.764842,0.024701
7,14,9,6,0,0,1,,3,S,0,S,15,0.764548,0.02837,0.02169
7,15,5,6,0,0,1,,1,S,0,S,18,0.020228,0.780377,0.015786
7,16,8,3,0,0,1,,5,S,0,S,15,0.782825,0.011267,0.00882
7,17,9,4,0,0,1,,5,S,0,S,13,0.768494,0.015282,0.011744
7,18,5,1,0,0,1,,4,S,0,S,14,0.764615,0.021812,0.016678
7,19,1,5,0,0,1,,4,S,0,S,14,0.000371,0.791893,0.000294
7,20,3,2,0,0,1,,1,S,0,S,19,0.790562,0.011354,0.008976
7,21,5,7,0,0,1,,2,S,0,S,18,0.024842,0.772228,0.019184
7,22,7,9,0,0,1,,2,S,0,S,18,0.046752,0.753204,0.035214
7,23,8,1,0,0,1,,7,L,0,S,13,0.772375,0.011123,0.008592
7,24,6,2,0,0,1,,4,S,0,S,14,0.759958,0.025933,0.019708
7,25,9,2,0,0,1,,7,L,0,S,12,0.751404,0.020279,0.015238
7,26,8,4,0,0,1,,4,S,0,S,15,0.798617,0,0
7,27,9,3,0,0,1,,6,S,0,S,13,0.758805,0.023027,0.017473
7,28,3,7,0,0,1,,4,S,0,S,14,0.03207,0.750458,0.024068
7,29,3,1,0,0,1,,2,S,0,S,17,0.767611,0.029213,0.022424
7,30,2,6,0,0,1,,4,S,0,S,14,0.018645,0.771643,0.014387
7,31,5,3,0,0,1,,2,S,0,S,18,0.785729,0.015235,0.011971
7,32,7,3,0,0,1,,4,S,0,S,15,0.773149,0.022412,0.017328
7,33,6,8,0,0,1,,2,S,0,S,17,0.036591,0.758828,0.027767
7,34,3,4,0,0,1,,1,S,0,S,19,0.044894,0.750213,0.03368
7,35,8,7,0,0,1,,1,S,0,S,20,0.778865,0.0218,0.016979
7,36,4,7,0,0,1,,3,S,0,S,17,0.004892,0.798283,0.003905
7,37,9,8,0,0,1,,1,S,0,S,16,0.774109,0.021897,0.01695
7,38,6,4,0,0,1,,2,S,0,S,16,0.767056,0.028703,0.022017
7,39,1,9,0,0,1,,8,L,0,S,12,0.020199,0.752462,0.015199
7,40,1,8,0,0,1,,7,L,0,S,13,0,0.788276,0
7,41,3,8,0,0,1,,5,S,0,S,14,0.014881,0.77268,0.011499
7,42,4,1,0,0,1,,3,S,0,S,15,0.793404,0.005293,0.0042
7,43,1,4,0,0,1,,3,S,0,S,15,0.011425,0.781701,0.008931
7,44,1,6,0,0,1,,5,S,0,S,13,0.006197,0.778953,0.004827
7,45,7,8,0,0,1,,1,S,0,S,23,0.041801,0.760717,0.031799
7,46,8,2,0,0,1,,6,S,0,S,13,0.753701,0.023121,0.017426
7,47,7,1,0,0,1,,6,S,0,S,13,0.76976,0.016346,0.012583
7,48,3,9,0,0,1,,6,S,0,S,14,0,0.802083,0
7,49,6,3,0,0,1,,3,S,0,S,17,0.785291,0.017035,0.013378
7,50,4,3,0,0,1,,1,S,0,S,20,0.778029,0.025762,0.020043
7,51,1,3,0,0,1,,2,S,0,S,15,0,0.799753,0
7,52,3,5,0,0,1,,2,S,0,S,16,0.014992,0.782358,0.011729
7,53,6,5,0,0,1,,1,S,0,S,21,0.781666,0.02434,0.019025
7,54,7,2,0,0,1,,5,S,0,S,13,0.75028,0.029046,0.021793
7,55,2,5,0,0,1,,3,S,0,S,15,0.033284,0.75675,0.025188
7,56,9,1,0,0,1,,8,L,0,S,12,0.765507,0.011719,0.008971
7,57,1,7,0,0,1,,6,S,0,S,13,0.007626,0.77512,0.005911
7,58,4,6,0,0,1,,2,S,0,S,16,0.037618,0.756152,0.028445
7,59,5,4,0,0,1,,1,S,0,S,17,0.776889,0.020151,0.015655
7,60,4,5,0,0,1,,1,S,0,S,21,0.018849,0.787404,0.014842
7,61,4,9,0,0,1,,5,S,0,S,15,0.010929,0.787508,0.008607
7,62,7,5,0,0,1,,2,S,0,S,17,0.79022,0.014034,0.01109
7,63,5,2,0,0,1,,3,S,0,S,15,0.788861,0.004611,0.003638
7,64,2,1,0,0,1,,1,S,0,S,18,0.780752,0.021806,0.017025
7,65,4,2,0,0,1,,2,S,0,S,15,0.761953,0.027473,0.020933
7,66,5,9,0,0,1,,4,S,0,S,16,0.004906,0.796131,0.003906
7,67,2,9,0,0,1,,7,L,0,S,13,0.022176,0.761244,0.016881
7,68,1,2,0,0,1,,1,S,0,S,18,0.005002,0.795892,0.003981
7,69,2,7,0,0,1,,5,S,0,S,14,0.020569,0.767067,0.015777
7,70,6,7,0,0,1,,1,S,0,S,19,0.02739,0.774537,0.021214
7,71,2,8,0,0,1,,6,S,0,S,14,0.00493,0.787161,0.003881
7,72,9,7,0,0,1,,2,S,0,S,15,0.761282,0.029213,0.022239
8,1,1,7,0,0,1,,6,S,0,S,14,0,0.794508,0
8,2,4,9,0,0,1,,5,S,0,S,14,0.02879,0.758422,0.021835
8,3,3,6,0,0,1,,3,S,0,S,15,0.032283,0.759649,0.024524
8,4,9,5,0,0,1,,4,S,0,S,16,0.763263,0.029593,0.022587
8,5,8,7,0,0,1,,1,S,0,S,18,0.764385,0.034282,0.026205
8,6,2,1,0,0,1,,1,S,0,S,16,0.765085,0.025532,0.019534
8,7,6,2,0,0,1,,4,S,0,S,14,0.751755,0.034764,0.026134
8,8,3,4,0,0,1,,1,S,0,S,21,0.017364,0.791554,0.013745
8,9,5,3,0,0,1,,2,S,0,S,19,0.796486,0.006459,0.005145
8,10,1,6,0,0,1,,5,S,0,S,14,0,0.794707,0
8,11,8,2,0,0,1,,6,S,0,S,14,0.793058,0.003197,0.002536
8,12,2,9,0,0,1,,7,L,0,S,13,0,0.792147,0
8,13,4,7,0,0,1,,3,S,0,S,16,0.001812,0.799571,0.001449
8,14,9,2,0,0,1,,7,L,0,S,14,0.797789,0,0
8,15,7,5,0,0,1,,2,S,0,S,19,0.795132,0.005628,0.004475
8,16,6,3,0,0,1,,3,S,0,S,15,0.763739,0.02672,0.020407
8,17,7,8,0,0,1,,1,S,0,S,16,0.018823,0.776077,0.014608
8,18,4,2,0,0,1,,2,S,0,S,19,0.782899,0.021937,0.017174
8,19,3,1,0,0,1,,2,S,0,S,13,0.751957,0.027393,0.020598
8,20,3,8,0,0,1,,5,S,0,S,13,0.023741,0.758809,0.018015
8,21,5,4,0,0,1,,1,S,0,S,21,0.764642,0.035805,0.027378
8,22,7,4,0,0,1,,3,S,0,S,16,0.789023,0.009176,0.00724
8,23,2,8,0,0,1,,6,S,0,S,12,0.010614,0.76347,0.008104
8,24,4,3,0,0,1,,1,S,0,S,24,0.779058,0.024625,0.019184
8,25,7,6,0,0,1,,1,S,0,S,23,0.785539,0.018554,0.014575
8,26,3,7,0,0,1,,4,S,0,S,15,0.030777,0.760517,0.023407
8,27,8,3,0,0,1,,5,S,0,S,14,0.762448,0.024152,0.018415
8,28,5,1,0,0,1,,4,S,0,S,13,0.773252,0.00892,0.006897
8,29,9,7,0,0,1,,2,S,0,S,18,0.782669,0.020105,0.015736
8,30,5,2,0,0,1,,3,S,0,S,17,0.788239,0.013313,0.010493
8,31,6,9,0,0,1,,3,S,0,S,18,0.032331,0.768737,0.024854
8,32,3,9,0,0,1,,6,S,0,S,14,0.023862,0.766446,0.018289
8,33,3,5,0,0,1,,2,S,0,S,17,0.006884,0.795009,0.005473
8,34,9,1,0,0,1,,8,L,0,S,12,0.782077,0,0
8,35,6,4,0,0,1,,2,S,0,S,16,0.781969,0.017597,0.01376
8,36,2,4,0,0,1,,2,S,0,S,15,0.004058,0.791985,0.003214
8,37,8,6,0,0,1,,2,S,0,S,18,0.774419,0.027242,0.021096
8,38,2,5,0,0,1,,3,S,0,S,14,0.003162,0.784783,0.002481
8,39,9,6,0,0,1,,3,S,0,S,18,0.791746,0.013759,0.010894
8,40,7,3,0,0,1,,4,S,0,S,15,0.768352,0.020321,0.015614
8,41,1,5,0,0,1,,4,S,0,S,14,0.022946,0.760621,0.017453
8,42,3,2,0,0,1,,1,S,0,S,19,0.764285,0.038204,0.029199
8,43,4,6,0,0,1,,2,S,0,S,16,0.003282,0.798748,0.002622
8,44,2,7,0,0,1,,5,S,0,S,13,0.018061,0.761059,0.013745
8,45,4,5,0,0,1,,1,S,0,S,17,0.017007,0.780463,0.013274
8,46,6,5,0,0,1,,1,S,0,S,19,0.769705,0.028951,0.022284
8,47,6,8,0,0,1,,2,S,0,S,16,0.004078,0.798513,0.003257
8,48,8,4,0,0,1,,4,S,0,S,15,0.792895,0.006457,0.00512
8,49,6,1,0,0,1,,5,S,0,S,12,0.759837,0.014323,0.010883
8,50,1,3,0,0,1,,2,S,0,S,16,0.031595,0.759264,0.023989
8,51,8,1,0,0,1,,7,L,0,S,12,0.779483,3E-05,2.3E-05
8,52,7,9,0,0,1,,2,S,0,S,19,0.029854,0.769497,0.022972
8,53,2,3,0,0,1,,1,S,0,S,15,0.029712,0.756006,0.022462
8,54,1,2,0,0,1,,1,S,0,S,17,0.040749,0.754222,0.030733
8,55,8,5,0,0,1,,3,S,0,S,16,0.752326,0.0378,0.028438
8,56,5,9,0,0,1,,4,S,0,S,15,0.025379,0.766077,0.019442
8,57,6,7,0,0,0,,1,S,0,S,31,0.793746,0.015231,0.01209
8,58,5,7,0,0,1,,2,S,0,S,17,0.016645,0.781473,0.013008
8,59,1,4,0,0,1,,3,S,0,S,15,0.033479,0.755928,0.025308
8,60,5,6,0,0,1,,1,S,0,S,17,0.019206,0.779328,0.014967
8,61,5,8,0,0,1,,3,S,0,S,14,0.013946,0.774964,0.010808
8,62,2,6,0,0,1,,4,S,0,S,13,0.018577,0.761353,0.014144
8,63,4,8,0,0,1,,4,S,0,S,13,0.02735,0.752482,0.02058
8,64,1,9,0,0,1,,8,L,0,S,13,0.009156,0.776547,0.00711
8,65,4,1,0,0,1,,3,S,0,S,13,0.752919,0.025486,0.019189
8,66,7,2,0,0,1,,5,S,0,S,14,0.754869,0.029623,0.022362
8,67,9,4,0,0,1,,5,S,0,S,15,0.799321,0.001699,0.001358
8,68,9,3,0,0,1,,6,S,0,S,14,0.768107,0.020087,0.015429
8,69,1,8,0,0,1,,7,L,0,S,12,0.021185,0.750813,0.015906
8,70,8,9,0,0,1,,1,S,0,S,30,0.050922,0.752165,0.038302
8,71,7,1,0,0,1,,6,S,0,S,12,0.759094,0.012544,0.009522
8,72,9,8,0,0,0,,1,S,0,S,18,0.009924,0.796535,0.007905
9,1,7,6,0,0,1,,1,S,0,S,20,0.777599,0.025071,0.019495
9,2,1,8,0,0,1,,7,L,0,S,13,0,0.796444,0
9,3,9,2,0,0,1,,7,L,0,S,14,0.791262,0.001403,0.00111
9,4,5,3,0,0,1,,2,S,0,S,15,0.779624,0.015543,0.012118
9,5,6,3,0,0,1,,3,S,0,S,15,0.786699,0.008688,0.006835
9,6,6,2,0,0,1,,4,S,0,S,15,0.753232,0.034179,0.025745
9,7,1,2,0,0,1,,1,S,0,S,15,0.00553,0.789063,0.004364
9,8,9,8,0,0,1,,1,S,0,S,19,0.788972,0.013051,0.010297
9,9,2,7,0,0,1,,5,S,0,S,13,0.026602,0.751386,0.019988
9,10,6,9,0,0,1,,3,S,0,S,16,0.018117,0.774751,0.014037
9,11,2,9,0,0,1,,7,L,0,S,13,0.00719,0.77694,0.005586
9,12,3,1,0,0,1,,2,S,0,S,15,0.779306,0.017261,0.013451
9,13,5,1,0,0,1,,4,S,0,S,14,0.78348,0.008772,0.006872
9,14,9,5,0,0,1,,4,S,0,S,16,0.794408,0.005623,0.004467
9,15,9,3,0,0,1,,6,S,0,S,13,0.757572,0.022536,0.017072
9,16,2,1,0,0,1,,1,S,0,S,19,0.765723,0.035087,0.026867
9,17,8,6,0,0,1,,2,S,0,S,16,0.798904,0.002009,0.001605
9,18,1,9,0,0,1,,8,L,0,S,12,0.008345,0.763759,0.006373
9,19,1,4,0,0,1,,3,S,0,S,14,0,0.791285,0
9,20,8,7,0,0,1,,1,S,0,S,18,0.792815,0.008171,0.006478
9,21,8,2,0,0,1,,6,S,0,S,13,0.760132,0.020461,0.015553
9,22,7,2,0,0,1,,5,S,0,S,15,0.798953,0,0
9,23,8,9,0,0,0,,1,S,0,S,21,0.751505,0.043356,0.032582
9,24,4,9,0,0,1,,5,S,0,S,14,0.002602,0.788839,0.002052
9,25,3,5,0,0,1,,2,S,0,S,18,0.021545,0.782568,0.01686
9,26,6,5,0,0,1,,1,S,0,S,21,0.756252,0.042075,0.031819
9,27,7,5,0,0,1,,2,S,0,S,18,0.790856,0.012764,0.010095
9,28,4,2,0,0,1,,2,S,0,S,23,0.784657,0.021781,0.017091
9,29,1,6,0,0,1,,5,S,0,S,13,0.00483,0.779317,0.003764
9,30,7,4,0,0,1,,3,S,0,S,16,0.757596,0.033078,0.02506
9,31,3,7,0,0,1,,4,S,0,S,15,0.019235,0.77379,0.014884
9,32,5,4,0,0,1,,1,S,0,S,19,0.781859,0.019496,0.015243
9,33,8,1,0,0,1,,7,L,0,S,12,0.751165,0.020889,0.015691
9,34,7,9,0,0,1,,2,S,0,S,17,0.038685,0.752322,0.029104
9,35,1,5,0,0,1,,4,S,0,S,13,0.016998,0.763524,0.012978
9,36,2,5,0,0,1,,3,S,0,S,15,0.003859,0.795359,0.003069
9,37,2,8,0,0,1,,6,S,0,S,14,0,0.79695,0
9,38,4,1,0,0,1,,3,S,0,S,16,0.780566,0.017923,0.01399
9,39,8,5,0,0,1,,3,S,0,S,15,0.784591,0.0108,0.008474
9,40,3,9,0,0,1,,6,S,0,S,14,0.022414,0.764488,0.017135
9,41,8,4,0,0,1,,4,S,0,S,14,0.759864,0.024216,0.018401
9,42,6,4,0,0,1,,2,S,0,S,18,0.762972,0.031701,0.024187
9,43,7,8,0,0,1,,1,S,0,S,24,0.040936,0.758319,0.031043
9,44,6,8,0,0,1,,2,S,0,S,19,0.007405,0.795734,0.005892
9,45,4,8,0,0,1,,4,S,0,S,15,0.003076,0.794143,0.002443
9,46,9,4,0,0,1,,5,S,0,S,15,0.779152,0.012857,0.010018
9,47,1,7,0,0,1,,6,S,0,S,13,0,0.801265,0
9,48,5,8,0,0,1,,3,S,0,S,18,0.01737,0.783658,0.013612
9,49,2,4,0,0,1,,2,S,0,S,15,0.034763,0.753061,0.026179
9,50,9,7,0,0,1,,2,S,0,S,20,0.771541,0.026774,0.020657
9,51,5,9,0,0,1,,4,S,0,S,16,0.005557,0.792636,0.004404
9,52,5,6,0,0,1,,1,S,0,S,22,0.01216,0.795822,0.009677
9,53,2,3,0,0,1,,1,S,0,S,21,0.016249,0.79142,0.01286
9,54,6,1,0,0,1,,5,S,0,S,14,0.787769,0.0042,0.003308
9,55,4,6,0,0,1,,2,S,0,S,15,0.036576,0.752486,0.027523
9,56,4,5,0,0,1,,1,S,0,S,16,0.034667,0.759262,0.026321
9,57,7,1,0,0,1,,6,S,0,S,13,0.762585,0.019313,0.014728
9,58,9,1,0,0,1,,8,L,0,S,13,0.791369,0,0
9,59,4,7,0,0,1,,3,S,0,S,14,0.029131,0.75438,0.021976
9,60,1,3,0,0,1,,2,S,0,S,15,0.029095,0.759118,0.022087
9,61,2,6,0,0,1,,4,S,0,S,14,0.019513,0.769911,0.015023
9,62,8,3,0,0,1,,5,S,0,S,13,0.777401,0.007797,0.006061
9,63,5,7,0,0,1,,2,S,0,S,17,0.02695,0.768267,0.020705
9,64,5,2,0,0,1,,3,S,0,S,16,0.793547,0.007041,0.005587
9,65,3,2,0,0,1,,1,S,0,S,18,0.761797,0.037567,0.028619
9,66,7,3,0,0,1,,4,S,0,S,14,0.773583,0.015983,0.012364
9,67,3,8,0,0,1,,5,S,0,S,15,0.031913,0.758586,0.024209
9,68,3,4,0,0,1,,1,S,0,S,21,0.033651,0.768276,0.025853
9,69,4,3,0,0,1,,1,S,0,S,19,0.78281,0.021233,0.016621
9,70,6,7,0,0,1,,1,S,0,S,18,0.011681,0.787733,0.009202
9,71,3,6,0,0,1,,3,S,0,S,16,0.041649,0.751553,0.031301
9,72,9,6,0,0,1,,3,S,0,S,17,0.795934,0.006121,0.004872
10,1,8,7,0,0,1,,1,S,0,S,20,0.75153,0.045366,0.034094
10,2,4,6,0,0,1,,2,S,0,S,17,0.027141,0.770924,0.020924
10,3,3,5,0,0,1,,2,S,0,S,17,0.038827,0.752996,0.029237
10,4,6,9,0,0,1,,3,S,0,S,17,0.010413,0.789881,0.008225
10,5,2,1,0,0,1,,1,S,0,S,18,0.772237,0.025816,0.019936
10,6,2,9,0,0,1,,7,L,0,S,13,0.015925,0.765565,0.012192
10,7,2,7,0,0,1,,5,S,0,S,14,0.000476,0.792839,0.000378
10,8,3,8,0,0,1,,5,S,0,S,15,0.013161,0.783156,0.010307
10,9,6,3,0,0,1,,3,S,0,S,16,0.785947,0.012866,0.010112
10,10,9,3,0,0,1,,6,S,0,S,14,0.784019,0.009361,0.007339
10,11,8,4,0,0,1,,4,S,0,S,15,0.774414,0.019711,0.015264
10,12,3,2,0,0,1,,1,S,0,S,16,0.797994,0.002431,0.00194
10,13,6,4,0,0,1,,2,S,0,S,17,0.766557,0.030726,0.023554
10,14,3,1,0,0,1,,2,S,0,S,15,0.765136,0.024102,0.018441
10,15,2,4,0,0,1,,2,S,0,S,16,0.010913,0.789166,0.008612
10,16,7,4,0,0,1,,3,S,0,S,16,0.765818,0.02843,0.021772
10,17,9,1,0,0,1,,8,L,0,S,13,0.801124,0,0
10,18,6,7,0,0,1,,1,S,0,S,19,0.02606,0.774374,0.02018
10,19,4,3,0,0,1,,1,S,0,S,18,0.791283,0.011822,0.009354
10,20,6,5,0,0,1,,1,S,0,S,20,0.780115,0.021744,0.016963
10,21,4,7,0,0,1,,3,S,0,S,17,0.003802,0.798348,0.003035
10,22,1,5,0,0,1,,4,S,0,S,13,0.025476,0.75038,0.019117
10,23,8,5,0,0,1,,3,S,0,S,16,0.769756,0.024348,0.018742
10,24,7,1,0,0,1,,6,S,0,S,13,0.762169,0.017584,0.013402
10,25,7,5,0,0,1,,2,S,0,S,18,0.778453,0.020313,0.015812
10,26,3,4,0,0,1,,1,S,0,S,20,0.029651,0.772103,0.022893
10,27,5,3,0,0,1,,2,S,0,S,18,0.777615,0.02271,0.01766
10,28,5,8,0,0,1,,3,S,0,S,16,0.024471,0.772447,0.018902
10,29,1,9,0,0,1,,8,L,0,S,12,0.016205,0.754257,0.012223
10,30,1,3,0,0,1,,2,S,0,S,15,0,0.800059,0
10,31,7,2,0,0,1,,5,S,0,S,13,0.754719,0.024233,0.018289
10,32,3,7,0,0,1,,4,S,0,S,15,0.018901,0.772897,0.014608
10,33,9,5,0,0,1,,4,S,0,S,15,0.75854,0.031519,0.023908
10,34,8,9,0,0,1,,1,S,0,S,22,0.036642,0.763286,0.027968
10,35,4,2,0,0,1,,2,S,0,S,14,0.753409,0.030444,0.022936
10,36,6,2,0,0,1,,4,S,0,S,14,0.792119,0.001233,0.000977
10,37,5,9,0,0,1,,4,S,0,S,15,0.023144,0.766756,0.017746
10,38,9,6,0,0,1,,3,S,0,S,17,0.769232,0.030681,0.023601
10,39,9,4,0,0,1,,5,S,0,S,14,0.751824,0.034541,0.025969
10,40,9,2,0,0,1,,7,L,0,S,13,0.795827,0,0
10,41,9,8,0,0,1,,1,S,0,S,18,0.762773,0.038249,0.029175
10,42,4,9,0,0,1,,5,S,0,S,15,0.027906,0.760541,0.021224
10,43,1,2,0,0,1,,1,S,0,S,18,0.019686,0.778802,0.015331
10,44,3,6,0,0,1,,3,S,0,S,15,0.032566,0.757308,0.024663
10,45,5,6,0,0,1,,1,S,0,S,17,0.018477,0.781954,0.014448
10,46,3,9,0,0,1,,6,S,0,S,14,0.023386,0.76147,0.017808
10,47,5,2,0,0,1,,3,S,0,S,15,0.799919,0,0
10,48,6,8,0,0,1,,2,S,0,S,18,0.046526,0.750052,0.034897
10,49,4,1,0,0,1,,3,S,0,S,14,0.764705,0.020703,0.015832
10,50,6,1,0,0,1,,5,S,0,S,14,0.800285,0,0
10,51,1,7,0,0,1,,6,S,0,S,13,0,0.79195,0
10,52,7,3,0,0,1,,4,S,0,S,15,0.768053,0.02335,0.017934
10,53,4,5,0,0,1,,1,S,0,S,23,0.012954,0.792272,0.010263
10,54,2,3,0,0,1,,1,S,0,S,17,0.029063,0.768281,0.022329
10,55,7,8,0,0,1,,1,S,0,S,21,0.046512,0.75303,0.035025
10,56,9,7,0,0,1,,2,S,0,S,18,0.768411,0.031302,0.024053
10,57,7,9,0,0,1,,2,S,0,S,18,0.02172,0.776703,0.01687
10,58,2,5,0,0,1,,3,S,0,S,15,0.013349,0.780131,0.010414
10,59,2,6,0,0,1,,4,S,0,S,14,0.008382,0.784464,0.006576
10,60,8,2,0,0,1,,6,S,0,S,13,0.780585,0.005499,0.004292
10,61,1,4,0,0,1,,3,S,0,S,14,0.007904,0.782241,0.006183
10,62,5,7,0,0,1,,2,S,0,S,16,0.032539,0.759094,0.0247
10,63,4,8,0,0,1,,4,S,0,S,16,0.031216,0.763785,0.023842
10,64,8,1,0,0,1,,7,L,0,S,13,0.786573,0,0
10,65,8,3,0,0,1,,5,S,0,S,14,0.760402,0.026249,0.01996
10,66,7,6,0,0,1,,1,S,0,S,30,0.756988,0.044581,0.033747
10,67,5,1,0,0,1,,4,S,0,S,14,0.760388,0.024028,0.018271
10,68,8,6,0,0,1,,2,S,0,S,19,0.788075,0.017184,0.013542
10,69,1,8,0,0,1,,7,L,0,S,13,0,0.798239,0
10,70,2,8,0,0,1,,6,S,0,S,14,0,0.800549,0
10,71,5,4,0,0,1,,1,S,0,S,22,0.778211,0.026036,0.020262
10,72,1,6,0,0,1,,5,S,0,S,13,0,0.786976,0
11,1,4,9,0,0,1,,5,S,0,S,13,0.009345,0.773612,0.007229
11,2,1,2,0,0,1,,1,S,0,S,18,0.008508,0.79041,0.006725
11,3,5,8,0,0,1,,3,S,0,S,16,0.013,0.783591,0.010187
11,4,3,4,0,0,1,,1,S,0,S,20,0.046457,0.751536,0.034914
11,5,4,3,0,0,1,,1,S,0,S,19,0.782591,0.015926,0.012464
11,6,6,5,0,0,1,,1,S,0,S,26,0.76684,0.034543,0.026489
11,7,5,4,0,0,1,,1,S,0,S,15,0.783272,0.010202,0.007991
11,8,9,4,0,0,1,,5,S,0,S,13,0.76204,0.018159,0.013838
11,9,1,6,0,0,1,,5,S,0,S,13,0.0001,0.787073,7.9E-05
11,10,6,8,0,0,1,,2,S,0,S,14,0.022788,0.765448,0.017443
11,11,7,1,0,0,1,,6,S,0,S,12,0.761862,0.013538,0.010314
11,12,1,7,0,0,1,,6,S,0,S,13,0,0.786311,0
11,13,3,9,0,0,1,,6,S,0,S,12,0.01622,0.758086,0.012296
11,14,6,7,0,0,1,,1,S,0,S,16,0.018311,0.778705,0.014259
11,15,9,1,0,0,1,,8,L,0,S,12,0.780497,0,0
11,16,7,2,0,0,1,,5,S,0,S,13,0.762985,0.018787,0.014334
11,17,5,2,0,0,1,,3,S,0,S,14,0.779324,0.00829,0.00646
11,18,6,4,0,0,1,,2,S,0,S,17,0.790448,0.011796,0.009324
11,19,8,9,0,0,1,,1,S,0,S,16,0.025665,0.767252,0.019692
11,20,7,9,0,0,1,,2,S,0,S,15,0.022945,0.770667,0.017683
11,21,2,9,0,0,1,,7,L,0,S,12,0,0.789242,0
11,22,7,3,0,0,1,,4,S,0,S,14,0.77114,0.016604,0.012804
11,23,1,9,0,0,1,,8,L,0,S,12,0,0.789622,0
11,24,8,7,0,0,1,,1,S,0,S,19,0.78519,0.016015,0.012575
11,25,8,6,0,0,1,,2,S,0,S,18,0.774488,0.026107,0.020219
11,26,8,4,0,0,1,,4,S,0,S,14,0.797823,0,0
11,27,4,2,0,0,1,,2,S,0,S,16,0.778099,0.015873,0.012351
11,28,2,6,0,0,1,,4,S,0,S,13,0.003197,0.785254,0.00251
11,29,8,3,0,0,1,,5,S,0,S,14,0.789711,0,0
11,30,4,8,0,0,1,,4,S,0,S,14,0.005931,0.785004,0.004656
11,31,4,6,0,0,1,,2,S,0,S,15,0.030437,0.760144,0.023136
11,32,2,7,0,0,1,,5,S,0,S,13,0.001447,0.784682,0.001135
11,33,9,8,0,0,0,,1,S,0,S,28,0.027428,0.775977,0.021283
11,34,6,9,0,0,1,,3,S,0,S,13,0.021493,0.759829,0.016331
11,35,5,9,0,0,1,,4,S,0,S,14,0.026867,0.756473,0.020324
11,36,3,2,0,0,1,,1,S,0,S,20,0.782659,0.020089,0.015722
11,37,9,3,0,0,1,,6,S,0,S,13,0.754458,0.021618,0.01631
11,38,4,7,0,0,1,,3,S,0,S,15,0.025048,0.763795,0.019131
11,39,9,2,0,0,1,,7,L,0,S,13,0.790294,0,0
11,40,1,4,0,0,1,,3,S,0,S,16,0,0.799332,0
11,41,6,1,0,0,1,,5,S,0,S,13,0.758221,0.022058,0.016725
11,42,5,7,0,0,1,,2,S,0,S,20,0.019873,0.780798,0.015517
11,43,7,5,0,0,1,,2,S,0,S,15,0.751436,0.036277,0.02726
11,44,9,6,0,0,1,,3,S,0,S,17,0.791658,0.010706,0.008476
11,45,8,1,0,0,1,,7,L,0,S,12,0.770477,0.004928,0.003797
11,46,9,5,0,0,1,,4,S,0,S,14,0.757474,0.024888,0.018852
11,47,3,6,0,0,1,,3,S,0,S,14,0.008061,0.786579,0.006341
11,48,1,3,0,0,1,,2,S,0,S,16,0,0.797221,0
11,49,6,2,0,0,1,,4,S,0,S,15,0.772558,0.019398,0.014986
11,50,4,1,0,0,1,,3,S,0,S,14,0.787061,0.003201,0.002519
11,51,2,1,0,0,1,,1,S,0,S,18,0.767997,0.028951,0.022234
11,52,5,3,0,0,1,,2,S,0,S,15,0.772784,0.015869,0.012263
11,53,3,7,0,0,1,,4,S,0,S,14,0.005202,0.787247,0.004095
11,54,3,5,0,0,1,,2,S,0,S,16,0.022414,0.771925,0.017302
11,55,8,2,0,0,1,,6,S,0,S,13,0.776485,0.006177,0.004796
11,56,5,6,0,0,1,,1,S,0,S,21,0.015895,0.790177,0.01256
11,57,2,4,0,0,1,,2,S,0,S,16,0.008613,0.790408,0.006808
11,58,5,1,0,0,1,,4,S,0,S,13,0.79175,0,0
11,59,2,5,0,0,1,,3,S,0,S,14,0.020062,0.765046,0.015349
11,60,3,1,0,0,1,,2,S,0,S,15,0.776093,0.01717,0.013325
11,61,7,8,0,0,1,,1,S,0,S,17,0.037472,0.759506,0.02846
11,62,2,8,0,0,1,,6,S,0,S,12,0.010562,0.765098,0.008081
11,63,1,5,0,0,1,,4,S,0,S,14,0.01491,0.769311,0.01147
11,64,7,4,0,0,1,,3,S,0,S,14,0.779855,0.012231,0.009539
11,65,2,3,0,0,1,,1,S,0,S,16,0.007399,0.788768,0.005836
11,66,4,5,0,0,1,,1,S,0,S,21,0.021707,0.778171,0.016892
11,67,6,3,0,0,1,,3,S,0,S,17,0.775127,0.021278,0.016493
11,68,1,8,0,0,1,,7,L,0,S,12,0.008241,0.766033,0.006313
11,69,3,8,0,0,1,,5,S,0,S,13,0.004334,0.783153,0.003394
11,70,7,6,0,0,1,,1,S,0,S,21,0.770831,0.035065,0.027029
11,71,9,7,0,0,1,,2,S,0,S,17,0.766542,0.027795,0.021306
11,72,8,5,0,0,1,,3,S,0,S,15,0.782901,0.009203,0.007205
12,1,6,1,0,0,1,,5,S,0,S,12,0.754933,0.01714,0.01294
12,2,7,5,0,0,1,,2,S,0,S,19,0.781167,0.018935,0.014792
12,3,8,1,0,0,1,,7,L,0,S,12,0.782998,0,0
12,4,3,6,0,0,1,,3,S,0,S,18,0.01533,0.788642,0.01209
12,5,8,5,0,0,1,,3,S,0,S,16,0.789232,0.009281,0.007325
12,6,5,4,0,0,1,,1,S,0,S,25,0.787447,0.021153,0.016657
12,7,2,5,0,0,1,,3,S,0,S,13,0.021581,0.75885,0.016377
12,8,7,1,0,0,1,,6,S,0,S,12,0.754271,0.01591,0.012
12,9,7,9,0,0,1,,2,S,0,S,17,0.022465,0.776052,0.017434
12,10,8,9,0,0,1,,1,S,0,S,25,0.032877,0.772395,0.025394
12,11,7,6,0,0,1,,1,S,0,S,17,0.774499,0.022767,0.017633
12,12,8,7,0,0,1,,1,S,0,S,19,0.785239,0.016785,0.01318
12,13,7,4,0,0,1,,3,S,0,S,17,0.795414,0.005506,0.00438
12,14,2,1,0,0,1,,1,S,0,S,17,0.757209,0.035635,0.026983
12,15,9,8,0,0,1,,1,S,0,S,21,0.785841,0.01923,0.015112
12,16,9,1,0,0,1,,8,L,0,S,12,0.772277,0.00298,0.002301
12,17,8,3,0,0,1,,5,S,0,S,13,0.755741,0.023642,0.017868
12,18,4,1,0,0,1,,3,S,0,S,14,0.765923,0.019931,0.015266
12,19,6,5,0,0,1,,1,S,0,S,19,0.760689,0.03747,0.028503
12,20,9,4,0,0,1,,5,S,0,S,15,0.761739,0.027293,0.02079
12,21,9,6,0,0,1,,3,S,0,S,16,0.798074,0.002498,0.001994
12,22,5,1,0,0,1,,4,S,0,S,13,0.778432,0.007062,0.005497
12,23,1,6,0,0,1,,5,S,0,S,12,0.01188,0.762596,0.009059
12,24,3,7,0,0,1,,4,S,0,S,15,0.004453,0.792175,0.003527
12,25,4,9,0,0,1,,5,S,0,S,13,0.020436,0.762697,0.015586
12,26,6,2,0,0,1,,4,S,0,S,14,0.798126,0,0
12,27,4,6,0,0,1,,2,S,0,S,16,0.023712,0.772782,0.018324
12,28,1,9,0,0,1,,8,L,0,S,11,0.009527,0.755337,0.007196
12,29,7,2,0,0,1,,5,S,0,S,14,0.798546,0,0
12,30,2,9,0,0,1,,7,L,0,S,12,0.011426,0.766047,0.008753
12,31,8,6,0,0,1,,2,S,0,S,15,0.780586,0.014466,0.011292
12,32,1,8,0,0,1,,7,L,0,S,12,0,0.797777,0
12,33,6,3,0,0,1,,3,S,0,S,14,0.753963,0.030717,0.023159
12,34,1,5,0,0,1,,4,S,0,S,12,0.003498,0.772635,0.002702
12,35,1,3,0,0,1,,2,S,0,S,13,0.013541,0.767619,0.010394
12,36,4,2,0,0,1,,2,S,0,S,18,0.774011,0.027827,0.021538
12,37,5,9,0,0,1,,4,S,0,S,15,0.002628,0.799203,0.0021
12,38,5,3,0,0,1,,2,S,0,S,16,0.7716,0.025186,0.019434
12,39,2,4,0,0,1,,2,S,0,S,14,0.007644,0.784227,0.005995
12,40,6,7,0,0,1,,1,S,0,S,20,0.026225,0.775442,0.020336
12,41,7,8,0,0,1,,1,S,0,S,22,0.012586,0.794228,0.009996
12,42,2,6,0,0,1,,4,S,0,S,14,0.000403,0.794501,0.00032
12,43,6,9,0,0,1,,3,S,0,S,17,0.008391,0.796571,0.006684
12,44,9,3,0,0,1,,6,S,0,S,14,0.790479,0.001144,0.000904
12,45,5,2,0,0,1,,3,S,0,S,15,0.790868,0.009419,0.007449
12,46,4,8,0,0,1,,4,S,0,S,14,0.014177,0.77725,0.011019
12,47,4,7,0,0,1,,3,S,0,S,14,0.013468,0.775379,0.010443
12,48,2,7,0,0,1,,5,S,0,S,13,0,0.794829,0
12,49,3,5,0,0,1,,2,S,0,S,16,0.036788,0.754841,0.027769
12,50,5,8,0,0,1,,3,S,0,S,16,0.019887,0.780668,0.015525
12,51,2,8,0,0,1,,6,S,0,S,13,0,0.797173,0
12,52,4,3,0,0,1,,1,S,0,S,28,0.774225,0.029774,0.023052
12,53,1,7,0,0,1,,6,S,0,S,12,0,0.795384,0
12,54,6,8,0,0,1,,2,S,0,S,20,0.040291,0.761023,0.030663
12,55,2,3,0,0,1,,1,S,0,S,16,0.004564,0.795887,0.003633
12,56,8,4,0,0,1,,4,S,0,S,15,0.791204,0.005496,0.004348
12,57,5,7,0,0,1,,2,S,0,S,16,0.017475,0.780754,0.013644
12,58,3,2,0,0,1,,1,S,0,S,16,0.766841,0.029879,0.022912
12,59,3,8,0,0,1,,5,S,0,S,15,0.005493,0.793672,0.004359
12,60,9,7,0,0,1,,2,S,0,S,22,0.790948,0.013007,0.010288
12,61,8,2,0,0,1,,6,S,0,S,13,0.788207,0.001076,0.000848
12,62,5,6,0,0,1,,1,S,0,S,26,0.037396,0.768531,0.02874
12,63,6,4,0,0,1,,2,S,0,S,17,0.78841,0.013207,0.010413
12,64,3,4,0,0,1,,1,S,0,S,19,0.009339,0.796642,0.00744
12,65,9,5,0,0,1,,4,S,0,S,17,0.795731,0.005106,0.004063
12,66,1,4,0,0,1,,3,S,0,S,12,0.015982,0.756222,0.012086
12,67,9,2,0,0,1,,7,L,0,S,13,0.772919,0.011745,0.009078
12,68,1,2,0,0,1,,1,S,0,S,14,0,0.794594,0
12,69,4,5,0,0,1,,1,S,0,S,15,0.027836,0.76214,0.021215
12,70,3,9,0,0,1,,6,S,0,S,14,0.004719,0.790167,0.003729
12,71,3,1,0,0,1,,2,S,0,S,14,0.796398,0,0
12,72,7,3,0,0,1,,4,S,0,S,14,0.755591,0.027469,0.020755
13,1,6,4,0,0,1,,2,S,0,S,16,0.75813,0.032921,0.024959
13,2,3,6,0,0,1,,3,S,0,S,16,0.001781,0.798439,0.001422
13,3,9,2,0,0,1,,7,L,0,S,13,0.804707,0,0
13,4,7,4,0,0,1,,3,S,0,S,15,0.752731,0.034579,0.026029
13,5,1,8,0,0,1,,7,L,0,S,13,0,0.798902,0
13,6,8,4,0,0,1,,4,S,0,S,15,0.75116,0.03547,0.026644
13,7,5,9,0,0,1,,4,S,0,S,16,0.032822,0.764027,0.025077
13,8,8,7,0,0,1,,1,S,0,S,21,0.78089,0.024013,0.018751
13,9,2,5,0,0,1,,3,S,0,S,15,0.033662,0.753513,0.025365
13,10,6,1,0,0,1,,5,S,0,S,14,0.799082,0,0
13,11,9,1,0,0,1,,8,L,0,S,12,0.783429,0,0
13,12,1,6,0,0,1,,5,S,0,S,13,0.007525,0.772974,0.005817
13,13,8,5,0,0,1,,3,S,0,S,16,0.757399,0.034076,0.025809
13,14,2,3,0,0,1,,1,S,0,S,20,0.028312,0.772089,0.02186
13,15,8,1,0,0,1,,7,L,0,S,13,0.764349,0.016218,0.012397
13,16,5,8,0,0,1,,3,S,0,S,16,0.038004,0.752257,0.028588
13,17,2,8,0,0,1,,6,S,0,S,13,0.025043,0.75148,0.018819
13,18,6,9,0,0,1,,3,S,0,S,18,0.015014,0.789672,0.011856
13,19,7,2,0,0,1,,5,S,0,S,14,0.75386,0.031025,0.023389
13,20,5,4,0,0,1,,1,S,0,S,18,0.794195,0.009735,0.007732
13,21,1,5,0,0,1,,4,S,0,S,14,0.002345,0.787418,0.001847
13,22,9,4,0,0,1,,5,S,0,S,13,0.780166,0.00467,0.003643
13,23,7,1,0,0,1,,6,S,0,S,13,0.765324,0.015763,0.012064
13,24,1,4,0,0,1,,3,S,0,S,14,0.020398,0.763153,0.015567
13,25,6,7,0,0,1,,1,S,0,S,25,0.047094,0.753666,0.035493
13,26,9,8,0,0,1,,1,S,0,S,15,0.768315,0.021355,0.016408
13,27,8,9,0,0,1,,1,S,0,S,20,0.028784,0.775251,0.022315
13,28,9,6,0,0,1,,3,S,0,S,14,0.768208,0.017799,0.013673
13,29,3,2,0,0,1,,1,S,0,S,21,0.786362,0.019891,0.015641
13,30,1,3,0,0,1,,2,S,0,S,15,0.033163,0.752317,0.024949
13,31,6,2,0,0,1,,4,S,0,S,15,0.774515,0.018575,0.014387
13,32,4,9,0,0,1,,5,S,0,S,15,0.013194,0.785543,0.010365
13,33,5,7,0,0,1,,2,S,0,S,19,0.032684,0.769761,0.025159
13,34,2,1,0,0,1,,1,S,0,S,19,0.788131,0.013377,0.010543
13,35,1,9,0,0,1,,8,L,0,S,12,0.021135,0.750446,0.015861
13,36,5,2,0,0,1,,3,S,0,S,16,0.788355,0.011964,0.009432
13,37,7,8,0,0,1,,1,S,0,S,20,0.040284,0.755761,0.030445
13,38,3,8,0,0,1,,5,S,0,S,14,0.029024,0.75478,0.021907
13,39,2,7,0,0,1,,5,S,0,S,14,0.014998,0.774863,0.011621
13,40,8,6,0,0,1,,2,S,0,S,21,0.780406,0.021115,0.016478
13,41,4,7,0,0,1,,3,S,0,S,16,0.03323,0.762649,0.025343
13,42,8,3,0,0,1,,5,S,0,S,14,0.766737,0.020404,0.015644
13,43,3,1,0,0,1,,2,S,0,S,16,0.79675,0.003502,0.00279
13,44,9,7,0,0,1,,2,S,0,S,14,0.773437,0.016522,0.012779
13,45,4,3,0,0,1,,1,S,0,S,17,0.775139,0.024252,0.018799
13,46,6,8,0,0,1,,2,S,0,S,18,0.02192,0.775781,0.017005
13,47,6,3,0,0,1,,3,S,0,S,15,0.791321,0.005042,0.00399
13,48,2,6,0,0,1,,4,S,0,S,14,0.018471,0.766758,0.014163
13,49,2,4,0,0,1,,2,S,0,S,16,0.032809,0.757763,0.024861
13,50,5,1,0,0,1,,4,S,0,S,14,0.780162,0.01023,0.007981
13,51,3,5,0,0,1,,2,S,0,S,18,0.02907,0.770209,0.02239
13,52,7,3,0,0,1,,4,S,0,S,14,0.767933,0.019785,0.015193
13,53,6,5,0,0,1,,1,S,0,S,18,0.793352,0.009448,0.007496
13,54,9,3,0,0,1,,6,S,0,S,12,0.755555,0.017309,0.013078
13,55,4,6,0,0,1,,2,S,0,S,16,0.039184,0.751111,0.029431
13,56,4,8,0,0,1,,4,S,0,S,15,0.017254,0.775536,0.013381
13,57,4,2,0,0,1,,2,S,0,S,18,0.78222,0.020815,0.016282
13,58,4,5,0,0,1,,1,S,0,S,21,0.036573,0.764981,0.027977
13,59,3,7,0,0,1,,4,S,0,S,15,0.032864,0.758699,0.024934
13,60,2,9,0,0,1,,7,L,0,S,13,0.022308,0.759695,0.016947
13,61,3,9,0,0,1,,6,S,0,S,14,0.025588,0.764045,0.01955
13,62,1,2,0,0,1,,1,S,0,S,15,0.017032,0.773894,0.013181
13,63,7,9,0,0,1,,2,S,0,S,20,0.030632,0.773376,0.02369
13,64,7,5,0,0,1,,2,S,0,S,16,0.759288,0.032935,0.025007
13,65,1,7,0,0,1,,6,S,0,S,13,0.004939,0.77976,0.003851
13,66,5,3,0,0,1,,2,S,0,S,15,0.760138,0.030595,0.023256
13,67,4,1,0,0,1,,3,S,0,S,15,0.785605,0.009889,0.007769
13,68,8,2,0,0,1,,6,S,0,S,14,0.752592,0.03169,0.02385
13,69,7,6,0,0,1,,1,S,0,S,21,0.785274,0.01758,0.013805
13,70,9,5,0,0,1,,4,S,0,S,13,0.764043,0.017228,0.013163
13,71,5,6,0,0,1,,1,S,0,S,19,0.044047,0.751289,0.033092
13,72,3,4,0,0,1,,1,S,0,S,21,0.029767,0.772268,0.022988
14,1,9,5,0,0,1,,4,S,0,S,15,0.762396,0.027688,0.021109
14,2,5,1,0,0,1,,4,S,0,S,13,0.799096,0,0
14,3,6,1,0,0,1,,5,S,0,S,13,0.791745,0,0
14,4,7,3,0,0,1,,4,S,0,S,15,0.791505,0.003997,0.003163
14,5,4,7,0,0,1,,3,S,0,S,15,0.014153,0.781849,0.011066
14,6,6,8,0,0,1,,2,S,0,S,16,0.029293,0.762272,0.022329
14,7,7,4,0,0,1,,3,S,0,S,15,0.781972,0.010772,0.008423
14,8,4,9,0,0,1,,5,S,0,S,13,0.02525,0.755221,0.019069
14,9,3,8,0,0,1,,5,S,0,S,14,0.014751,0.771399,0.011379
14,10,3,1,0,0,1,,2,S,0,S,14,0.782839,0.006222,0.004871
14,11,1,4,0,0,1,,3,S,0,S,16,0.00194,0.795388,0.001543
14,12,7,9,0,0,1,,2,S,0,S,15,0.028512,0.760465,0.021682
14,13,7,6,0,0,1,,1,S,0,S,19,0.764921,0.03507,0.026826
14,14,7,8,0,0,1,,1,S,0,S,20,0.039979,0.754572,0.030167
14,15,8,3,0,0,1,,5,S,0,S,13,0.773342,0.010427,0.008063
14,16,2,6,0,0,1,,4,S,0,S,14,0,0.799906,0
14,17,6,4,0,0,1,,2,S,0,S,17,0.79003,0.010411,0.008225
14,18,3,9,0,0,1,,6,S,0,S,13,0.000961,0.785535,0.000755
14,19,1,8,0,0,1,,7,L,0,S,13,0.00143,0.781413,0.001117
14,20,9,7,0,0,1,,2,S,0,S,23,0.79341,0.014588,0.011575
14,21,1,2,0,0,1,,1,S,0,S,17,0.011812,0.787195,0.009298
14,22,9,3,0,0,1,,6,S,0,S,14,0.782956,0.008135,0.006369
14,23,8,7,0,0,1,,1,S,0,S,17,0.792862,0.009629,0.007635
14,24,1,5,0,0,1,,4,S,0,S,14,0.018985,0.765967,0.014542
14,25,2,5,0,0,1,,3,S,0,S,14,0.025905,0.759578,0.019677
14,26,8,1,0,0,1,,7,L,0,S,12,0.804826,0,0
14,27,6,2,0,0,1,,4,S,0,S,15,0.75594,0.03348,0.025309
14,28,8,6,0,0,1,,2,S,0,S,15,0.793283,0.005799,0.004601
14,29,5,4,0,0,1,,1,S,0,S,16,0.771371,0.022228,0.017146
14,30,4,2,0,0,1,,2,S,0,S,17,0.789672,0.0128,0.010108
14,31,2,7,0,0,1,,5,S,0,S,13,0.002294,0.785338,0.001802
14,32,5,6,0,0,1,,1,S,0,S,23,0.036942,0.766495,0.028316
14,33,7,1,0,0,1,,6,S,0,S,12,0.763577,0.009624,0.007349
14,34,4,1,0,0,1,,3,S,0,S,13,0.770664,0.012136,0.009353
14,35,8,4,0,0,1,,4,S,0,S,13,0.767524,0.014254,0.01094
14,36,1,6,0,0,1,,5,S,0,S,13,0.027664,0.750847,0.020772
14,37,2,1,0,0,1,,1,S,0,S,16,0.798132,0.001416,0.00113
14,38,2,4,0,0,1,,2,S,0,S,16,0.013456,0.783441,0.010542
14,39,5,2,0,0,1,,3,S,0,S,15,0.776349,0.016961,0.013168
14,40,8,2,0,0,1,,6,S,0,S,13,0.791247,0,0
14,41,4,3,0,0,1,,1,S,0,S,18,0.757077,0.039359,0.029798
14,42,6,9,0,0,1,,3,S,0,S,14,0.012802,0.777432,0.009953
14,43,2,8,0,0,1,,6,S,0,S,13,0.005264,0.778758,0.004099
14,44,8,9,0,0,1,,1,S,0,S,23,0.0152,0.791677,0.012034
14,45,3,7,0,0,1,,4,S,0,S,14,0.010567,0.779706,0.008239
14,46,4,6,0,0,1,,2,S,0,S,17,0.021917,0.780227,0.0171
14,47,5,7,0,0,1,,2,S,0,S,17,0.011934,0.789264,0.009419
14,48,7,5,0,0,1,,2,S,0,S,17,0.787393,0.011891,0.009363
14,49,4,5,0,0,1,,1,S,0,S,20,0.038858,0.760473,0.029551
14,50,6,7,0,0,1,,1,S,0,S,16,0.021693,0.775094,0.016814
14,51,5,9,0,0,1,,4,S,0,S,14,0.025248,0.760302,0.019196
14,52,6,3,0,0,1,,3,S,0,S,16,0.757701,0.03428,0.025974
14,53,9,6,0,0,1,,3,S,0,S,16,0.751181,0.041861,0.031445
14,54,2,3,0,0,1,,1,S,0,S,16,0.02198,0.773374,0.016999
14,55,8,5,0,0,1,,3,S,0,S,14,0.776576,0.012783,0.009927
14,56,1,7,0,0,1,,6,S,0,S,13,0,0.787944,0
14,57,9,8,0,0,1,,1,S,0,S,22,0.775803,0.025693,0.019933
14,58,3,2,0,0,1,,1,S,0,S,21,0.763421,0.036339,0.027742
14,59,2,9,0,0,1,,7,L,0,S,12,0.005897,0.771617,0.00455
14,60,3,5,0,0,1,,2,S,0,S,17,0.007038,0.793768,0.005586
14,61,7,2,0,0,1,,5,S,0,S,14,0.770112,0.017589,0.013546
14,62,5,3,0,0,1,,2,S,0,S,16,0.784926,0.012284,0.009642
14,63,4,8,0,0,1,,4,S,0,S,15,0.019733,0.771715,0.015228
14,64,1,9,0,0,1,,8,L,0,S,12,0.003142,0.773039,0.002429
14,65,3,4,0,0,1,,1,S,0,S,22,0.026264,0.774667,0.020346
14,66,9,1,0,0,1,,8,L,0,S,12,0.783099,0,0
14,67,9,4,0,0,1,,5,S,0,S,14,0.775433,0.013313,0.010324
14,68,5,8,0,0,1,,3,S,0,S,17,0.021085,0.774542,0.016331
14,69,6,5,0,0,1,,1,S,0,S,22,0.755416,0.043417,0.032798
14,70,3,6,0,0,1,,3,S,0,S,15,0.024339,0.768476,0.018704
14,71,9,2,0,0,1,,7,L,0,S,13,0.752809,0.026812,0.020184
14,72,1,3,0,0,1,,2,S,0,S,16,0.009334,0.786751,0.007343
15,1,3,2,0,0,1,,1,S,0,S,20,0.778054,0.020956,0.016305
15,2,7,9,0,0,1,,2,S,0,S,15,0.035012,0.751952,0.026327
15,3,4,3,0,0,1,,1,S,0,S,18,0.764718,0.031497,0.024086
15,4,7,4,0,0,1,,3,S,0,S,17,0.762246,0.032315,0.024632
15,5,8,4,0,0,1,,4,S,0,S,14,0.780623,0.009822,0.007667
15,6,1,8,0,0,1,,7,L,0,S,13,0.014613,0.767452,0.011215
15,7,9,4,0,0,1,,5,S,0,S,13,0.775403,0.008458,0.006559
15,8,5,1,0,0,1,,4,S,0,S,15,0.793426,0.000219,0.000174
15,9,9,7,0,0,1,,2,S,0,S,14,0.766729,0.019407,0.01488
15,10,5,8,0,0,1,,3,S,0,S,17,0.016841,0.782353,0.013175
15,11,6,4,0,0,1,,2,S,0,S,17,0.78043,0.017959,0.014016
15,12,2,6,0,0,1,,4,S,0,S,15,0.020102,0.774159,0.015562
15,13,1,6,0,0,1,,5,S,0,S,14,0.004824,0.787552,0.003799
15,14,5,6,0,0,1,,1,S,0,S,21,0.014651,0.791529,0.011597
15,15,7,3,0,0,1,,4,S,0,S,16,0.798109,0.000772,0.000616
15,16,4,2,0,0,1,,2,S,0,S,18,0.791436,0.009862,0.007805
15,17,8,5,0,0,1,,3,S,0,S,14,0.764304,0.024089,0.018411
15,18,9,3,0,0,1,,6,S,0,S,13,0.799018,0,0
15,19,7,8,0,0,1,,1,S,0,S,19,0.034943,0.762867,0.026657
15,20,9,6,0,0,1,,3,S,0,S,14,0.797388,0,0
15,21,1,7,0,0,1,,6,S,0,S,13,0.022823,0.755669,0.017247
15,22,7,6,0,0,1,,1,S,0,S,22,0.759831,0.040375,0.030678
15,23,7,1,0,0,1,,6,S,0,S,14,0.776278,0.009816,0.00762
15,24,4,1,0,0,1,,3,S,0,S,15,0.765582,0.02239,0.017141
15,25,2,7,0,0,1,,5,S,0,S,14,0.028785,0.756011,0.021762
15,26,4,8,0,0,1,,4,S,0,S,16,0.013446,0.784914,0.010554
15,27,4,5,0,0,1,,1,S,0,S,20,0.048144,0.750933,0.036153
15,28,8,2,0,0,1,,6,S,0,S,13,0.765265,0.015047,0.011515
15,29,1,9,0,0,1,,8,L,0,S,12,0.018747,0.752847,0.014114
15,30,3,6,0,0,1,,3,S,0,S,17,0.008955,0.792428,0.007096
15,31,9,2,0,0,1,,7,L,0,S,13,0.802756,0,0
15,32,3,1,0,0,1,,2,S,0,S,16,0.772758,0.018175,0.014045
15,33,1,5,0,0,1,,4,S,0,S,14,0.021628,0.766768,0.016584
15,34,4,9,0,0,1,,5,S,0,S,14,0.016099,0.772626,0.012439
15,35,4,6,0,0,1,,2,S,0,S,18,0.025268,0.775703,0.019601
15,36,6,1,0,0,1,,5,S,0,S,14,0.782428,0.005074,0.00397
15,37,9,1,0,0,1,,8,L,0,S,12,0.775106,3.9E-05,3.1E-05
15,38,6,2,0,0,1,,4,S,0,S,15,0.770129,0.019307,0.014869
15,39,2,1,0,0,1,,1,S,0,S,18,0.770131,0.025676,0.019774
15,40,5,4,0,0,1,,1,S,0,S,20,0.766552,0.032853,0.025183
15,41,2,5,0,0,1,,3,S,0,S,16,0.01215,0.789146,0.009588
15,42,8,9,0,0,0,,1,S,0,S,24,0.785674,0.019701,0.015479
15,43,3,5,0,0,1,,2,S,0,S,18,0.024281,0.776295,0.018849
15,44,2,3,0,0,1,,1,S,0,S,20,0.034685,0.763908,0.026496
15,45,3,4,0,0,1,,1,S,0,S,20,0.033067,0.765311,0.025306
15,46,5,2,0,0,1,,3,S,0,S,16,0.752941,0.035608,0.026811
15,47,6,9,0,0,1,,3,S,0,S,16,0.008103,0.790142,0.006402
15,48,5,9,0,0,1,,4,S,0,S,15,0.000502,0.796666,0.0004
15,49,1,4,0,0,1,,3,S,0,S,15,0.005261,0.790482,0.004159
15,50,6,8,0,0,1,,2,S,0,S,20,0.031169,0.768703,0.02396
15,51,9,8,0,0,1,,1,S,0,S,14,0.753649,0.030093,0.022679
15,52,2,9,0,0,1,,7,L,0,S,13,0.010074,0.774531,0.007802
15,53,8,7,0,0,1,,1,S,0,S,16,0.787512,0.010358,0.008157
15,54,8,3,0,0,1,,5,S,0,S,13,0.760029,0.019403,0.014747
15,55,3,8,0,0,1,,5,S,0,S,15,0.021121,0.769666,0.016256
15,56,5,3,0,0,1,,2,S,0,S,17,0.783916,0.01404,0.011006
15,57,8,6,0,0,1,,2,S,0,S,15,0.785971,0.010265,0.008068
15,58,3,7,0,0,1,,4,S,0,S,16,0.002254,0.796463,0.001795
15,59,1,2,0,0,1,,1,S,0,S,16,0.034195,0.754496,0.0258
15,60,4,7,0,0,1,,3,S,0,S,16,0.035361,0.755892,0.026729
15,61,3,9,0,0,1,,6,S,0,S,14,0.000201,0.791707,0.000159
15,62,6,7,0,0,1,,1,S,0,S,23,0.032734,0.767651,0.025129
15,63,2,4,0,0,1,,2,S,0,S,17,0.011289,0.790519,0.008924
15,64,2,8,0,0,1,,6,S,0,S,14,0.016994,0.77232,0.013125
15,65,6,5,0,0,1,,1,S,0,S,18,0.773063,0.027385,0.02117
15,66,7,2,0,0,1,,5,S,0,S,15,0.760377,0.026886,0.020443
15,67,9,5,0,0,1,,4,S,0,S,13,0.764615,0.018232,0.013941
15,68,8,1,0,0,1,,7,L,0,S,13,0.800617,0,0
15,69,5,7,0,0,1,,2,S,0,S,18,0.012162,0.789251,0.009599
15,70,1,3,0,0,1,,2,S,0,S,16,0.020556,0.77269,0.015883
15,71,7,5,0,0,1,,2,S,0,S,19,0.792486,0.013212,0.010471
15,72,6,3,0,0,1,,3,S,0,S,15,0.759273,0.028146,0.02137
16,1,8,3,0,0,1,,5,S,0,S,14,0.753324,0.031079,0.023413
16,2,8,1,0,0,1,,7,L,0,S,12,0.756863,0.017645,0.013355
16,3,6,8,0,0,1,,2,S,0,S,19,0.009826,0.79495,0.007811
16,4,4,3,0,0,1,,1,S,0,S,21,0.768913,0.02992,0.023006
16,5,7,4,0,0,1,,3,S,0,S,16,0.794014,0.006872,0.005456
16,6,9,3,0,0,1,,6,S,0,S,14,0.763317,0.020761,0.015847
16,7,4,1,0,0,1,,3,S,0,S,14,0.779071,0.010277,0.008007
16,8,1,4,0,0,1,,3,S,0,S,14,0.008047,0.781896,0.006292
16,9,7,9,0,0,1,,2,S,0,S,17,0.010268,0.792881,0.008141
16,10,5,6,0,0,1,,1,S,0,S,24,0.043497,0.756471,0.032904
16,11,1,7,0,0,1,,6,S,0,S,13,0.00656,0.775352,0.005087
16,12,4,6,0,0,1,,2,S,0,S,18,0.022457,0.773438,0.017369
16,13,7,6,0,0,1,,1,S,0,S,16,0.767824,0.026097,0.020038
16,14,4,9,0,0,1,,5,S,0,S,14,0,0.802019,0
16,15,1,5,0,0,1,,4,S,0,S,13,0.01601,0.765906,0.012262
16,16,3,8,0,0,1,,5,S,0,S,13,0.02706,0.752398,0.02036
16,17,4,5,0,0,1,,1,S,0,S,16,0.027801,0.764617,0.021257
16,18,2,4,0,0,1,,2,S,0,S,14,0.022831,0.763696,0.017436
16,19,4,7,0,0,1,,3,S,0,S,16,0.001608,0.79469,0.001277
16,20,8,7,0,0,1,,1,S,0,S,21,0.76464,0.033969,0.025974
16,21,2,9,0,0,1,,7,L,0,S,12,0.009666,0.766464,0.007409
16,22,6,2,0,0,1,,4,S,0,S,14,0.791268,0.002542,0.002012
16,23,3,9,0,0,1,,6,S,0,S,13,0,0.798756,0
16,24,9,8,0,0,1,,1,S,0,S,24,0.76416,0.034558,0.026408
16,25,2,1,0,0,1,,1,S,0,S,17,0.754348,0.040081,0.030235
16,26,4,2,0,0,1,,2,S,0,S,16,0.778543,0.017198,0.01339
16,27,5,9,0,0,1,,4,S,0,S,14,0.017234,0.773288,0.013327
16,28,2,7,0,0,1,,5,S,0,S,13,0.016682,0.762922,0.012727
16,29,8,5,0,0,1,,3,S,0,S,18,0.759596,0.038087,0.028931
16,30,5,1,0,0,1,,4,S,0,S,13,0.76607,0.018148,0.013902
16,31,7,5,0,0,1,,2,S,0,S,18,0.791133,0.013596,0.010756
16,32,3,7,0,0,1,,4,S,0,S,14,0.009507,0.779619,0.007412
16,33,8,9,0,0,1,,1,S,0,S,16,0.032461,0.761275,0.024712
16,34,8,6,0,0,1,,2,S,0,S,17,0.79733,0.004508,0.003594
16,35,7,8,0,0,0,,1,S,0,S,32,0.787879,0.02013,0.01586
16,36,9,7,0,0,1,,2,S,0,S,19,0.759655,0.033143,0.025177
16,37,6,7,0,0,1,,1,S,0,S,23,0.012614,0.791564,0.009985
16,38,6,9,0,0,1,,3,S,0,S,15,0.027495,0.763077,0.020981
16,39,9,5,0,0,1,,4,S,0,S,17,0.75422,0.037545,0.028317
16,40,1,3,0,0,1,,2,S,0,S,15,0.018577,0.772685,0.014354
16,41,6,1,0,0,1,,5,S,0,S,13,0.794757,0,0
16,42,5,2,0,0,1,,3,S,0,S,15,0.796933,0.003192,0.002544
16,43,7,3,0,0,1,,4,S,0,S,14,0.763645,0.023639,0.018052
16,44,3,5,0,0,1,,2,S,0,S,14,0.023767,0.764296,0.018165
16,45,2,6,0,0,1,,4,S,0,S,14,0.014245,0.773345,0.011016
16,46,1,6,0,0,1,,5,S,0,S,14,0.000695,0.789973,0.000549
16,47,6,4,0,0,1,,2,S,0,S,17,0.753907,0.039395,0.0297
16,48,7,2,0,0,1,,5,S,0,S,13,0.770756,0.014286,0.011011
16,49,3,1,0,0,1,,2,S,0,S,15,0.75723,0.033317,0.025228
16,50,8,2,0,0,1,,6,S,0,S,13,0.76369,0.019215,0.014674
16,51,2,8,0,0,1,,6,S,0,S,13,0.002332,0.784293,0.001829
16,52,6,3,0,0,1,,3,S,0,S,15,0.76451,0.025757,0.019691
16,53,9,6,0,0,1,,3,S,0,S,16,0.771688,0.01969,0.015194
16,54,1,9,0,0,1,,8,L,0,S,12,0.002801,0.774772,0.00217
16,55,8,4,0,0,1,,4,S,0,S,16,0.778059,0.018923,0.014723
16,56,5,8,0,0,1,,3,S,0,S,16,0.014986,0.784304,0.011754
16,57,6,5,0,0,1,,1,S,0,S,23,0.758554,0.042129,0.031957
16,58,9,2,0,0,1,,7,L,0,S,13,0.769129,0.012622,0.009708
16,59,3,2,0,0,1,,1,S,0,S,21,0.793369,0.014535,0.011531
16,60,2,3,0,0,1,,1,S,0,S,16,0.005968,0.793557,0.004736
16,61,3,6,0,0,1,,3,S,0,S,15,0.019061,0.772817,0.014731
16,62,7,1,0,0,1,,6,S,0,S,12,0.762091,0.014157,0.010789
16,63,9,4,0,0,1,,5,S,0,S,16,0.796289,0.001798,0.001431
16,64,1,2,0,0,1,,1,S,0,S,18,0.017752,0.783635,0.013911
16,65,3,4,0,0,1,,1,S,0,S,15,0.031909,0.757867,0.024183
16,66,5,3,0,0,1,,2,S,0,S,17,0.775061,0.024156,0.018722
16,67,9,1,0,0,1,,8,L,0,S,12,0.759924,0.01307,0.009933
16,68,4,8,0,0,1,,4,S,0,S,15,0.007461,0.786334,0.005867
16,69,2,5,0,0,1,,3,S,0,S,13,0.027371,0.751924,0.020581
16,70,1,8,0,0,1,,7,L,0,S,13,0,0.795052,0
16,71,5,7,0,0,1,,2,S,0,S,17,0.025012,0.771645,0.0193
16,72,5,4,0,0,1,,1,S,0,S,25,0.77175,0.03302,0.025483
17,1,4,9,0,0,1,,5,S,0,S,15,0.008259,0.787587,0.006504
17,2,5,3,0,0,1,,2,S,0,S,17,0.778685,0.01709,0.013308
17,3,8,4,0,0,1,,4,S,0,S,16,0.783841,0.014189,0.011122
17,4,6,4,0,0,1,,2,S,0,S,18,0.797418,0.007427,0.005923
17,5,4,6,0,0,1,,2,S,0,S,18,0.030117,0.762911,0.022977
17,6,2,6,0,0,1,,4,S,0,S,15,0.002541,0.795296,0.002021
17,7,4,1,0,0,1,,3,S,0,S,15,0.799363,0,0
17,8,9,3,0,0,1,,6,S,0,S,13,0.760307,0.01736,0.013199
17,9,9,6,0,0,1,,3,S,0,S,14,0.751551,0.030252,0.022736
17,10,4,7,0,0,1,,3,S,0,S,15,0.023237,0.767215,0.017827
17,11,3,1,0,0,1,,2,S,0,S,16,0.796189,0.004862,0.003871
17,12,1,5,0,0,1,,4,S,0,S,13,0.017323,0.765945,0.013269
17,13,6,3,0,0,1,,3,S,0,S,15,0.7668,0.02247,0.01723
17,14,7,9,0,0,1,,2,S,0,S,18,0.012284,0.795838,0.009776
17,15,9,1,0,0,1,,8,L,0,S,12,0.774413,0.004048,0.003135
17,16,9,8,0,0,1,,1,S,0,S,16,0.797746,0.003853,0.003073
17,17,8,5,0,0,1,,3,S,0,S,17,0.781565,0.019333,0.01511
17,18,4,2,0,0,1,,2,S,0,S,17,0.759767,0.031886,0.024226
17,19,9,5,0,0,1,,4,S,0,S,15,0.793185,0.004017,0.003187
17,20,6,8,0,0,1,,2,S,0,S,24,0.020455,0.788659,0.016132
17,21,2,1,0,0,1,,1,S,0,S,17,0.75812,0.039467,0.029921
17,22,8,7,0,0,1,,1,S,0,S,23,0.772545,0.032767,0.025314
17,23,9,7,0,0,1,,2,S,0,S,16,0.763909,0.030404,0.023226
17,24,6,5,0,0,1,,1,S,0,S,20,0.786139,0.019807,0.015571
17,25,1,8,0,0,1,,7,L,0,S,13,0,0.78989,0
17,26,4,5,0,0,1,,1,S,0,S,17,0.031021,0.762728,0.02366
17,27,3,8,0,0,1,,5,S,0,S,15,0,0.801059,0
17,28,5,7,0,0,1,,2,S,0,S,16,0.035895,0.757737,0.027199
17,29,7,6,0,0,1,,1,S,0,S,19,0.766561,0.032822,0.02516
17,30,1,4,0,0,1,,3,S,0,S,14,0,0.796654,0
17,31,5,2,0,0,1,,3,S,0,S,16,0.796416,0.003498,0.002786
17,32,8,1,0,0,1,,7,L,0,S,13,0.797919,0,0
17,33,3,2,0,0,1,,1,S,0,S,21,0.751534,0.0447,0.033594
17,34,8,9,0,0,1,,1,S,0,S,26,0.030146,0.77787,0.02345
17,35,2,9,0,0,1,,7,L,0,S,13,0.015876,0.771119,0.012242
17,36,3,5,0,0,1,,2,S,0,S,15,0.033976,0.754559,0.025637
17,37,3,9,0,0,1,,6,S,0,S,14,0.008041,0.785147,0.006314
17,38,1,6,0,0,1,,5,S,0,S,13,0.026203,0.751585,0.019693
17,39,7,3,0,0,1,,4,S,0,S,15,0.758312,0.029695,0.022518
17,40,1,9,0,0,1,,8,L,0,S,12,0.021004,0.753923,0.015835
17,41,8,2,0,0,1,,6,S,0,S,14,0.792655,0.000797,0.000632
17,42,7,5,0,0,1,,2,S,0,S,21,0.784507,0.022567,0.017704
17,43,7,2,0,0,1,,5,S,0,S,14,0.752064,0.032869,0.024719
17,44,3,6,0,0,1,,3,S,0,S,16,0.017366,0.776816,0.01349
17,45,7,8,0,0,1,,1,S,0,S,21,0.047983,0.753703,0.036165
17,46,2,7,0,0,1,,5,S,0,S,13,0.024314,0.759045,0.018455
17,47,4,8,0,0,1,,4,S,0,S,16,0.009872,0.78797,0.007779
17,48,7,4,0,0,1,,3,S,0,S,18,0.776739,0.024605,0.019112
17,49,6,7,0,0,1,,1,S,0,S,20,0.013982,0.794366,0.011107
17,50,7,1,0,0,1,,6,S,0,S,13,0.772015,0.014203,0.010965
17,51,8,6,0,0,1,,2,S,0,S,16,0.756113,0.034812,0.026322
17,52,9,4,0,0,1,,5,S,0,S,14,0.767547,0.019012,0.014592
17,53,1,7,0,0,1,,6,S,0,S,13,0,0.800895,0
17,54,8,3,0,0,1,,5,S,0,S,14,0.758574,0.024725,0.018756
17,55,4,3,0,0,1,,1,S,0,S,20,0.774467,0.02136,0.016542
17,56,2,3,0,0,1,,1,S,0,S,17,0.034341,0.758982,0.026064
17,57,1,3,0,0,1,,2,S,0,S,15,0.011859,0.779882,0.009249
17,58,6,1,0,0,1,,5,S,0,S,13,0.775635,0.010861,0.008424
17,59,1,2,0,0,1,,1,S,0,S,16,0.008075,0.79115,0.006389
17,60,5,8,0,0,1,,3,S,0,S,17,0.036219,0.760229,0.027535
17,61,2,8,0,0,1,,6,S,0,S,14,0,0.797443,0
17,62,5,6,0,0,1,,1,S,0,S,24,0.040276,0.758361,0.030544
17,63,5,4,0,0,1,,1,S,0,S,25,0.758623,0.04146,0.031452
17,64,6,9,0,0,1,,3,S,0,S,18,0.033281,0.768589,0.025579
17,65,5,9,0,0,1,,4,S,0,S,16,0.013646,0.787202,0.010742
17,66,9,2,0,0,1,,7,L,0,S,13,0.785341,0.000573,0.00045
17,67,3,4,0,0,1,,1,S,0,S,16,0.035738,0.754536,0.026966
17,68,3,7,0,0,1,,4,S,0,S,14,0.018909,0.770006,0.01456
17,69,2,5,0,0,1,,3,S,0,S,14,0.025289,0.763714,0.019314
17,70,2,4,0,0,1,,2,S,0,S,15,0.013979,0.781847,0.01093
17,71,5,1,0,0,1,,4,S,0,S,14,0.79138,0.002855,0.002259
17,72,6,2,0,0,1,,4,S,0,S,14,0.758445,0.027332,0.02073
18,1,4,6,0,0,1,,2,S,0,S,18,0.006679,0.797366,0.005326
18,2,2,7,0,0,1,,5,S,0,S,14,0,0.795116,0
18,3,5,8,0,0,1,,3,S,0,S,17,0.010889,0.791729,0.008621
18,4,7,8,0,0,1,,1,S,0,S,21,0.03418,0.767726,0.026241
18,5,8,6,0,0,1,,2,S,0,S,18,0.761797,0.036519,0.02782
18,6,3,2,0,0,1,,1,S,0,S,20,0.750647,0.043727,0.032824
18,7,4,9,0,0,1,,5,S,0,S,14,0.031117,0.752695,0.023421
18,8,6,8,0,0,1,,2,S,0,S,21,0.022913,0.781412,0.017904
18,9,6,5,0,0,1,,1,S,0,S,16,0.769759,0.026345,0.02028
18,10,5,9,0,0,1,,4,S,0,S,15,0.038242,0.751409,0.028735
18,11,3,4,0,0,1,,1,S,0,S,20,0.011558,0.792195,0.009156
18,12,9,8,0,0,1,,1,S,0,S,26,0.773062,0.031998,0.024737
18,13,5,3,0,0,1,,2,S,0,S,17,0.765817,0.030924,0.023682
18,14,6,1,0,0,1,,5,S,0,S,13,0.776123,0.010247,0.007953
18,15,1,8,0,0,1,,7,L,0,S,13,0.002027,0.781853,0.001585
18,16,6,9,0,0,1,,3,S,0,S,18,0.014653,0.789499,0.011569
18,17,1,7,0,0,1,,6,S,0,S,13,0.010968,0.769839,0.008443
18,18,6,2,0,0,1,,4,S,0,S,14,0.750495,0.033185,0.024905
18,19,1,6,0,0,1,,5,S,0,S,14,0,0.795374,0
18,20,4,2,0,0,1,,2,S,0,S,18,0.770488,0.02657,0.020472
18,21,2,8,0,0,1,,6,S,0,S,13,0.023466,0.756526,0.017753
18,22,5,1,0,0,1,,4,S,0,S,14,0.794039,0.001889,0.0015
18,23,4,5,0,0,1,,1,S,0,S,22,0.045698,0.752249,0.034377
18,24,5,6,0,0,1,,1,S,0,S,23,0.043693,0.758687,0.03315
18,25,1,5,0,0,1,,4,S,0,S,14,0.025819,0.757726,0.019564
18,26,7,9,0,0,1,,2,S,0,S,18,0.018707,0.784808,0.014681
18,27,3,7,0,0,1,,4,S,0,S,15,0.019834,0.770389,0.01528
18,28,2,3,0,0,1,,1,S,0,S,16,0.031523,0.760997,0.023989
18,29,8,3,0,0,1,,5,S,0,S,15,0.762913,0.027349,0.020865
18,30,1,3,0,0,1,,2,S,0,S,15,0.014546,0.775703,0.011283
18,31,3,9,0,0,1,,6,S,0,S,14,0.013495,0.775068,0.01046
18,32,7,3,0,0,1,,4,S,0,S,15,0.764026,0.026936,0.02058
18,33,4,3,0,0,1,,1,S,0,S,22,0.762913,0.035817,0.027325
18,34,7,2,0,0,1,,5,S,0,S,14,0.753182,0.031421,0.023666
18,35,7,1,0,0,1,,6,S,0,S,13,0.777877,0.009175,0.007137
18,36,6,7,0,0,1,,1,S,0,S,31,0.034913,0.768706,0.026838
18,37,2,9,0,0,1,,7,L,0,S,13,0.007265,0.779028,0.005659
18,38,2,5,0,0,1,,3,S,0,S,15,0.030801,0.759737,0.023401
18,39,3,5,0,0,1,,2,S,0,S,19,0.022052,0.778587,0.01717
18,40,9,7,0,0,1,,2,S,0,S,20,0.762073,0.038347,0.029223
18,41,7,6,0,0,1,,1,S,0,S,18,0.763186,0.035914,0.027409
18,42,5,4,0,0,1,,1,S,0,S,19,0.796812,0.00998,0.007952
18,43,9,4,0,0,1,,5,S,0,S,15,0.770055,0.023436,0.018047
18,44,8,4,0,0,1,,4,S,0,S,16,0.783006,0.015333,0.012006
18,45,2,6,0,0,1,,4,S,0,S,14,0.027012,0.759744,0.020522
18,46,1,4,0,0,1,,3,S,0,S,15,0,0.800787,0
18,47,7,5,0,0,1,,2,S,0,S,16,0.773988,0.023338,0.018063
18,48,4,1,0,0,1,,3,S,0,S,15,0.796451,0.001609,0.001282
18,49,4,7,0,0,1,,3,S,0,S,16,0.010358,0.786825,0.00815
18,50,2,4,0,0,1,,2,S,0,S,16,0.00287,0.798557,0.002292
18,51,9,5,0,0,1,,4,S,0,S,15,0.762068,0.030101,0.022939
18,52,6,4,0,0,1,,2,S,0,S,16,0.780241,0.017655,0.013775
18,53,7,4,0,0,1,,3,S,0,S,16,0.784182,0.014863,0.011655
18,54,3,1,0,0,1,,2,S,0,S,15,0.765709,0.024949,0.019104
18,55,8,1,0,0,1,,7,L,0,S,13,0.777026,0.009432,0.007329
18,56,3,6,0,0,1,,3,S,0,S,16,0.034676,0.756315,0.026226
18,57,8,2,0,0,1,,6,S,0,S,14,0.752162,0.031767,0.023894
18,58,8,5,0,0,1,,3,S,0,S,16,0.772799,0.02381,0.0184
18,59,3,8,0,0,1,,5,S,0,S,15,0.002122,0.793374,0.001684
18,60,9,1,0,0,1,,8,L,0,S,13,0.792571,0,0
18,61,5,2,0,0,1,,3,S,0,S,16,0.786568,0.01249,0.009824
18,62,8,9,0,0,1,,1,S,0,S,18,0.01949,0.783219,0.015265
18,63,5,7,0,0,1,,2,S,0,S,18,0.014106,0.789563,0.011137
18,64,6,3,0,0,1,,3,S,0,S,15,0.760675,0.029231,0.022236
18,65,8,7,0,0,1,,1,S,0,S,32,0.759618,0.042032,0.031928
18,66,9,3,0,0,1,,6,S,0,S,15,0.793807,0.004206,0.003339
18,67,2,1,0,0,1,,1,S,0,S,18,0.76551,0.033839,0.025904
18,68,4,8,0,0,1,,4,S,0,S,15,0.024131,0.765638,0.018476
18,69,1,2,0,0,1,,1,S,0,S,16,0.016013,0.777359,0.012448
18,70,9,6,0,0,1,,3,S,0,S,17,0.783919,0.018283,0.014332
18,71,9,2,0,0,1,,7,L,0,S,14,0.77685,0.013682,0.010629
18,72,1,9,0,0,1,,8,L,0,S,13,0,0.800488,0
19,1,9,2,0,0,1,,7,L,0,S,14,0.779092,0.009269,0.007221
19,2,1,2,0,0,1,,1,S,0,S,15,0.024304,0.765129,0.018596
19,3,9,4,0,0,1,,5,S,0,S,16,0.778913,0.015816,0.012319
19,4,7,6,0,0,1,,1,S,0,S,20,0.769623,0.032406,0.024941
19,5,5,9,0,0,1,,4,S,0,S,14,0.01633,0.770437,0.012581
19,6,5,1,0,0,1,,4,S,0,S,13,0.76325,0.015401,0.011755
19,7,4,2,0,0,1,,2,S,0,S,18,0.771742,0.024159,0.018645
19,8,3,7,0,0,1,,4,S,0,S,16,0.013037,0.782966,0.010208
19,9,5,3,0,0,1,,2,S,0,S,14,0.752406,0.031351,0.023588
19,10,7,8,0,0,1,,1,S,0,S,23,0.033899,0.768587,0.026054
19,11,1,3,0,0,1,,2,S,0,S,16,0.037001,0.755986,0.027972
19,12,6,1,0,0,1,,5,S,0,S,13,0.777994,0.005571,0.004334
19,13,3,6,0,0,1,,3,S,0,S,16,0.0169,0.779412,0.013172
19,14,6,7,0,0,1,,1,S,0,S,22,0.046529,0.751615,0.034972
19,15,3,2,0,0,1,,1,S,0,S,19,0.792592,0.008625,0.006836
19,16,9,8,0,0,1,,1,S,0,S,24,0.793359,0.013386,0.01062
19,17,9,1,0,0,1,,8,L,0,S,12,0.750624,0.019114,0.014348
19,18,7,2,0,0,1,,5,S,0,S,14,0.762404,0.022743,0.017339
19,19,8,6,0,0,1,,2,S,0,S,19,0.77988,0.022281,0.017377
19,20,8,5,0,0,1,,3,S,0,S,16,0.752164,0.036382,0.027366
19,21,5,6,0,0,1,,1,S,0,S,20,0.023075,0.7791,0.017977
19,22,1,8,0,0,1,,7,L,0,S,13,0,0.802277,0
19,23,9,3,0,0,1,,6,S,0,S,13,0.762508,0.019351,0.014755
19,24,3,5,0,0,1,,2,S,0,S,18,0.027659,0.767097,0.021217
19,25,6,2,0,0,1,,4,S,0,S,15,0.77614,0.015736,0.012213
19,26,6,5,0,0,1,,1,S,0,S,19,0.764284,0.032766,0.025043
19,27,2,1,0,0,1,,1,S,0,S,16,0.755065,0.033293,0.025138
19,28,6,4,0,0,1,,2,S,0,S,19,0.788958,0.013276,0.010474
19,29,7,1,0,0,1,,6,S,0,S,13,0.797493,0,0
19,30,4,7,0,0,1,,3,S,0,S,16,0.022488,0.771053,0.017339
19,31,5,8,0,0,1,,3,S,0,S,17,0.028567,0.766285,0.02189
19,32,2,9,0,0,1,,7,L,0,S,12,0.013563,0.759471,0.0103
19,33,2,7,0,0,1,,5,S,0,S,14,0.007401,0.782561,0.005791
19,34,2,6,0,0,1,,4,S,0,S,14,0.009138,0.781573,0.007142
19,35,3,1,0,0,1,,2,S,0,S,14,0.765583,0.018318,0.014024
19,36,3,4,0,0,1,,1,S,0,S,19,0.007813,0.793721,0.006202
19,37,6,8,0,0,1,,2,S,0,S,18,0.034019,0.763386,0.02597
19,38,3,8,0,0,1,,5,S,0,S,15,0.013998,0.778496,0.010898
19,39,9,5,0,0,1,,4,S,0,S,16,0.768791,0.023629,0.018166
19,40,9,7,0,0,1,,2,S,0,S,19,0.795026,0.009199,0.007314
19,41,8,4,0,0,1,,4,S,0,S,16,0.763493,0.027672,0.021127
19,42,1,6,0,0,1,,5,S,0,S,13,0.003469,0.784098,0.00272
19,43,4,1,0,0,1,,3,S,0,S,14,0.772548,0.013157,0.010164
19,44,8,3,0,0,1,,5,S,0,S,13,0.756078,0.02407,0.018199
19,45,1,4,0,0,1,,3,S,0,S,14,0,0.79913,0
19,46,8,1,0,0,1,,7,L,0,S,13,0.801711,0,0
19,47,7,5,0,0,1,,2,S,0,S,17,0.778798,0.018718,0.014578
19,48,2,4,0,0,1,,2,S,0,S,15,0.014208,0.776775,0.011036
19,49,6,3,0,0,1,,3,S,0,S,14,0.774174,0.016019,0.012402
19,50,4,8,0,0,1,,4,S,0,S,15,0.020938,0.769711,0.016116
19,51,7,4,0,0,1,,3,S,0,S,17,0.791615,0.008691,0.00688
19,52,6,9,0,0,1,,3,S,0,S,14,0.029099,0.755472,0.021984
19,53,4,6,0,0,1,,2,S,0,S,16,0.026808,0.766922,0.02056
19,54,7,9,0,0,1,,2,S,0,S,15,0.023674,0.767759,0.018176
19,55,2,3,0,0,1,,1,S,0,S,28,0.033531,0.769665,0.025807
19,56,3,9,0,0,1,,6,S,0,S,13,0.014026,0.766941,0.010757
19,57,4,9,0,0,1,,5,S,0,S,13,0.017612,0.762341,0.013426
19,58,2,5,0,0,1,,3,S,0,S,15,0.00902,0.783394,0.007066
19,59,5,4,0,0,1,,1,S,0,S,21,0.776623,0.023027,0.017883
19,60,1,7,0,0,1,,6,S,0,S,13,0.002342,0.784388,0.001837
19,61,1,9,0,0,1,,8,L,0,S,12,0,0.793019,0
19,62,5,7,0,0,1,,2,S,0,S,20,0.00844,0.795926,0.006718
19,63,1,5,0,0,1,,4,S,0,S,13,0.026955,0.75009,0.020219
19,64,8,7,0,0,1,,1,S,0,S,19,0.757742,0.038635,0.029275
19,65,7,3,0,0,1,,4,S,0,S,14,0.802704,0,0
19,66,8,9,0,0,1,,1,S,0,S,16,0.001653,0.798358,0.001319
19,67,5,2,0,0,1,,3,S,0,S,16,0.79653,0.001149,0.000915
19,68,4,5,0,0,1,,1,S,0,S,19,0.012145,0.788377,0.009575
19,69,4,3,0,0,1,,1,S,0,S,16,0.777277,0.018877,0.014673
19,70,9,6,0,0,1,,3,S,0,S,18,0.766438,0.031867,0.024424
19,71,8,2,0,0,1,,6,S,0,S,14,0.771199,0.015155,0.011688
19,72,2,8,0,0,1,,6,S,0,S,13,0.024101,0.754386,0.018181
20,1,3,6,0,0,1,,3,S,0,S,13,0.016089,0.765206,0.012311
20,2,5,7,0,0,1,,2,S,0,S,16,0.036486,0.757201,0.027627
20,3,1,5,0,0,1,,4,S,0,S,13,0.021568,0.757003,0.016327
20,4,1,6,0,0,1,,5,S,0,S,12,0.008903,0.766183,0.006821
20,5,7,2,0,0,1,,5,S,0,S,13,0.781107,0.004636,0.003621
20,6,1,2,0,0,1,,1,S,0,S,16,0.032649,0.758963,0.024779
20,7,2,3,0,0,1,,1,S,0,S,18,0.025648,0.773449,0.019838
20,8,6,3,0,0,1,,3,S,0,S,17,0.795276,0.00624,0.004962
20,9,8,7,0,0,1,,1,S,0,S,16,0.7508,0.041185,0.030922
20,10,5,3,0,0,1,,2,S,0,S,18,0.760691,0.037673,0.028657
20,11,8,3,0,0,1,,5,S,0,S,14,0.79762,0,0
20,12,6,4,0,0,1,,2,S,0,S,18,0.796676,0.006475,0.005158
20,13,3,1,0,0,1,,2,S,0,S,15,0.756262,0.031305,0.023675
20,14,7,9,0,0,1,,2,S,0,S,20,0.009339,0.796094,0.007435
20,15,7,6,0,0,1,,1,S,0,S,37,0.785871,0.020198,0.015873
20,16,6,1,0,0,1,,5,S,0,S,13,0.784866,0.000188,0.000148
20,17,6,2,0,0,1,,4,S,0,S,14,0.777023,0.011365,0.008831
20,18,6,5,0,0,1,,1,S,0,S,19,0.778431,0.020541,0.01599
20,19,1,3,0,0,1,,2,S,0,S,14,0.006241,0.78552,0.004902
20,20,3,9,0,0,1,,6,S,0,S,13,0.001452,0.784521,0.001139
20,21,3,5,0,0,1,,2,S,0,S,15,0.026882,0.761662,0.020475
20,22,2,1,0,0,1,,1,S,0,S,15,0.793227,0.002372,0.001882
20,23,9,6,0,0,1,,3,S,0,S,21,0.76325,0.039062,0.029814
20,24,8,1,0,0,1,,7,L,0,S,12,0.788789,0,0
20,25,2,5,0,0,1,,3,S,0,S,16,0.029031,0.762127,0.022125
20,26,4,3,0,0,1,,1,S,0,S,21,0.77398,0.030167,0.023349
20,27,9,3,0,0,1,,6,S,0,S,14,0.779339,0.013659,0.010645
20,28,6,7,0,0,1,,1,S,0,S,18,0.036387,0.759182,0.027624
20,29,1,4,0,0,1,,3,S,0,S,14,0,0.800174,0
20,30,8,4,0,0,1,,4,S,0,S,14,0.781671,0.010224,0.007992
20,31,3,4,0,0,1,,1,S,0,S,16,0.009927,0.788941,0.007832
20,32,8,6,0,0,1,,2,S,0,S,18,0.760249,0.036671,0.027879
20,33,6,8,0,0,1,,2,S,0,S,18,0.027546,0.771044,0.021239
20,34,7,8,0,0,0,,1,S,0,S,20,0.787886,0.017676,0.013926
20,35,4,8,0,0,1,,4,S,0,S,15,0.036008,0.754643,0.027173
20,36,9,8,0,0,1,,1,S,0,S,18,0.777531,0.026363,0.020498
20,37,9,2,0,0,1,,7,L,0,S,13,0.795667,0,0
20,38,9,4,0,0,1,,5,S,0,S,14,0.760525,0.028006,0.021299
20,39,5,6,0,0,1,,1,S,0,S,15,0.032607,0.756975,0.024683
20,40,1,7,0,0,1,,6,S,0,S,12,0.019373,0.753137,0.014591
20,41,3,2,0,0,1,,1,S,0,S,21,0.793577,0.011914,0.009455
20,42,8,5,0,0,1,,3,S,0,S,14,0.761738,0.024149,0.018395
20,43,1,8,0,0,1,,7,L,0,S,12,0.018047,0.755449,0.013634
20,44,2,4,0,0,1,,2,S,0,S,17,0.020428,0.777808,0.015889
20,45,6,9,0,0,1,,3,S,0,S,16,0.001437,0.79749,0.001146
20,46,5,4,0,0,1,,1,S,0,S,20,0.761067,0.039456,0.030028
20,47,5,9,0,0,1,,4,S,0,S,15,0.002222,0.795974,0.001769
20,48,7,1,0,0,1,,6,S,0,S,12,0.769493,0.00655,0.00504
20,49,3,7,0,0,1,,4,S,0,S,14,0,0.798284,0
20,50,9,7,0,0,1,,2,S,0,S,18,0.785771,0.019301,0.015166
20,51,8,2,0,0,1,,6,S,0,S,12,0.750411,0.021781,0.016344
20,52,4,6,0,0,1,,2,S,0,S,15,0.008633,0.787983,0.006803
20,53,4,2,0,0,1,,2,S,0,S,15,0.774375,0.01943,0.015046
20,54,2,7,0,0,1,,5,S,0,S,14,0.016458,0.772004,0.012706
20,55,2,8,0,0,1,,6,S,0,S,14,0.014019,0.77575,0.010875
20,56,2,6,0,0,1,,4,S,0,S,14,0,0.795634,0
20,57,7,3,0,0,1,,4,S,0,S,14,0.757105,0.028502,0.021579
20,58,5,1,0,0,1,,4,S,0,S,13,0.769213,0.013983,0.010756
20,59,9,5,0,0,1,,4,S,0,S,15,0.789042,0.008373,0.006607
20,60,4,9,0,0,1,,5,S,0,S,14,0.019328,0.769181,0.014866
20,61,3,8,0,0,1,,5,S,0,S,14,0,0.801499,0
20,62,2,9,0,0,1,,7,L,0,S,13,0.016043,0.76474,0.012269
20,63,7,5,0,0,1,,2,S,0,S,15,0.76099,0.027796,0.021152
20,64,5,2,0,0,1,,3,S,0,S,14,0.750257,0.034037,0.025537
20,65,4,7,0,0,1,,3,S,0,S,16,0.003819,0.798926,0.003051
20,66,1,9,0,0,1,,8,L,0,S,12,0,0.779514,0
20,67,7,4,0,0,1,,3,S,0,S,15,0.787363,0.00879,0.006921
20,68,5,8,0,0,1,,3,S,0,S,16,0.031305,0.764449,0.023931
20,69,9,1,0,0,1,,8,L,0,S,12,0.780994,0,0
20,70,4,1,0,0,1,,3,S,0,S,13,0.752788,0.026455,0.019915
20,71,4,5,0,0,1,,1,S,0,S,21,0.040934,0.758148,0.031034
20,72,8,9,0,0,0,,1,S,0,S,23,0.79275,0.014371,0.011393
21,1,2,3,0,0,1,,1,S,0,S,17,0.028752,0.766255,0.022032
21,2,1,7,0,0,1,,6,S,0,S,13,0.026613,0.750046,0.019961
21,3,3,2,0,0,1,,1,S,0,S,20,0.785182,0.01725,0.013545
21,4,6,3,0,0,1,,3,S,0,S,17,0.773459,0.026177,0.020247
21,5,9,5,0,0,1,,4,S,0,S,16,0.770835,0.023603,0.018194
21,6,5,1,0,0,1,,4,S,0,S,14,0.784738,0.007865,0.006172
21,7,7,5,0,0,1,,2,S,0,S,18,0.774725,0.024495,0.018977
21,8,7,1,0,0,1,,6,S,0,S,13,0.752756,0.027416,0.020638
21,9,1,2,0,0,1,,1,S,0,S,18,0.020372,0.782362,0.015938
21,10,4,6,0,0,1,,2,S,0,S,18,0.013904,0.785913,0.010927
21,11,8,3,0,0,1,,5,S,0,S,15,0.795499,0.004406,0.003505
21,12,2,9,0,0,1,,7,L,0,S,13,0.004728,0.780011,0.003688
21,13,1,4,0,0,1,,3,S,0,S,15,0.023994,0.765379,0.018364
21,14,1,6,0,0,1,,5,S,0,S,14,0.012161,0.777281,0.009453
21,15,4,8,0,0,1,,4,S,0,S,16,0.016986,0.780007,0.013249
21,16,3,9,0,0,1,,6,S,0,S,13,0.026255,0.750839,0.019713
21,17,5,8,0,0,1,,3,S,0,S,18,0.010906,0.793818,0.008658
21,18,9,1,0,0,1,,8,L,0,S,13,0.779113,0.00733,0.005711
21,19,4,9,0,0,1,,5,S,0,S,14,0.015821,0.772572,0.012223
21,20,5,9,0,0,1,,4,S,0,S,15,0.010083,0.786153,0.007927
21,21,4,7,0,0,1,,3,S,0,S,16,0.023286,0.767513,0.017873
21,22,7,2,0,0,1,,5,S,0,S,15,0.794862,0.003742,0.002975
21,23,9,3,0,0,1,,6,S,0,S,15,0.780685,0.014357,0.011208
21,24,1,9,0,0,1,,8,L,0,S,13,0,0.804328,0
21,25,3,5,0,0,1,,2,S,0,S,18,0.00435,0.796804,0.003466
21,26,7,8,0,0,1,,1,S,0,S,20,0.024836,0.779307,0.019355
21,27,7,9,0,0,1,,2,S,0,S,15,0.037579,0.750967,0.02822
21,28,6,2,0,0,1,,4,S,0,S,15,0.767193,0.026176,0.020082
21,29,4,2,0,0,1,,2,S,0,S,17,0.788564,0.012225,0.00964
21,30,9,7,0,0,1,,2,S,0,S,22,0.756739,0.039969,0.030246
21,31,7,6,0,0,1,,1,S,0,S,23,0.775598,0.027123,0.021037
21,32,5,4,0,0,1,,1,S,0,S,19,0.789413,0.012271,0.009687
21,33,7,3,0,0,1,,4,S,0,S,16,0.773124,0.023292,0.018008
21,34,1,8,0,0,1,,7,L,0,S,13,0.023463,0.758257,0.017791
21,35,5,2,0,0,1,,3,S,0,S,15,0.760882,0.029963,0.022798
21,36,6,4,0,0,1,,2,S,0,S,18,0.755736,0.038922,0.029415
21,37,8,2,0,0,1,,6,S,0,S,14,0.793158,0.002794,0.002216
21,38,9,6,0,0,1,,3,S,0,S,18,0.779514,0.02019,0.015738
21,39,2,6,0,0,1,,4,S,0,S,15,0.00625,0.786866,0.004918
21,40,2,8,0,0,1,,6,S,0,S,14,0.011101,0.778349,0.008641
21,41,5,3,0,0,1,,2,S,0,S,17,0.763674,0.032699,0.024971
21,42,3,8,0,0,1,,5,S,0,S,15,0.008492,0.785868,0.006673
21,43,8,7,0,0,1,,1,S,0,S,20,0.751324,0.04495,0.033772
21,44,8,6,0,0,1,,2,S,0,S,17,0.763287,0.033137,0.025293
21,45,6,7,0,0,1,,1,S,0,S,18,0.024451,0.773713,0.018918
21,46,5,7,0,0,1,,2,S,0,S,18,0.020133,0.777658,0.015656
21,47,6,8,0,0,1,,2,S,0,S,18,0.015036,0.790121,0.01188
21,48,3,4,0,0,1,,1,S,0,S,19,0.020382,0.776052,0.015817
21,49,1,3,0,0,1,,2,S,0,S,16,0.006391,0.794949,0.005081
21,50,3,1,0,0,1,,2,S,0,S,16,0.786913,0.010408,0.00819
21,51,3,6,0,0,1,,3,S,0,S,16,0.015524,0.777766,0.012074
21,52,4,5,0,0,1,,1,S,0,S,22,0.01645,0.787046,0.012947
21,53,6,9,0,0,1,,3,S,0,S,15,0.011296,0.785975,0.008879
21,54,4,1,0,0,1,,3,S,0,S,15,0.795723,0.001965,0.001563
21,55,9,8,0,0,1,,1,S,0,S,22,0.751818,0.04778,0.035922
21,56,3,7,0,0,1,,4,S,0,S,15,0.013392,0.775292,0.010382
21,57,7,4,0,0,1,,3,S,0,S,17,0.775143,0.021079,0.01634
21,58,6,5,0,0,1,,1,S,0,S,20,0.762658,0.037223,0.028388
21,59,2,5,0,0,1,,3,S,0,S,16,0.00813,0.788247,0.006408
21,60,9,4,0,0,1,,5,S,0,S,16,0.797655,0.001205,0.000961
21,61,5,6,0,0,1,,1,S,0,S,22,0.028394,0.77324,0.021956
21,62,2,1,0,0,1,,1,S,0,S,18,0.795676,0.007534,0.005995
21,63,2,7,0,0,1,,5,S,0,S,14,0.015019,0.769112,0.011551
21,64,2,4,0,0,1,,2,S,0,S,16,0.035642,0.750995,0.026767
21,65,8,1,0,0,1,,7,L,0,S,13,0.78784,0.002132,0.00168
21,66,4,3,0,0,1,,1,S,0,S,21,0.78277,0.020831,0.016306
21,67,9,2,0,0,1,,7,L,0,S,14,0.781842,0.009999,0.007818
21,68,6,1,0,0,1,,5,S,0,S,14,0.789241,0.005409,0.004269
21,69,8,9,0,0,1,,1,S,0,S,17,0.040146,0.756551,0.030372
21,70,8,5,0,0,1,,3,S,0,S,16,0.790875,0.009585,0.00758
21,71,1,5,0,0,1,,4,S,0,S,15,0.004539,0.792236,0.003596
21,72,8,4,0,0,1,,4,S,0,S,15,0.765545,0.025116,0.019227
22,1,6,5,0,0,1,,1,S,0,S,24,0.764928,0.037202,0.028457
22,2,7,1,0,0,1,,6,S,0,S,13,0.80355,0,0
22,3,8,7,0,0,1,,1,S,0,S,23,0.761271,0.037947,0.028888
22,4,4,1,0,0,1,,3,S,0,S,13,0.753436,0.024784,0.018673
22,5,6,9,0,0,1,,3,S,0,S,14,0.031597,0.753137,0.023797
22,6,7,4,0,0,1,,3,S,0,S,15,0.794374,0.003462,0.00275
22,7,5,3,0,0,1,,2,S,0,S,21,0.787965,0.017725,0.013966
22,8,7,8,0,0,1,,1,S,0,S,22,0.01371,0.790035,0.010832
22,9,7,5,0,0,1,,2,S,0,S,17,0.784235,0.013405,0.010513
22,10,5,7,0,0,1,,2,S,0,S,14,0.022892,0.764353,0.017498
22,11,3,9,0,0,1,,6,S,0,S,13,0.01761,0.761912,0.013417
22,12,7,2,0,0,1,,5,S,0,S,14,0.802406,0,0
22,13,1,2,0,0,1,,1,S,0,S,18,0.014808,0.784069,0.011611
22,14,3,4,0,0,1,,1,S,0,S,24,0.045057,0.755457,0.034039
22,15,8,4,0,0,1,,4,S,0,S,14,0.783861,0.007979,0.006254
22,16,8,3,0,0,1,,5,S,0,S,14,0.789237,0.002389,0.001885
22,17,9,3,0,0,1,,6,S,0,S,13,0.778021,0.00688,0.005353
22,18,5,1,0,0,1,,4,S,0,S,14,0.774541,0.01517,0.01175
22,19,6,3,0,0,1,,3,S,0,S,16,0.770407,0.026094,0.020103
22,20,9,1,0,0,1,,8,L,0,S,12,0.792637,0,0
22,21,5,9,0,0,1,,4,S,0,S,13,0.026167,0.752285,0.019685
22,22,5,6,0,0,1,,1,S,0,S,15,0.034511,0.753118,0.025991
22,23,1,4,0,0,1,,3,S,0,S,15,0.007689,0.790514,0.006078
22,24,8,1,0,0,1,,7,L,0,S,12,0.76785,0.007555,0.005801
22,25,4,3,0,0,1,,1,S,0,S,17,0.772358,0.024055,0.018579
22,26,4,8,0,0,1,,4,S,0,S,16,0.008302,0.788673,0.006547
22,27,2,5,0,0,1,,3,S,0,S,14,0.0231,0.762685,0.017618
22,28,9,4,0,0,1,,5,S,0,S,13,0.77438,0.011021,0.008535
22,29,9,6,0,0,1,,3,S,0,S,15,0.766685,0.023172,0.017765
22,30,9,7,0,0,1,,2,S,0,S,17,0.779794,0.018832,0.014685
22,31,2,9,0,0,1,,7,L,0,S,12,0.015431,0.757811,0.011694
22,32,3,6,0,0,1,,3,S,0,S,15,0.017341,0.773459,0.013413
22,33,5,8,0,0,1,,3,S,0,S,15,0,0.799778,0
22,34,4,5,0,0,1,,1,S,0,S,23,0.039352,0.758077,0.029832
22,35,5,4,0,0,1,,1,S,0,S,23,0.775162,0.030724,0.023816
22,36,8,9,0,0,1,,1,S,0,S,19,0.013095,0.788216,0.010322
22,37,3,5,0,0,1,,2,S,0,S,17,0.012597,0.785508,0.009895
22,38,3,7,0,0,1,,4,S,0,S,14,0.011431,0.777519,0.008888
22,39,7,9,0,0,1,,2,S,0,S,16,0.032885,0.756818,0.024888
22,40,1,6,0,0,1,,5,S,0,S,13,0.006221,0.778292,0.004842
22,41,4,9,0,0,1,,5,S,0,S,14,0.019516,0.765738,0.014944
22,42,3,2,0,0,1,,1,S,0,S,17,0.775964,0.018512,0.014364
22,43,8,2,0,0,1,,6,S,0,S,13,0.777118,0.004611,0.003583
22,44,6,4,0,0,1,,2,S,0,S,16,0.753249,0.041189,0.031025
22,45,6,1,0,0,1,,5,S,0,S,13,0.771574,0.013388,0.01033
22,46,2,6,0,0,1,,4,S,0,S,13,0.025144,0.75353,0.018947
22,47,1,7,0,0,1,,6,S,0,S,12,0.020159,0.75206,0.015161
22,48,4,6,0,0,1,,2,S,0,S,17,0.029811,0.763647,0.022765
22,49,1,3,0,0,1,,2,S,0,S,15,0.019513,0.773314,0.01509
22,50,2,8,0,0,1,,6,S,0,S,13,0.00621,0.778836,0.004837
22,51,9,5,0,0,1,,4,S,0,S,14,0.772162,0.015113,0.01167
22,52,2,7,0,0,1,,5,S,0,S,13,0,0.788362,0
22,53,6,2,0,0,1,,4,S,0,S,14,0.753424,0.029772,0.022431
22,54,8,5,0,0,1,,3,S,0,S,15,0.757864,0.029056,0.022021
22,55,4,7,0,0,1,,3,S,0,S,15,0.027774,0.761005,0.021136
22,56,2,1,0,0,1,,1,S,0,S,17,0.774506,0.023933,0.018536
22,57,6,8,0,0,1,,2,S,0,S,16,0.030191,0.764039,0.023067
22,58,9,8,0,0,1,,1,S,0,S,16,0.757589,0.033252,0.025191
22,59,9,2,0,0,1,,7,L,0,S,12,0.753584,0.016524,0.012452
22,60,5,2,0,0,1,,3,S,0,S,16,0.767763,0.024376,0.018715
22,61,1,9,0,0,1,,8,L,0,S,12,0.002812,0.774571,0.002178
22,62,3,8,0,0,1,,5,S,0,S,14,0.021598,0.76328,0.016485
22,63,3,1,0,0,1,,2,S,0,S,14,0.753733,0.029692,0.02238
22,64,4,2,0,0,1,,2,S,0,S,15,0.777808,0.012289,0.009559
22,65,7,6,0,0,1,,1,S,0,S,21,0.765919,0.0323,0.024739
22,66,1,8,0,0,1,,7,L,0,S,13,0,0.799608,0
22,67,2,3,0,0,1,,1,S,0,S,16,0.028954,0.765307,0.022159
22,68,7,3,0,0,1,,4,S,0,S,14,0.750846,0.031716,0.023814
22,69,2,4,0,0,1,,2,S,0,S,16,0.012139,0.788831,0.009576
22,70,6,7,0,0,1,,1,S,0,S,16,0.010584,0.790029,0.008362
22,71,8,6,0,0,1,,2,S,0,S,17,0.758963,0.033382,0.025336
22,72,1,5,0,0,1,,4,S,0,S,14,0,0.794861,0
23,1,3,1,0,0,1,,2,S,0,S,16,0.75087,0.037159,0.027901
23,2,1,2,0,0,1,,1,S,0,S,14,0.018129,0.770626,0.013971
23,3,7,8,0,0,1,,1,S,0,S,17,0.032224,0.760035,0.024491
23,4,9,1,0,0,1,,8,L,0,S,12,0.751894,0.019694,0.014808
23,5,7,6,0,0,1,,1,S,0,S,22,0.760113,0.038791,0.029485
23,6,8,6,0,0,1,,2,S,0,S,18,0.765997,0.033221,0.025447
23,7,7,9,0,0,1,,2,S,0,S,18,0.039182,0.755734,0.029611
23,8,4,1,0,0,1,,3,S,0,S,15,0.752382,0.03407,0.025634
23,9,6,9,0,0,1,,3,S,0,S,18,0.022969,0.777679,0.017863
23,10,4,8,0,0,1,,4,S,0,S,14,0.01091,0.777478,0.008482
23,11,6,8,0,0,1,,2,S,0,S,17,0.020563,0.77629,0.015963
23,12,5,9,0,0,1,,4,S,0,S,15,0.016559,0.778494,0.012891
23,13,5,2,0,0,1,,3,S,0,S,15,0.760886,0.031064,0.023636
23,14,9,2,0,0,1,,7,L,0,S,13,0.793205,0,0
23,15,5,4,0,0,1,,1,S,0,S,19,0.757199,0.03968,0.030046
23,16,1,7,0,0,1,,6,S,0,S,12,0,0.778457,0
23,17,7,2,0,0,1,,5,S,0,S,14,0.790033,0.002963,0.002341
23,18,3,9,0,0,1,,6,S,0,S,14,0.003959,0.787538,0.003118
23,19,4,3,0,0,1,,1,S,0,S,25,0.763913,0.036456,0.027849
23,20,5,7,0,0,1,,2,S,0,S,16,0.018495,0.778311,0.014395
23,21,8,3,0,0,1,,5,S,0,S,14,0.757547,0.028022,0.021228
23,22,3,2,0,0,1,,1,S,0,S,18,0.759189,0.037182,0.028228
23,23,1,6,0,0,1,,5,S,0,S,12,0.007112,0.768944,0.005469
23,24,4,9,0,0,1,,5,S,0,S,14,0.022912,0.763971,0.017504
23,25,9,7,0,0,1,,2,S,0,S,17,0.780051,0.018975,0.014801
23,26,7,1,0,0,1,,6,S,0,S,13,0.758762,0.019686,0.014937
23,27,4,2,0,0,1,,2,S,0,S,17,0.794068,0.009015,0.007159
23,28,2,1,0,0,1,,1,S,0,S,17,0.757748,0.037382,0.028326
23,29,5,8,0,0,1,,3,S,0,S,15,0.001076,0.796183,0.000857
23,30,1,5,0,0,1,,4,S,0,S,12,0.011075,0.763074,0.008451
23,31,2,8,0,0,1,,6,S,0,S,13,0.015482,0.767651,0.011885
23,32,6,2,0,0,1,,4,S,0,S,14,0.78785,0.005558,0.004379
23,33,1,9,0,0,1,,8,L,0,S,12,0,0.792885,0
23,34,4,6,0,0,1,,2,S,0,S,16,0.005361,0.794619,0.00426
23,35,3,6,0,0,1,,3,S,0,S,15,0.011904,0.781529,0.009303
23,36,9,6,0,0,1,,3,S,0,S,16,0.78303,0.015279,0.011964
23,37,2,4,0,0,1,,2,S,0,S,18,0.008014,0.797073,0.006388
23,38,8,7,0,0,1,,1,S,0,S,21,0.771337,0.031048,0.023948
23,39,9,5,0,0,1,,4,S,0,S,16,0.799165,0.002135,0.001706
23,40,1,3,0,0,1,,2,S,0,S,13,0.015688,0.764852,0.011999
23,41,6,5,0,0,1,,1,S,0,S,21,0.771802,0.02961,0.022853
23,42,6,7,0,0,1,,1,S,0,S,22,0.017226,0.787484,0.013566
23,43,9,4,0,0,1,,5,S,0,S,14,0.790522,0.0019,0.001502
23,44,7,3,0,0,1,,4,S,0,S,15,0.76876,0.021025,0.016163
23,45,7,5,0,0,1,,2,S,0,S,20,0.759667,0.037408,0.028418
23,46,8,9,0,0,1,,1,S,0,S,22,0.041927,0.759879,0.03186
23,47,9,8,0,0,1,,1,S,0,S,22,0.785761,0.018456,0.014502
23,48,2,3,0,0,1,,1,S,0,S,18,0.031875,0.767389,0.02446
23,49,3,4,0,0,1,,1,S,0,S,19,0.042786,0.750315,0.032103
23,50,3,8,0,0,1,,5,S,0,S,14,0,0.798332,0
23,51,3,7,0,0,1,,4,S,0,S,14,0.027176,0.755858,0.020541
23,52,7,4,0,0,1,,3,S,0,S,15,0.754873,0.031461,0.023749
23,53,5,6,0,0,1,,1,S,0,S,17,0.021275,0.778508,0.016563
23,54,2,7,0,0,1,,5,S,0,S,14,0.008713,0.783835,0.006829
23,55,5,1,0,0,1,,4,S,0,S,15,0.799428,0,0
23,56,9,3,0,0,1,,6,S,0,S,14,0.798633,0,0
23,57,1,4,0,0,1,,3,S,0,S,13,0.011078,0.77068,0.008537
23,58,8,2,0,0,1,,6,S,0,S,13,0.76414,0.01981,0.015138
23,59,4,7,0,0,1,,3,S,0,S,15,0.015168,0.77758,0.011794
23,60,6,4,0,0,1,,2,S,0,S,16,0.79934,0.000668,0.000534
23,61,1,8,0,0,1,,7,L,0,S,12,0,0.79696,0
23,62,6,1,0,0,1,,5,S,0,S,13,0.757097,0.021838,0.016534
23,63,3,5,0,0,1,,2,S,0,S,15,0.023137,0.766426,0.017733
23,64,5,3,0,0,1,,2,S,0,S,18,0.752699,0.042242,0.031796
23,65,8,5,0,0,1,,3,S,0,S,17,0.751582,0.042351,0.03183
23,66,4,5,0,0,1,,1,S,0,S,16,0.019981,0.775381,0.015493
23,67,8,4,0,0,1,,4,S,0,S,15,0.797939,0.000311,0.000248
23,68,2,5,0,0,1,,3,S,0,S,15,0,0.80067,0
23,69,2,6,0,0,1,,4,S,0,S,14,0.026174,0.762046,0.019946
23,70,8,1,0,0,1,,7,L,0,S,13,0.782798,0.003554,0.002782
23,71,6,3,0,0,1,,3,S,0,S,15,0.764304,0.025467,0.019464
23,72,2,9,0,0,1,,7,L,0,S,13,0.024467,0.757871,0.018543
24,1,3,4,0,0,1,,1,S,0,S,16,0.013276,0.783399,0.0104
24,2,9,5,0,0,1,,4,S,0,S,15,0.798047,0.000719,0.000574
24,3,7,8,0,0,1,,1,S,0,S,27,0.038002,0.767649,0.029172
24,4,7,3,0,0,1,,4,S,0,S,14,0.76968,0.021109,0.016247
24,5,4,1,0,0,1,,3,S,0,S,14,0.780716,0.007301,0.0057
24,6,5,7,0,0,1,,2,S,0,S,17,0.034649,0.756741,0.02622
24,7,2,6,0,0,1,,4,S,0,S,14,0.022054,0.764891,0.016869
24,8,3,1,0,0,1,,2,S,0,S,15,0.758401,0.027868,0.021135
24,9,6,8,0,0,1,,2,S,0,S,21,0.019638,0.787546,0.015466
24,10,6,9,0,0,1,,3,S,0,S,18,0.018414,0.787137,0.014494
24,11,8,6,0,0,1,,2,S,0,S,16,0.75432,0.036498,0.027531
24,12,5,4,0,0,1,,1,S,0,S,26,0.762983,0.037411,0.028544
24,13,8,9,0,0,1,,1,S,0,S,26,0.048243,0.751329,0.036246
24,14,8,2,0,0,1,,6,S,0,S,13,0.788099,0,0
24,15,9,1,0,0,1,,8,L,0,S,12,0.794986,0,0
24,16,1,3,0,0,1,,2,S,0,S,15,0.02109,0.769003,0.016218
24,17,6,1,0,0,1,,5,S,0,S,13,0.791842,0,0
24,18,4,5,0,0,1,,1,S,0,S,16,0.035118,0.755543,0.026533
24,19,8,4,0,0,1,,4,S,0,S,16,0.795349,0.003963,0.003152
24,20,8,1,0,0,1,,7,L,0,S,12,0.753826,0.016359,0.012332
24,21,6,7,0,0,1,,1,S,0,S,24,0.048377,0.750913,0.036327
24,22,7,5,0,0,1,,2,S,0,S,20,0.760502,0.041081,0.031242
24,23,7,1,0,0,1,,6,S,0,S,13,0.802222,0,0
24,24,3,5,0,0,1,,2,S,0,S,14,0.031552,0.751107,0.023699
24,25,4,6,0,0,1,,2,S,0,S,18,0.017297,0.783769,0.013557
24,26,3,2,0,0,1,,1,S,0,S,17,0.780722,0.01673,0.013062
24,27,1,4,0,0,1,,3,S,0,S,14,0,0.797099,0
24,28,7,6,0,0,1,,1,S,0,S,18,0.795071,0.011861,0.00943
24,29,2,1,0,0,1,,1,S,0,S,17,0.791574,0.00742,0.005874
24,30,4,9,0,0,1,,5,S,0,S,15,0.006671,0.790103,0.00527
24,31,4,2,0,0,1,,2,S,0,S,15,0.790406,0.004582,0.003622
24,32,6,4,0,0,1,,2,S,0,S,17,0.764069,0.033691,0.025742
24,33,7,2,0,0,1,,5,S,0,S,13,0.778625,0.008243,0.006418
24,34,3,9,0,0,1,,6,S,0,S,14,0,0.801949,0
24,35,2,8,0,0,1,,6,S,0,S,13,0.023523,0.755808,0.017779
24,36,2,5,0,0,1,,3,S,0,S,14,0.003017,0.789105,0.002381
24,37,1,7,0,0,1,,6,S,0,S,13,0,0.784355,0
24,38,2,9,0,0,1,,7,L,0,S,13,0.0084,0.77725,0.006529
24,39,9,8,0,0,1,,1,S,0,S,15,0.766776,0.025121,0.019262
24,40,9,2,0,0,1,,7,L,0,S,12,0.779234,0,0
24,41,3,6,0,0,1,,3,S,0,S,15,0.020907,0.770601,0.016111
24,42,8,7,0,0,1,,1,S,0,S,19,0.773468,0.024385,0.018861
24,43,9,4,0,0,1,,5,S,0,S,14,0.796075,0,0
24,44,1,5,0,0,1,,4,S,0,S,13,0.004007,0.779832,0.003125
24,45,5,9,0,0,1,,4,S,0,S,16,0.003237,0.797739,0.002582
24,46,8,3,0,0,1,,5,S,0,S,14,0.7864,0.005049,0.003971
24,47,6,5,0,0,1,,1,S,0,S,25,0.763583,0.040202,0.030698
24,48,1,2,0,0,1,,1,S,0,S,19,0.02548,0.771709,0.019663
24,49,5,2,0,0,1,,3,S,0,S,14,0.770731,0.015949,0.012292
24,50,5,3,0,0,1,,2,S,0,S,16,0.768847,0.025045,0.019256
24,51,6,2,0,0,1,,4,S,0,S,13,0.766131,0.017211,0.013186
24,52,5,1,0,0,1,,4,S,0,S,13,0.751536,0.024384,0.018325
24,53,2,4,0,0,1,,2,S,0,S,15,0.006517,0.789264,0.005144
24,54,3,8,0,0,1,,5,S,0,S,14,0.012232,0.77651,0.009498
24,55,1,6,0,0,1,,5,S,0,S,13,0.017379,0.762636,0.013254
24,56,1,8,0,0,1,,7,L,0,S,13,0,0.794687,0
24,57,7,4,0,0,1,,3,S,0,S,16,0.757221,0.037368,0.028296
24,58,4,7,0,0,1,,3,S,0,S,16,0.018733,0.774683,0.014512
24,59,5,8,0,0,1,,3,S,0,S,17,0.008102,0.792603,0.006422
24,60,9,7,0,0,1,,2,S,0,S,15,0.780019,0.013355,0.010417
24,61,2,7,0,0,1,,5,S,0,S,14,0,0.795837,0
24,62,4,8,0,0,1,,4,S,0,S,15,0.036431,0.750138,0.027328
24,63,8,5,0,0,1,,3,S,0,S,18,0.777972,0.02122,0.016508
24,64,9,6,0,0,1,,3,S,0,S,14,0.776562,0.014169,0.011003
24,65,2,3,0,0,1,,1,S,0,S,18,0.012108,0.790754,0.009574
24,66,4,3,0,0,1,,1,S,0,S,18,0.794302,0.008863,0.00704
24,67,3,7,0,0,1,,4,S,0,S,14,0.022953,0.760585,0.017458
24,68,1,9,0,0,1,,8,L,0,S,12,0.016874,0.755546,0.012749
24,69,6,3,0,0,1,,3,S,0,S,14,0.750262,0.035497,0.026632
24,70,5,6,0,0,1,,1,S,0,S,21,0.028917,0.772383,0.022335
24,71,7,9,0,0,1,,2,S,0,S,19,0.03585,0.767643,0.02752
24,72,9,3,0,0,1,,6,S,0,S,13,0.797186,0,0
25,1,9,6,0,0,1,,3,S,0,S,15,0.758842,0.033586,0.025486
25,2,7,4,0,0,1,,3,S,0,S,16,0.766165,0.026738,0.020486
25,3,7,8,0,0,1,,1,S,0,S,18,0.029235,0.770932,0.022539
25,4,6,5,0,0,1,,1,S,0,S,16,0.770596,0.023232,0.017902
25,5,5,2,0,0,1,,3,S,0,S,14,0.759818,0.025961,0.019726
25,6,5,1,0,0,1,,4,S,0,S,14,0.771321,0.016311,0.012581
25,7,7,1,0,0,1,,6,S,0,S,13,0.768838,0.014383,0.011058
25,8,8,2,0,0,1,,6,S,0,S,12,0.750871,0.022584,0.016958
25,9,6,1,0,0,1,,5,S,0,S,14,0.792823,1.9E-05,1.5E-05
25,10,2,9,0,0,1,,7,L,0,S,13,0,0.798962,0
25,11,8,5,0,0,1,,3,S,0,S,14,0.800901,0,0
25,12,9,8,0,0,1,,1,S,0,S,25,0.795516,0.015762,0.012539
25,13,8,7,0,0,1,,1,S,0,S,16,0.775681,0.022737,0.017637
25,14,5,9,0,0,1,,4,S,0,S,15,0,0.799602,0
25,15,5,3,0,0,1,,2,S,0,S,16,0.797912,0.000854,0.000681
25,16,4,8,0,0,1,,4,S,0,S,14,0,0.796822,0
25,17,6,7,0,0,1,,1,S,0,S,20,0.026238,0.776608,0.020377
25,18,3,5,0,0,1,,2,S,0,S,18,0.023205,0.7771,0.018033
25,19,1,9,0,0,1,,8,L,0,S,12,0.002054,0.776482,0.001595
25,20,9,7,0,0,1,,2,S,0,S,17,0.780344,0.022392,0.017473
25,21,1,2,0,0,1,,1,S,0,S,18,0.01437,0.789832,0.01135
25,22,1,5,0,0,1,,4,S,0,S,15,0,0.798661,0
25,23,6,2,0,0,1,,4,S,0,S,14,0.783295,0.008155,0.006388
25,24,7,2,0,0,1,,5,S,0,S,13,0.760975,0.021122,0.016073
25,25,1,3,0,0,1,,2,S,0,S,16,0.008764,0.789544,0.00692
25,26,9,1,0,0,1,,8,L,0,S,13,0.802919,0,0
25,27,8,9,0,0,1,,1,S,0,S,23,0.043109,0.75732,0.032647
25,28,6,8,0,0,1,,2,S,0,S,16,0.028923,0.765029,0.022127
25,29,3,9,0,0,1,,6,S,0,S,13,0.001367,0.785809,0.001074
25,30,2,4,0,0,1,,2,S,0,S,15,0.033534,0.75587,0.025348
25,31,4,9,0,0,1,,5,S,0,S,13,0.013978,0.768728,0.010745
25,32,3,7,0,0,1,,4,S,0,S,14,0.017918,0.772607,0.013844
25,33,8,1,0,0,1,,7,L,0,S,12,0.756476,0.017676,0.013372
25,34,5,7,0,0,1,,2,S,0,S,18,0.016211,0.786263,0.012746
25,35,5,8,0,0,1,,3,S,0,S,15,0.033325,0.755297,0.025171
25,36,1,4,0,0,1,,3,S,0,S,14,0.006961,0.783522,0.005454
25,37,4,3,0,0,1,,1,S,0,S,21,0.783134,0.019916,0.015597
25,38,2,8,0,0,1,,6,S,0,S,13,0.009007,0.778927,0.007016
25,39,2,1,0,0,1,,1,S,0,S,19,0.792035,0.014524,0.011504
25,40,9,2,0,0,1,,7,L,0,S,13,0.797024,0,0
25,41,6,4,0,0,1,,2,S,0,S,18,0.768328,0.027727,0.021304
25,42,9,3,0,0,1,,6,S,0,S,13,0.763562,0.018844,0.014389
25,43,4,5,0,0,1,,1,S,0,S,21,0.014313,0.791245,0.011325
25,44,1,6,0,0,1,,5,S,0,S,13,0.021762,0.760333,0.016546
25,45,5,6,0,0,1,,1,S,0,S,24,0.014734,0.792404,0.011675
25,46,4,2,0,0,1,,2,S,0,S,17,0.78733,0.014522,0.011434
25,47,2,6,0,0,1,,4,S,0,S,14,0.035446,0.75114,0.026625
25,48,8,6,0,0,1,,2,S,0,S,15,0.78626,0.011185,0.008794
25,49,7,6,0,0,1,,1,S,0,S,18,0.793602,0.011253,0.00893
25,50,3,1,0,0,1,,2,S,0,S,17,0.754474,0.039787,0.030018
25,51,4,1,0,0,1,,3,S,0,S,16,0.765038,0.02894,0.02214
25,52,7,5,0,0,1,,2,S,0,S,15,0.778839,0.015006,0.011688
25,53,8,3,0,0,1,,5,S,0,S,13,0.776269,0.008315,0.006454
25,54,2,5,0,0,1,,3,S,0,S,17,0.017134,0.784662,0.013445
25,55,3,4,0,0,1,,1,S,0,S,16,0.022349,0.772119,0.017256
25,56,7,9,0,0,1,,2,S,0,S,16,0.027177,0.766778,0.020839
25,57,1,8,0,0,1,,7,L,0,S,12,0.014473,0.761202,0.011017
25,58,6,9,0,0,1,,3,S,0,S,15,0.019555,0.771597,0.015089
25,59,4,6,0,0,1,,2,S,0,S,16,0.011578,0.788412,0.009128
25,60,9,5,0,0,1,,4,S,0,S,14,0.785196,0.008021,0.006298
25,61,1,7,0,0,1,,6,S,0,S,13,0.001032,0.78813,0.000813
25,62,3,8,0,0,1,,5,S,0,S,13,0.019288,0.763694,0.01473
25,63,9,4,0,0,1,,5,S,0,S,15,0.795115,0.003096,0.002462
25,64,4,7,0,0,1,,3,S,0,S,15,0.003218,0.795997,0.002561
25,65,8,4,0,0,1,,4,S,0,S,14,0.764735,0.021844,0.016705
25,66,6,3,0,0,1,,3,S,0,S,15,0.78177,0.010972,0.008578
25,67,5,4,0,0,1,,1,S,0,S,21,0.791416,0.011836,0.009367
25,68,3,6,0,0,1,,3,S,0,S,15,0.017563,0.777541,0.013656
25,69,2,3,0,0,1,,1,S,0,S,20,0.040746,0.758634,0.030911
25,70,2,7,0,0,1,,5,S,0,S,14,0.004126,0.792212,0.003269
25,71,7,3,0,0,1,,4,S,0,S,14,0.771897,0.015879,0.012257
25,72,3,2,0,0,1,,1,S,0,S,18,0.760466,0.037772,0.028724
26,1,3,5,0,0,1,,2,S,0,S,17,0.026897,0.769343,0.020693
26,2,3,7,0,0,1,,4,S,0,S,16,0.00799,0.793055,0.006337
26,3,2,4,0,0,1,,2,S,0,S,19,0.016858,0.788163,0.013286
26,4,6,3,0,0,1,,3,S,0,S,16,0.751498,0.038565,0.028982
26,5,1,4,0,0,1,,3,S,0,S,15,0.012236,0.784708,0.009602
26,6,8,2,0,0,1,,6,S,0,S,13,0.754697,0.025217,0.019031
26,7,6,7,0,0,1,,1,S,0,S,21,0.02267,0.783815,0.017769
26,8,5,3,0,0,1,,2,S,0,S,18,0.775307,0.02334,0.018096
26,9,5,9,0,0,1,,4,S,0,S,15,0.004447,0.791145,0.003518
26,10,4,9,0,0,1,,5,S,0,S,14,0.023021,0.761486,0.01753
26,11,3,1,0,0,1,,2,S,0,S,14,0.775564,0.012936,0.010033
26,12,1,2,0,0,1,,1,S,0,S,16,0.038694,0.753201,0.029144
26,13,5,6,0,0,1,,1,S,0,S,20,0.015286,0.792063,0.012107
26,14,7,8,0,0,1,,1,S,0,S,19,0.022656,0.780145,0.017675
26,15,4,7,0,0,1,,3,S,0,S,17,0.012613,0.789519,0.009958
26,16,2,1,0,0,1,,1,S,0,S,15,0.795507,0.001708,0.001358
26,17,9,4,0,0,1,,5,S,0,S,15,0.790161,0.005655,0.004469
26,18,9,7,0,0,1,,2,S,0,S,18,0.758537,0.037528,0.028466
26,19,3,2,0,0,1,,1,S,0,S,18,0.764633,0.032547,0.024886
26,20,4,8,0,0,1,,4,S,0,S,16,0.00652,0.792595,0.005168
26,21,6,9,0,0,1,,3,S,0,S,15,0.03162,0.756527,0.023921
26,22,5,4,0,0,1,,1,S,0,S,18,0.766842,0.032299,0.024769
26,23,4,2,0,0,1,,2,S,0,S,17,0.790609,0.010149,0.008024
26,24,2,6,0,0,1,,4,S,0,S,15,0.028022,0.764915,0.021434
26,25,6,8,0,0,1,,2,S,0,S,18,0.018296,0.783621,0.014337
26,26,9,5,0,0,1,,4,S,0,S,17,0.796149,0.004336,0.003452
26,27,6,4,0,0,1,,2,S,0,S,17,0.79673,0.007389,0.005887
26,28,1,3,0,0,1,,2,S,0,S,15,0.018734,0.773728,0.014495
26,29,2,9,0,0,1,,7,L,0,S,13,0.020361,0.759502,0.015464
26,30,6,1,0,0,1,,5,S,0,S,13,0.780659,0.004922,0.003843
26,31,1,7,0,0,1,,6,S,0,S,13,0.018974,0.765063,0.014516
26,32,9,6,0,0,1,,3,S,0,S,17,0.7712,0.026248,0.020242
26,33,8,5,0,0,1,,3,S,0,S,16,0.79552,0.005032,0.004003
26,34,4,5,0,0,1,,1,S,0,S,19,0.026072,0.773605,0.020169
26,35,1,5,0,0,1,,4,S,0,S,14,0.004056,0.788927,0.0032
26,36,9,8,0,0,1,,1,S,0,S,23,0.791741,0.013009,0.010299
26,37,4,3,0,0,1,,1,S,0,S,20,0.772462,0.027,0.020856
26,38,9,3,0,0,1,,6,S,0,S,15,0.790055,0.003734,0.00295
26,39,7,6,0,0,1,,1,S,0,S,22,0.777298,0.02919,0.02269
26,40,8,7,0,0,1,,1,S,0,S,17,0.785529,0.016891,0.013268
26,41,4,6,0,0,1,,2,S,0,S,18,0.017121,0.786281,0.013462
26,42,8,4,0,0,1,,4,S,0,S,14,0.768614,0.020654,0.015875
26,43,6,5,0,0,1,,1,S,0,S,22,0.767077,0.03451,0.026472
26,44,4,1,0,0,1,,3,S,0,S,14,0.797449,0,0
26,45,9,2,0,0,1,,7,L,0,S,14,0.785179,0.004979,0.00391
26,46,7,1,0,0,1,,6,S,0,S,13,0.78963,0,0
26,47,2,5,0,0,1,,3,S,0,S,16,0.010916,0.787766,0.008599
26,48,5,8,0,0,1,,3,S,0,S,16,0.035973,0.755728,0.027186
26,49,8,6,0,0,1,,2,S,0,S,16,0.778043,0.020936,0.016289
26,50,7,9,0,0,1,,2,S,0,S,16,0.012058,0.785808,0.009475
26,51,3,6,0,0,1,,3,S,0,S,16,0.035404,0.758518,0.026855
26,52,3,8,0,0,1,,5,S,0,S,15,0.012801,0.781379,0.010002
26,53,7,5,0,0,1,,2,S,0,S,20,0.786366,0.018306,0.014395
26,54,1,6,0,0,1,,5,S,0,S,13,0.029863,0.751076,0.022429
26,55,1,9,0,0,1,,8,L,0,S,12,0.016874,0.755981,0.012757
26,56,5,2,0,0,1,,3,S,0,S,16,0.785251,0.012925,0.010149
26,57,5,1,0,0,1,,4,S,0,S,13,0.761606,0.018949,0.014432
26,58,3,9,0,0,1,,6,S,0,S,14,0.004047,0.786652,0.003183
26,59,7,3,0,0,1,,4,S,0,S,16,0.778999,0.017493,0.013627
26,60,2,7,0,0,1,,5,S,0,S,15,0.008463,0.789626,0.006683
26,61,8,3,0,0,1,,5,S,0,S,14,0.768249,0.018967,0.014572
26,62,1,8,0,0,1,,7,L,0,S,13,0.004959,0.781769,0.003877
26,63,6,2,0,0,1,,4,S,0,S,15,0.777061,0.016885,0.01312
26,64,9,1,0,0,1,,8,L,0,S,12,0.755019,0.01595,0.012042
26,65,7,2,0,0,1,,5,S,0,S,15,0.794637,0.003547,0.002819
26,66,5,7,0,0,1,,2,S,0,S,18,0.021991,0.78056,0.017165
26,67,2,3,0,0,1,,1,S,0,S,19,0.036958,0.759953,0.028086
26,68,2,8,0,0,1,,6,S,0,S,14,0.020836,0.766836,0.015978
26,69,7,4,0,0,1,,3,S,0,S,16,0.776788,0.021355,0.016588
26,70,3,4,0,0,1,,1,S,0,S,26,0.024909,0.781199,0.019459
26,71,8,9,0,0,1,,1,S,0,S,21,0.010238,0.79562,0.008146
26,72,8,1,0,0,1,,7,L,0,S,12,0.769853,0.006786,0.005224
27,1,2,4,0,0,1,,2,S,0,S,15,0.026916,0.765123,0.020594
27,2,3,2,0,0,1,,1,S,0,S,18,0.767383,0.0284,0.021794
27,3,7,9,0,0,1,,2,S,0,S,17,0.037497,0.75862,0.028446
27,4,1,2,0,0,1,,1,S,0,S,17,0.008576,0.793801,0.006808
27,5,3,8,0,0,1,,5,S,0,S,14,0.005209,0.786101,0.004095
27,6,6,4,0,0,1,,2,S,0,S,18,0.788468,0.016827,0.013267
27,7,1,9,0,0,1,,8,L,0,S,13,0,0.79688,0
27,8,5,2,0,0,1,,3,S,0,S,16,0.771647,0.020925,0.016147
27,9,4,6,0,0,1,,2,S,0,S,17,0.035783,0.762554,0.027286
27,10,3,7,0,0,1,,4,S,0,S,16,0,0.798703,0
27,11,8,9,0,0,0,,1,S,0,S,21,0.772576,0.032095,0.024796
27,12,7,8,0,0,1,,1,S,0,S,16,0.013927,0.78461,0.010927
27,13,2,7,0,0,1,,5,S,0,S,14,0.003843,0.78724,0.003026
27,14,8,6,0,0,1,,2,S,0,S,15,0.75226,0.038311,0.02882
