ANN,trial,N1,N2,P1,P2,Succ.,,Ndist,Ndist,Pdist,Pdist,rt,a1,a2,x_acc
1,1,6,2,0,0,1,,4,S,0,S,16,0.795441,0.008298,0.006601
1,2,3,2,0,0,1,,1,S,0,S,28,0.756045,0.048222,0.036458
1,3,7,1,0,0,1,,6,S,0,S,14,0.791145,0.003644,0.002883
1,4,4,9,0,0,1,,5,S,0,S,15,0.028295,0.762577,0.021577
1,5,9,6,0,0,1,,3,S,0,S,21,0.770494,0.034185,0.026339
1,6,6,3,0,0,1,,3,S,0,S,19,0.777028,0.025608,0.019898
1,7,8,2,0,0,1,,6,S,0,S,14,0.763769,0.02541,0.019408
1,8,4,5,0,0,1,,1,S,0,S,19,0.031944,0.767181,0.024507
1,9,1,2,0,0,1,,1,S,0,S,24,0.019773,0.791659,0.015653
1,10,1,7,0,0,1,,6,S,0,S,14,0.0297,0.757081,0.022485
1,11,8,9,0,0,1,,1,S,0,S,24,0.036626,0.766706,0.028081
1,12,4,7,0,0,1,,3,S,0,S,16,0.017625,0.779053,0.013731
1,13,6,4,0,0,1,,2,S,0,S,23,0.782943,0.026573,0.020806
1,14,7,3,0,0,1,,4,S,0,S,17,0.763944,0.032585,0.024893
1,15,5,3,0,0,1,,2,S,0,S,18,0.792508,0.012433,0.009853
1,16,9,2,0,0,1,,7,L,0,S,13,0.782645,0.007019,0.005493
1,17,2,6,0,0,1,,4,S,0,S,14,0.017904,0.773042,0.013841
1,18,7,6,0,0,0,,1,S,0,S,15,0.036842,0.75314,0.027747
1,19,3,6,0,0,1,,3,S,0,S,13,0.018197,0.765788,0.013935
1,20,4,2,0,0,1,,2,S,0,S,18,0.78268,0.020853,0.016321
1,21,1,9,0,0,1,,8,L,0,S,14,0.013734,0.778724,0.010695
1,22,1,4,0,0,1,,3,S,0,S,16,0.009945,0.794671,0.007903
1,23,5,9,0,0,1,,4,S,0,S,18,0.021923,0.781613,0.017135
1,24,5,1,0,0,1,,4,S,0,S,14,0.786327,0.008064,0.006341
1,25,9,5,0,0,1,,4,S,0,S,14,0.767957,0.021282,0.016344
1,26,2,5,0,0,1,,3,S,0,S,21,0.012551,0.795267,0.009982
1,27,5,4,0,0,1,,1,S,0,S,20,0.795792,0.014948,0.011896
1,28,1,8,0,0,1,,7,L,0,S,13,0.016337,0.767726,0.012543
1,29,2,8,0,0,1,,6,S,0,S,14,0.023508,0.76432,0.017967
1,30,9,3,0,0,1,,6,S,0,S,14,0.787983,0.005867,0.004623
1,31,4,3,0,0,0,,1,S,0,S,23,0.020529,0.784594,0.016107
1,32,2,1,0,0,1,,1,S,0,S,15,0.783589,0.0136,0.010657
1,33,8,6,0,0,0,,2,S,0,S,17,0.010872,0.792318,0.008614
1,34,9,4,0,0,1,,5,S,0,S,14,0.771709,0.021018,0.01622
1,35,9,8,0,0,1,,1,S,0,S,20,0.766471,0.035354,0.027097
1,36,5,2,0,0,1,,3,S,0,S,15,0.771421,0.024585,0.018966
1,37,4,6,0,0,1,,2,S,0,S,14,0.01044,0.781164,0.008155
1,38,1,5,0,0,1,,4,S,0,S,16,0.016443,0.782888,0.012873
1,39,3,5,0,0,1,,2,S,0,S,16,0.032185,0.761848,0.02452
1,40,7,5,0,0,1,,2,S,0,S,19,0.786111,0.017913,0.014082
1,41,5,6,0,0,1,,1,S,0,S,15,0.027281,0.766456,0.02091
1,42,7,9,0,0,1,,2,S,0,S,18,0.045223,0.751102,0.033967
1,43,2,3,0,0,0,,1,S,0,S,37,0.784692,0.023046,0.018084
1,44,2,7,0,0,1,,5,S,0,S,16,0.033586,0.76036,0.025538
1,45,5,7,0,0,1,,2,S,0,S,20,0.020268,0.785412,0.015919
1,46,3,8,0,0,1,,5,S,0,S,13,0.02229,0.759005,0.016918
1,47,9,1,0,0,1,,8,L,0,S,12,0.759581,0.01683,0.012783
1,48,1,6,0,0,1,,5,S,0,S,13,0.012439,0.774215,0.009631
1,49,3,1,0,0,1,,2,S,0,S,17,0.783934,0.018192,0.014261
1,50,3,7,0,0,1,,4,S,0,S,15,0.003002,0.795605,0.002388
1,51,6,9,0,0,1,,3,S,0,S,17,0.021284,0.779857,0.016598
1,52,8,5,0,0,1,,3,S,0,S,17,0.787342,0.01371,0.010794
1,53,6,7,0,0,1,,1,S,0,S,18,0.033189,0.765939,0.025421
1,54,6,5,0,0,1,,1,S,0,S,22,0.758834,0.042279,0.032083
1,55,7,2,0,0,1,,5,S,0,S,15,0.779772,0.017312,0.013499
1,56,8,7,0,0,1,,1,S,0,S,22,0.751837,0.046921,0.035277
1,57,6,8,0,0,1,,2,S,0,S,15,0.017704,0.776841,0.013753
1,58,4,8,0,0,1,,4,S,0,S,14,0.015684,0.772922,0.012122
1,59,5,8,0,0,1,,3,S,0,S,15,0.03553,0.754315,0.026801
1,60,8,4,0,0,1,,4,S,0,S,17,0.789916,0.014567,0.011506
1,61,7,4,0,0,1,,3,S,0,S,19,0.784981,0.021857,0.017157
1,62,2,9,0,0,1,,7,L,0,S,16,0.004792,0.797962,0.003824
1,63,8,3,0,0,1,,5,S,0,S,16,0.781766,0.015984,0.012496
1,64,1,3,0,0,1,,2,S,0,S,17,0.014581,0.787976,0.01149
1,65,6,1,0,0,1,,5,S,0,S,14,0.770141,0.020215,0.015569
1,66,3,9,0,0,1,,6,S,0,S,14,0.021845,0.767309,0.016762
1,67,3,4,0,0,1,,1,S,0,S,16,0.025061,0.774608,0.019413
1,68,9,7,0,0,1,,2,S,0,S,15,0.750238,0.038936,0.029211
1,69,4,1,0,0,1,,3,S,0,S,15,0.764388,0.027247,0.020827
1,70,7,8,0,0,1,,1,S,0,S,16,0.009549,0.790356,0.007547
1,71,2,4,0,0,1,,2,S,0,S,20,0.029311,0.7774,0.022786
1,72,8,1,0,0,1,,7,L,0,S,13,0.761466,0.020982,0.015977
2,1,9,8,0,0,1,,1,S,0,S,22,0.757608,0.044848,0.033977
2,2,4,7,0,0,1,,3,S,0,S,19,0.010739,0.792826,0.008514
2,3,4,6,0,0,1,,2,S,0,S,18,0.029292,0.768201,0.022502
2,4,2,9,0,0,1,,7,L,0,S,14,0.023558,0.765059,0.018023
2,5,3,1,0,0,1,,2,S,0,S,17,0.792147,0.011398,0.009029
2,6,6,3,0,0,1,,3,S,0,S,18,0.770439,0.027973,0.021551
2,7,4,8,0,0,1,,4,S,0,S,16,0.024356,0.770346,0.018763
2,8,4,5,0,0,1,,1,S,0,S,28,0.038758,0.764046,0.029613
2,9,9,3,0,0,1,,6,S,0,S,15,0.774581,0.020557,0.015923
2,10,5,8,0,0,1,,3,S,0,S,17,0.014865,0.787729,0.01171
2,11,2,5,0,0,1,,3,S,0,S,18,0.019236,0.783798,0.015077
2,12,3,7,0,0,1,,4,S,0,S,17,0.032479,0.765919,0.024876
2,13,9,5,0,0,1,,4,S,0,S,16,0.796952,0.007038,0.005609
2,14,7,8,0,0,0,,1,S,0,S,17,0.767939,0.029832,0.022909
2,15,1,8,0,0,1,,7,L,0,S,14,0.014332,0.776226,0.011125
2,16,6,8,0,0,1,,2,S,0,S,17,0.037045,0.757289,0.028054
2,17,4,1,0,0,1,,3,S,0,S,16,0.770711,0.023017,0.017739
2,18,5,9,0,0,1,,4,S,0,S,16,0.015202,0.785974,0.011948
2,19,4,9,0,0,1,,5,S,0,S,15,0.031255,0.759137,0.023727
2,20,3,6,0,0,1,,3,S,0,S,17,0.020363,0.781503,0.015914
2,21,8,4,0,0,1,,4,S,0,S,15,0.750678,0.036902,0.027701
2,22,6,5,0,0,1,,1,S,0,S,20,0.774147,0.028477,0.022046
2,23,3,5,0,0,1,,2,S,0,S,21,0.015289,0.795284,0.012159
2,24,4,3,0,0,1,,1,S,0,S,21,0.762633,0.03672,0.028004
2,25,7,9,0,0,0,,2,S,0,S,19,0.79505,0.012337,0.009809
2,26,3,4,0,0,1,,1,S,0,S,22,0.03373,0.772777,0.026065
2,27,5,4,0,0,1,,1,S,0,S,20,0.76146,0.040277,0.03067
2,28,6,7,0,0,1,,1,S,0,S,23,0.016106,0.789406,0.012714
2,29,1,5,0,0,1,,4,S,0,S,16,0.02409,0.773324,0.01863
2,30,5,1,0,0,1,,4,S,0,S,15,0.755435,0.03396,0.025654
2,31,1,7,0,0,1,,6,S,0,S,15,0.016596,0.777294,0.0129
2,32,8,1,0,0,1,,7,L,0,S,14,0.786789,0.00381,0.002997
2,33,1,4,0,0,1,,3,S,0,S,16,0.035282,0.758771,0.026771
2,34,1,6,0,0,1,,5,S,0,S,15,0.010778,0.785007,0.008461
2,35,7,3,0,0,1,,4,S,0,S,14,0.772899,0.016661,0.012877
2,36,5,6,0,0,1,,1,S,0,S,20,0.01557,0.790815,0.012313
2,37,5,3,0,0,1,,2,S,0,S,19,0.785306,0.019244,0.015112
2,38,1,2,0,0,1,,1,S,0,S,17,0.040829,0.756041,0.030868
2,39,9,4,0,0,1,,5,S,0,S,15,0.757479,0.034833,0.026385
2,40,2,7,0,0,1,,5,S,0,S,16,0.022526,0.772821,0.017409
2,41,7,6,0,0,1,,1,S,0,S,16,0.796009,0.005046,0.004016
2,42,9,1,0,0,1,,8,L,0,S,14,0.792954,0.001936,0.001535
2,43,8,2,0,0,1,,6,S,0,S,15,0.784389,0.011807,0.009261
2,44,9,2,0,0,1,,7,L,0,S,15,0.790945,0.009727,0.007694
2,45,2,4,0,0,1,,2,S,0,S,18,0.039383,0.758088,0.029856
2,46,7,5,0,0,1,,2,S,0,S,14,0.754421,0.031949,0.024103
2,47,6,2,0,0,1,,4,S,0,S,17,0.756808,0.039202,0.029668
2,48,2,8,0,0,1,,6,S,0,S,15,0.006979,0.790029,0.005513
2,49,1,3,0,0,1,,2,S,0,S,17,0.024494,0.774063,0.01896
2,50,2,3,0,0,1,,1,S,0,S,20,0.018842,0.785347,0.014797
2,51,6,4,0,0,1,,2,S,0,S,19,0.765726,0.034018,0.026048
2,52,8,3,0,0,1,,5,S,0,S,15,0.767787,0.022711,0.017437
2,53,3,8,0,0,1,,5,S,0,S,15,0.034112,0.757954,0.025855
2,54,2,1,0,0,1,,1,S,0,S,19,0.796822,0.008063,0.006424
2,55,9,7,0,0,1,,2,S,0,S,17,0.762813,0.034643,0.026426
2,56,3,9,0,0,1,,6,S,0,S,15,0.009771,0.790526,0.007724
2,57,6,1,0,0,1,,5,S,0,S,15,0.765279,0.024643,0.018859
2,58,2,6,0,0,1,,4,S,0,S,16,0.014318,0.783541,0.011219
2,59,6,9,0,0,1,,3,S,0,S,16,0.031652,0.76279,0.024144
2,60,7,2,0,0,1,,5,S,0,S,14,0.785542,0.008792,0.006906
2,61,5,2,0,0,1,,3,S,0,S,18,0.779427,0.024867,0.019382
2,62,8,9,0,0,1,,1,S,0,S,24,0.019356,0.787331,0.015239
2,63,8,7,0,0,1,,1,S,0,S,17,0.755402,0.037059,0.027995
2,64,4,2,0,0,1,,2,S,0,S,20,0.787419,0.018528,0.014589
2,65,7,4,0,0,1,,3,S,0,S,14,0.7616,0.026257,0.019998
2,66,1,9,0,0,1,,8,L,0,S,14,0,0.79745,0
2,67,3,2,0,0,1,,1,S,0,S,23,0.7726,0.035475,0.027408
2,68,9,6,0,0,1,,3,S,0,S,18,0.794413,0.011449,0.009095
2,69,8,6,0,0,1,,2,S,0,S,18,0.786885,0.014083,0.011081
2,70,8,5,0,0,1,,3,S,0,S,16,0.789952,0.009407,0.007431
2,71,7,1,0,0,1,,6,S,0,S,13,0.771806,0.011962,0.009232
2,72,5,7,0,0,1,,2,S,0,S,20,0.045375,0.753151,0.034175
3,1,1,3,0,0,1,,2,S,0,S,14,0.011267,0.779272,0.00878
3,2,1,6,0,0,1,,5,S,0,S,13,0,0.796935,0
3,3,3,5,0,0,1,,2,S,0,S,19,0.010837,0.797241,0.008639
3,4,7,4,0,0,1,,3,S,0,S,14,0.762382,0.025769,0.019646
3,5,4,9,0,0,1,,5,S,0,S,15,0.021043,0.772161,0.016249
3,6,6,7,0,0,1,,1,S,0,S,16,0.017053,0.780096,0.013303
3,7,4,5,0,0,0,,1,S,0,S,22,0.776774,0.029552,0.022955
3,8,4,2,0,0,1,,2,S,0,S,22,0.784526,0.023876,0.018731
3,9,9,1,0,0,1,,8,L,0,S,13,0.795219,0,0
3,10,2,9,0,0,1,,7,L,0,S,14,0.030542,0.753721,0.02302
3,11,6,8,0,0,1,,2,S,0,S,21,0.01725,0.789561,0.01362
3,12,1,9,0,0,1,,8,L,0,S,13,0,0.801021,0
3,13,2,8,0,0,1,,6,S,0,S,16,0.011933,0.788382,0.009408
3,14,8,4,0,0,1,,4,S,0,S,14,0.767344,0.022082,0.016945
3,15,2,7,0,0,1,,5,S,0,S,14,0.017955,0.770729,0.013838
3,16,7,8,0,0,0,,1,S,0,S,18,0.771461,0.029973,0.023123
3,17,6,9,0,0,1,,3,S,0,S,17,0.005316,0.797043,0.004237
3,18,1,7,0,0,1,,6,S,0,S,12,0.018348,0.754133,0.013837
3,19,9,8,0,0,1,,1,S,0,S,15,0.756155,0.034042,0.025741
3,20,9,3,0,0,1,,6,S,0,S,14,0.773036,0.016564,0.012804
3,21,9,7,0,0,1,,2,S,0,S,19,0.775089,0.026122,0.020247
3,22,4,1,0,0,1,,3,S,0,S,16,0.798611,0.005634,0.004499
3,23,5,4,0,0,1,,1,S,0,S,16,0.770283,0.024438,0.018825
3,24,3,2,0,0,0,,1,S,0,S,19,0.011635,0.796904,0.009272
3,25,8,6,0,0,1,,2,S,0,S,24,0.763118,0.040662,0.03103
3,26,4,8,0,0,1,,4,S,0,S,17,0.021929,0.779589,0.017096
3,27,1,5,0,0,1,,4,S,0,S,14,0.023366,0.764513,0.017863
3,28,4,6,0,0,1,,2,S,0,S,15,0.03308,0.758289,0.025084
3,29,7,6,0,0,1,,1,S,0,S,28,0.783298,0.024906,0.019509
3,30,3,8,0,0,1,,5,S,0,S,15,0.021176,0.773833,0.016386
3,31,2,1,0,0,1,,1,S,0,S,17,0.787859,0.015438,0.012163
3,32,2,5,0,0,1,,3,S,0,S,22,0.0132,0.795876,0.010506
3,33,8,5,0,0,1,,3,S,0,S,15,0.788085,0.010458,0.008242
3,34,4,3,0,0,0,,1,S,0,S,27,0.015676,0.79427,0.012451
3,35,7,2,0,0,1,,5,S,0,S,15,0.783908,0.014068,0.011028
3,36,7,9,0,0,1,,2,S,0,S,23,0.045074,0.755133,0.034037
3,37,8,2,0,0,1,,6,S,0,S,15,0.789884,0.009522,0.007521
3,38,5,2,0,0,1,,3,S,0,S,17,0.757182,0.038117,0.028861
3,39,7,3,0,0,1,,4,S,0,S,15,0.755592,0.034795,0.026291
3,40,6,4,0,0,1,,2,S,0,S,16,0.77376,0.022733,0.01759
3,41,6,3,0,0,1,,3,S,0,S,19,0.791767,0.013261,0.0105
3,42,6,1,0,0,1,,5,S,0,S,14,0.750221,0.035391,0.026551
3,43,9,2,0,0,1,,7,L,0,S,14,0.791902,0.003249,0.002573
3,44,8,9,0,0,1,,1,S,0,S,26,0.019669,0.787882,0.015497
3,45,3,6,0,0,1,,3,S,0,S,14,0.020799,0.768943,0.015993
3,46,5,7,0,0,1,,2,S,0,S,16,0.017711,0.777971,0.013779
3,47,3,1,0,0,1,,2,S,0,S,18,0.774292,0.028668,0.022197
3,48,1,8,0,0,1,,7,L,0,S,13,0.012019,0.772559,0.009286
3,49,8,1,0,0,1,,7,L,0,S,13,0.761392,0.022704,0.017287
3,50,5,8,0,0,1,,3,S,0,S,21,0.017153,0.788306,0.013522
3,51,8,3,0,0,1,,5,S,0,S,15,0.762757,0.029374,0.022405
3,52,3,4,0,0,1,,1,S,0,S,23,0.050429,0.750021,0.037823
3,53,5,1,0,0,1,,4,S,0,S,15,0.799019,0.000508,0.000406
3,54,9,5,0,0,1,,4,S,0,S,14,0.790422,0.003947,0.00312
3,55,1,2,0,0,1,,1,S,0,S,14,0.023359,0.765128,0.017872
3,56,5,3,0,0,1,,2,S,0,S,19,0.786747,0.016196,0.012743
3,57,5,6,0,0,1,,1,S,0,S,17,0.025986,0.771246,0.020042
3,58,2,3,0,0,1,,1,S,0,S,19,0.030333,0.770689,0.023377
3,59,3,7,0,0,1,,4,S,0,S,14,0.002174,0.792145,0.001722
3,60,9,4,0,0,1,,5,S,0,S,13,0.758522,0.022742,0.017251
3,61,9,6,0,0,1,,3,S,0,S,17,0.775113,0.02412,0.018696
3,62,2,4,0,0,0,,2,S,0,S,22,0.766013,0.036434,0.027909
3,63,3,9,0,0,1,,6,S,0,S,14,0.013,0.777534,0.010108
3,64,5,9,0,0,1,,4,S,0,S,17,0.006032,0.794853,0.004794
3,65,6,2,0,0,1,,4,S,0,S,17,0.761337,0.035914,0.027343
3,66,1,4,0,0,1,,3,S,0,S,15,0.013254,0.781713,0.010361
3,67,2,6,0,0,1,,4,S,0,S,15,0.003776,0.794861,0.003002
3,68,7,5,0,0,1,,2,S,0,S,15,0.782067,0.01503,0.011754
3,69,7,1,0,0,1,,6,S,0,S,13,0.7577,0.025388,0.019236
3,70,8,7,0,0,0,,1,S,0,S,21,0.017688,0.789084,0.013957
3,71,4,7,0,0,1,,3,S,0,S,15,0.005424,0.792791,0.0043
3,72,6,5,0,0,1,,1,S,0,S,17,0.758381,0.037711,0.028599
4,1,7,4,0,0,1,,3,S,0,S,15,0.769245,0.024869,0.01913
4,2,4,3,0,0,1,,1,S,0,S,20,0.789931,0.014398,0.011373
4,3,2,4,0,0,1,,2,S,0,S,18,0.019639,0.782104,0.01536
4,4,8,7,0,0,0,,1,S,0,S,17,0.031677,0.767112,0.0243
4,5,5,1,0,0,1,,4,S,0,S,14,0.762652,0.026201,0.019982
4,6,3,7,0,0,1,,4,S,0,S,14,0,0.800812,0
4,7,8,3,0,0,1,,5,S,0,S,16,0.777776,0.019273,0.01499
4,8,3,4,0,0,1,,1,S,0,S,28,0.045521,0.758916,0.034547
4,9,7,1,0,0,1,,6,S,0,S,14,0.796161,0.000848,0.000676
4,10,4,5,0,0,1,,1,S,0,S,23,0.012072,0.794922,0.009597
4,11,6,3,0,0,1,,3,S,0,S,17,0.787395,0.011324,0.008917
4,12,1,5,0,0,1,,4,S,0,S,14,0.024002,0.763189,0.018318
4,13,6,2,0,0,1,,4,S,0,S,15,0.779405,0.015774,0.012294
4,14,7,5,0,0,1,,2,S,0,S,20,0.775079,0.026931,0.020874
4,15,9,3,0,0,1,,6,S,0,S,14,0.769843,0.017274,0.013298
4,16,5,8,0,0,1,,3,S,0,S,18,0.014018,0.790438,0.01108
4,17,2,3,0,0,1,,1,S,0,S,16,0.015919,0.778971,0.012401
4,18,1,4,0,0,1,,3,S,0,S,17,0.011378,0.793557,0.009029
4,19,6,8,0,0,1,,2,S,0,S,23,0.024856,0.77966,0.019379
4,20,9,7,0,0,1,,2,S,0,S,21,0.766375,0.03514,0.026931
4,21,1,8,0,0,1,,7,L,0,S,13,0.030453,0.750216,0.022846
4,22,8,5,0,0,1,,3,S,0,S,18,0.7744,0.025924,0.020075
4,23,3,8,0,0,1,,5,S,0,S,15,0.007091,0.792241,0.005617
4,24,7,2,0,0,1,,5,S,0,S,15,0.778572,0.018241,0.014202
4,25,3,5,0,0,1,,2,S,0,S,16,0.019867,0.777189,0.015441
4,26,1,3,0,0,1,,2,S,0,S,15,0.026148,0.76519,0.020008
4,27,7,9,0,0,1,,2,S,0,S,17,0.023304,0.775583,0.018074
4,28,7,3,0,0,1,,4,S,0,S,17,0.783675,0.0162,0.012696
4,29,4,6,0,0,1,,2,S,0,S,19,0.03958,0.757449,0.02998
4,30,6,7,0,0,1,,1,S,0,S,17,0.004936,0.79775,0.003938
4,31,4,7,0,0,1,,3,S,0,S,15,0.01979,0.774408,0.015325
4,32,6,5,0,0,1,,1,S,0,S,20,0.791404,0.011828,0.00936
4,33,5,6,0,0,1,,1,S,0,S,20,0.018685,0.78475,0.014663
4,34,2,7,0,0,1,,5,S,0,S,13,0.008599,0.775998,0.006673
4,35,9,5,0,0,1,,4,S,0,S,15,0.776143,0.016304,0.012654
4,36,3,2,0,0,1,,1,S,0,S,27,0.79561,0.016602,0.013209
4,37,8,2,0,0,1,,6,S,0,S,14,0.752531,0.034969,0.026315
4,38,6,4,0,0,1,,2,S,0,S,15,0.770312,0.022198,0.017099
4,39,3,1,0,0,1,,2,S,0,S,16,0.751309,0.043166,0.032431
4,40,6,9,0,0,1,,3,S,0,S,17,0.034474,0.758832,0.02616
4,41,2,9,0,0,1,,7,L,0,S,13,0.016862,0.76381,0.01288
4,42,3,6,0,0,1,,3,S,0,S,15,0.031975,0.757977,0.024236
4,43,1,6,0,0,1,,5,S,0,S,14,0.010118,0.781367,0.007905
4,44,2,1,0,0,1,,1,S,0,S,20,0.764157,0.036865,0.02817
4,45,4,1,0,0,1,,3,S,0,S,14,0.759192,0.028977,0.021999
4,46,7,6,0,0,1,,1,S,0,S,24,0.751,0.048085,0.036112
4,47,5,2,0,0,1,,3,S,0,S,16,0.772116,0.025702,0.019845
4,48,9,8,0,0,1,,1,S,0,S,16,0.766568,0.028517,0.02186
4,49,8,1,0,0,1,,7,L,0,S,13,0.759537,0.024376,0.018514
4,50,8,4,0,0,1,,4,S,0,S,15,0.796301,0.004277,0.003406
4,51,5,9,0,0,1,,4,S,0,S,16,0.006106,0.794022,0.004848
4,52,2,5,0,0,1,,3,S,0,S,15,0.006403,0.787941,0.005045
4,53,3,9,0,0,1,,6,S,0,S,14,0.006828,0.786156,0.005368
4,54,4,8,0,0,1,,4,S,0,S,17,0.041781,0.75336,0.031476
4,55,1,7,0,0,1,,6,S,0,S,13,0,0.792266,0
4,56,9,1,0,0,1,,8,L,0,S,13,0.804344,0,0
4,57,4,2,0,0,1,,2,S,0,S,16,0.765552,0.030974,0.023712
4,58,9,2,0,0,1,,7,L,0,S,13,0.763207,0.020101,0.015341
4,59,4,9,0,0,1,,5,S,0,S,16,0.001736,0.799726,0.001388
4,60,5,4,0,0,1,,1,S,0,S,16,0.758991,0.035306,0.026797
4,61,8,9,0,0,1,,1,S,0,S,18,0.034333,0.764465,0.026246
4,62,9,6,0,0,1,,3,S,0,S,16,0.799483,0.000882,0.000705
4,63,5,3,0,0,1,,2,S,0,S,19,0.761267,0.036151,0.027521
4,64,5,7,0,0,1,,2,S,0,S,15,0.02361,0.769337,0.018164
4,65,9,4,0,0,1,,5,S,0,S,13,0.757739,0.023657,0.017926
4,66,6,1,0,0,1,,5,S,0,S,14,0.795594,0,0
4,67,7,8,0,0,1,,1,S,0,S,22,0.01615,0.792636,0.012801
4,68,1,2,0,0,1,,1,S,0,S,17,0.021149,0.782109,0.016541
4,69,2,6,0,0,1,,4,S,0,S,14,0.026158,0.757543,0.019815
4,70,1,9,0,0,1,,8,L,0,S,13,0.0058,0.781164,0.004531
4,71,2,8,0,0,1,,6,S,0,S,14,0.008383,0.782988,0.006564
4,72,8,6,0,0,1,,2,S,0,S,20,0.785326,0.01944,0.015266
5,1,9,2,0,0,1,,7,L,0,S,15,0.781418,0.015093,0.011794
5,2,3,7,0,0,1,,4,S,0,S,16,0.010904,0.790285,0.008617
5,3,8,7,0,0,0,,1,S,0,S,21,0.040552,0.759937,0.030817
5,4,6,9,0,0,1,,3,S,0,S,16,0.001742,0.799345,0.001392
5,5,1,8,0,0,1,,7,L,0,S,15,0.004684,0.791895,0.003709
5,6,1,4,0,0,1,,3,S,0,S,16,0.028551,0.763095,0.021787
5,7,1,5,0,0,1,,4,S,0,S,16,0.008051,0.794099,0.006393
5,8,8,9,0,0,1,,1,S,0,S,18,0.019487,0.781625,0.015232
5,9,2,7,0,0,1,,5,S,0,S,15,0.005572,0.792976,0.004419
5,10,7,2,0,0,1,,5,S,0,S,15,0.751507,0.036749,0.027617
5,11,8,6,0,0,1,,2,S,0,S,20,0.783179,0.019703,0.015431
5,12,3,1,0,0,1,,2,S,0,S,15,0.75737,0.031677,0.023991
5,13,1,9,0,0,1,,8,L,0,S,14,0,0.802766,0
5,14,5,9,0,0,1,,4,S,0,S,16,0.028465,0.767499,0.021847
5,15,9,4,0,0,1,,5,S,0,S,17,0.776605,0.022323,0.017336
5,16,6,1,0,0,1,,5,S,0,S,15,0.784267,0.009722,0.007625
5,17,2,5,0,0,1,,3,S,0,S,17,0.036004,0.763504,0.027489
5,18,3,2,0,0,1,,1,S,0,S,18,0.796538,0.009617,0.00766
5,19,9,3,0,0,1,,6,S,0,S,16,0.776909,0.019197,0.014914
5,20,5,4,0,0,1,,1,S,0,S,19,0.795575,0.010481,0.008338
5,21,9,5,0,0,1,,4,S,0,S,17,0.755988,0.042535,0.032156
5,22,7,4,0,0,1,,3,S,0,S,18,0.765502,0.031029,0.023753
5,23,7,1,0,0,1,,6,S,0,S,14,0.762605,0.022439,0.017112
5,24,4,9,0,0,1,,5,S,0,S,15,0.009332,0.789402,0.007367
5,25,4,5,0,0,1,,1,S,0,S,21,0.023326,0.787948,0.018379
5,26,8,3,0,0,1,,5,S,0,S,16,0.784927,0.011717,0.009197
5,27,2,8,0,0,1,,6,S,0,S,16,0.009296,0.791426,0.007357
5,28,5,7,0,0,1,,2,S,0,S,18,0.016599,0.788582,0.01309
5,29,2,9,0,0,1,,7,L,0,S,14,0.016469,0.773016,0.012731
5,30,1,6,0,0,1,,5,S,0,S,15,0.013587,0.778961,0.010583
5,31,3,6,0,0,1,,3,S,0,S,18,0.02253,0.778425,0.017538
5,32,8,5,0,0,1,,3,S,0,S,17,0.771398,0.02911,0.022455
5,33,9,6,0,0,1,,3,S,0,S,21,0.790444,0.015869,0.012544
5,34,5,3,0,0,1,,2,S,0,S,17,0.775266,0.023057,0.017876
5,35,3,5,0,0,1,,2,S,0,S,21,0.038298,0.767275,0.029385
5,36,7,8,0,0,1,,1,S,0,S,25,0.037668,0.764426,0.028794
5,37,5,6,0,0,1,,1,S,0,S,27,0.021138,0.786509,0.016625
5,38,4,6,0,0,1,,2,S,0,S,18,0.016059,0.788534,0.012663
5,39,3,4,0,0,1,,1,S,0,S,26,0.02113,0.785363,0.016595
5,40,9,8,0,0,1,,1,S,0,S,22,0.761087,0.04122,0.031372
5,41,4,1,0,0,1,,3,S,0,S,15,0.758736,0.032091,0.024349
5,42,1,7,0,0,1,,6,S,0,S,14,0.011471,0.778744,0.008933
5,43,8,2,0,0,1,,6,S,0,S,15,0.78676,0.009779,0.007694
5,44,8,4,0,0,1,,4,S,0,S,17,0.788494,0.011699,0.009224
5,45,6,8,0,0,1,,2,S,0,S,19,0.030285,0.770233,0.023326
5,46,4,7,0,0,1,,3,S,0,S,16,0.007154,0.79688,0.005701
5,47,1,2,0,0,1,,1,S,0,S,20,0.026264,0.775663,0.020372
5,48,6,7,0,0,1,,1,S,0,S,17,0.010246,0.792308,0.008118
5,49,2,4,0,0,1,,2,S,0,S,18,0.0349,0.761971,0.026593
5,50,2,6,0,0,1,,4,S,0,S,16,0.021993,0.773732,0.017017
5,51,3,9,0,0,1,,6,S,0,S,15,0.012293,0.783797,0.009635
5,52,6,5,0,0,1,,1,S,0,S,25,0.781865,0.026759,0.020922
5,53,2,3,0,0,1,,1,S,0,S,21,0.033241,0.766684,0.025486
5,54,4,2,0,0,1,,2,S,0,S,18,0.79627,0.011375,0.009058
5,55,7,6,0,0,1,,1,S,0,S,28,0.771764,0.030782,0.023756
5,56,5,8,0,0,1,,3,S,0,S,22,0.046948,0.754482,0.035421
5,57,1,3,0,0,1,,2,S,0,S,17,0.037225,0.753776,0.028059
5,58,7,5,0,0,1,,2,S,0,S,19,0.778477,0.026062,0.020289
5,59,5,1,0,0,1,,4,S,0,S,14,0.760787,0.025699,0.019552
5,60,9,1,0,0,1,,8,L,0,S,14,0.783326,0.008035,0.006294
5,61,3,8,0,0,1,,5,S,0,S,17,0.036838,0.759774,0.027989
5,62,7,3,0,0,1,,4,S,0,S,17,0.783986,0.014122,0.011072
5,63,8,1,0,0,1,,7,L,0,S,14,0.786395,0.004596,0.003614
5,64,6,2,0,0,1,,4,S,0,S,16,0.752679,0.039132,0.029454
5,65,6,4,0,0,1,,2,S,0,S,21,0.755619,0.042,0.031736
5,66,4,8,0,0,1,,4,S,0,S,17,0.031226,0.76888,0.024009
5,67,4,3,0,0,1,,1,S,0,S,21,0.767395,0.034827,0.026726
5,68,7,9,0,0,1,,2,S,0,S,17,0.004983,0.797456,0.003973
5,69,5,2,0,0,1,,3,S,0,S,16,0.796851,0.006222,0.004958
5,70,2,1,0,0,1,,1,S,0,S,17,0.784752,0.014897,0.01169
5,71,6,3,0,0,1,,3,S,0,S,18,0.752287,0.040921,0.030784
5,72,9,7,0,0,0,,2,S,0,S,20,0.033101,0.770088,0.025491
6,1,6,8,0,0,1,,2,S,0,S,21,0.019479,0.788008,0.01535
6,2,8,1,0,0,1,,7,L,0,S,13,0.751203,0.028511,0.021418
6,3,6,7,0,0,1,,1,S,0,S,23,0.046133,0.756201,0.034886
6,4,4,9,0,0,1,,5,S,0,S,15,0,0.800041,0
6,5,1,3,0,0,1,,2,S,0,S,18,0.016414,0.783091,0.012854
6,6,5,7,0,0,1,,2,S,0,S,16,0.030502,0.765952,0.023363
6,7,3,6,0,0,1,,3,S,0,S,16,0.018936,0.779806,0.014766
6,8,6,4,0,0,1,,2,S,0,S,16,0.781616,0.017664,0.013807
6,9,9,3,0,0,1,,6,S,0,S,15,0.78455,0.012865,0.010093
6,10,9,4,0,0,1,,5,S,0,S,15,0.780106,0.017281,0.013481
6,11,2,3,0,0,1,,1,S,0,S,19,0.028805,0.770302,0.022189
6,12,4,1,0,0,1,,3,S,0,S,15,0.778428,0.01784,0.013887
6,13,7,4,0,0,1,,3,S,0,S,15,0.773614,0.019223,0.014871
6,14,6,2,0,0,1,,4,S,0,S,15,0.769161,0.024425,0.018787
6,15,1,5,0,0,1,,4,S,0,S,16,0.024165,0.770944,0.01863
6,16,3,2,0,0,1,,1,S,0,S,23,0.792533,0.016495,0.013073
6,17,4,5,0,0,1,,1,S,0,S,23,0.030838,0.7776,0.023979
6,18,8,2,0,0,1,,6,S,0,S,15,0.784438,0.012465,0.009778
6,19,3,1,0,0,1,,2,S,0,S,16,0.778892,0.019256,0.014998
6,20,6,5,0,0,1,,1,S,0,S,17,0.773571,0.027096,0.020961
6,21,3,7,0,0,1,,4,S,0,S,15,0.026588,0.767109,0.020396
6,22,5,8,0,0,1,,3,S,0,S,16,0.014855,0.785581,0.01167
6,23,8,9,0,0,1,,1,S,0,S,17,0.03819,0.755799,0.028864
6,24,8,4,0,0,1,,4,S,0,S,15,0.750675,0.038747,0.029087
6,25,8,7,0,0,1,,1,S,0,S,28,0.791185,0.018862,0.014923
6,26,2,5,0,0,1,,3,S,0,S,17,0.014285,0.787534,0.01125
6,27,9,2,0,0,1,,7,L,0,S,14,0.75686,0.031292,0.023683
6,28,2,9,0,0,1,,7,L,0,S,14,0,0.79608,0
6,29,9,5,0,0,1,,4,S,0,S,16,0.790718,0.012698,0.010041
6,30,4,7,0,0,1,,3,S,0,S,16,0.028769,0.769624,0.022141
6,31,5,3,0,0,1,,2,S,0,S,20,0.763021,0.037494,0.028609
6,32,5,6,0,0,1,,1,S,0,S,17,0.036492,0.760328,0.027746
6,33,4,3,0,0,1,,1,S,0,S,20,0.765478,0.036796,0.028167
6,34,7,3,0,0,1,,4,S,0,S,15,0.778006,0.014864,0.011565
6,35,2,8,0,0,1,,6,S,0,S,14,0.028504,0.757038,0.021579
6,36,8,6,0,0,1,,2,S,0,S,20,0.775674,0.028094,0.021792
6,37,6,1,0,0,1,,5,S,0,S,14,0.795603,0,0
6,38,1,9,0,0,1,,8,L,0,S,13,0.023242,0.75366,0.017516
6,39,9,8,0,0,1,,1,S,0,S,23,0.771385,0.035301,0.02723
6,40,9,6,0,0,1,,3,S,0,S,18,0.770942,0.031196,0.02405
6,41,7,9,0,0,1,,2,S,0,S,19,0.020345,0.779639,0.015862
6,42,7,5,0,0,1,,2,S,0,S,16,0.784017,0.014786,0.011592
6,43,3,4,0,0,1,,1,S,0,S,22,0.04193,0.760416,0.031884
6,44,7,2,0,0,1,,5,S,0,S,14,0.750679,0.032964,0.024745
6,45,9,7,0,0,1,,2,S,0,S,20,0.751943,0.049332,0.037095
6,46,1,7,0,0,1,,6,S,0,S,14,0.024359,0.761506,0.018549
6,47,1,2,0,0,1,,1,S,0,S,19,0.035929,0.761198,0.027349
6,48,7,1,0,0,1,,6,S,0,S,13,0.761739,0.018987,0.014463
6,49,6,3,0,0,1,,3,S,0,S,16,0.788082,0.011598,0.00914
6,50,4,6,0,0,1,,2,S,0,S,17,0.034337,0.764578,0.026253
6,51,2,4,0,0,1,,2,S,0,S,19,0.009137,0.796335,0.007276
6,52,3,5,0,0,1,,2,S,0,S,18,0.039391,0.760296,0.029949
6,53,1,6,0,0,1,,5,S,0,S,15,0.008071,0.786648,0.006349
6,54,4,8,0,0,1,,4,S,0,S,16,0.013221,0.789073,0.010432
6,55,4,2,0,0,1,,2,S,0,S,18,0.767436,0.033988,0.026084
6,56,2,7,0,0,1,,5,S,0,S,15,0.001588,0.797009,0.001265
6,57,8,5,0,0,1,,3,S,0,S,16,0.752047,0.041632,0.031309
6,58,6,9,0,0,1,,3,S,0,S,17,0.014643,0.785831,0.011507
6,59,1,4,0,0,1,,3,S,0,S,17,0.038551,0.754219,0.029076
6,60,5,2,0,0,1,,3,S,0,S,18,0.764759,0.034895,0.026686
6,61,7,6,0,0,1,,1,S,0,S,18,0.764286,0.033003,0.025223
6,62,2,1,0,0,1,,1,S,0,S,17,0.763421,0.03175,0.024238
6,63,1,8,0,0,1,,7,L,0,S,14,0.016354,0.771695,0.01262
6,64,3,8,0,0,1,,5,S,0,S,15,0.01532,0.781297,0.01197
6,65,7,8,0,0,0,,1,S,0,S,23,0.773835,0.029684,0.02297
6,66,5,4,0,0,1,,1,S,0,S,21,0.772692,0.031605,0.024421
6,67,5,1,0,0,1,,4,S,0,S,15,0.776017,0.018628,0.014456
6,68,8,3,0,0,1,,5,S,0,S,15,0.756416,0.03332,0.025204
6,69,2,6,0,0,1,,4,S,0,S,15,0.023743,0.767676,0.018227
6,70,9,1,0,0,1,,8,L,0,S,13,0.76735,0.01756,0.013475
6,71,5,9,0,0,1,,4,S,0,S,15,0.001117,0.797043,0.000891
6,72,3,9,0,0,1,,6,S,0,S,14,0.01293,0.777047,0.010047
7,1,4,6,0,0,1,,2,S,0,S,15,0.017134,0.775337,0.013285
7,2,2,7,0,0,1,,5,S,0,S,14,0,0.799075,0
7,3,6,8,0,0,1,,2,S,0,S,17,0.033545,0.764894,0.025659
7,4,9,8,0,0,1,,1,S,0,S,16,0.780406,0.017957,0.014014
7,5,2,9,0,0,1,,7,L,0,S,14,0.011119,0.77811,0.008652
7,6,7,5,0,0,1,,2,S,0,S,17,0.784133,0.013748,0.010781
7,7,9,1,0,0,1,,8,L,0,S,12,0.765485,0.010411,0.007969
7,8,7,4,0,0,1,,3,S,0,S,17,0.766271,0.03053,0.023394
7,9,4,1,0,0,1,,3,S,0,S,15,0.756935,0.032082,0.024284
7,10,6,4,0,0,1,,2,S,0,S,23,0.790396,0.019349,0.015293
7,11,9,6,0,0,1,,3,S,0,S,16,0.78239,0.014668,0.011476
7,12,3,9,0,0,1,,6,S,0,S,15,0.023741,0.768195,0.018238
7,13,4,2,0,0,1,,2,S,0,S,25,0.781207,0.023282,0.018188
7,14,8,5,0,0,1,,3,S,0,S,15,0.773387,0.019077,0.014754
7,15,2,1,0,0,1,,1,S,0,S,16,0.784118,0.014775,0.011586
7,16,2,8,0,0,1,,6,S,0,S,14,0.032519,0.753733,0.024511
7,17,7,6,0,0,0,,1,S,0,S,26,0.036756,0.762879,0.02804
7,18,3,5,0,0,1,,2,S,0,S,26,0.049913,0.750708,0.03747
7,19,2,6,0,0,1,,4,S,0,S,15,0.001381,0.7968,0.001101
7,20,3,1,0,0,1,,2,S,0,S,14,0.762938,0.025742,0.019639
7,21,6,3,0,0,1,,3,S,0,S,16,0.767352,0.0283,0.021716
7,22,8,4,0,0,1,,4,S,0,S,15,0.765293,0.027921,0.021368
7,23,1,6,0,0,1,,5,S,0,S,13,0.021807,0.756234,0.016491
7,24,7,1,0,0,1,,6,S,0,S,13,0.764517,0.016501,0.012615
7,25,2,4,0,0,1,,2,S,0,S,16,0.039377,0.754733,0.029719
7,26,1,4,0,0,1,,3,S,0,S,14,0.026396,0.759548,0.020049
7,27,7,3,0,0,1,,4,S,0,S,15,0.784602,0.009653,0.007574
7,28,3,2,0,0,1,,1,S,0,S,18,0.78712,0.016909,0.013309
7,29,5,3,0,0,1,,2,S,0,S,15,0.78483,0.010424,0.008181
7,30,8,6,0,0,1,,2,S,0,S,18,0.764517,0.03307,0.025282
7,31,9,7,0,0,1,,2,S,0,S,19,0.78665,0.017128,0.013474
7,32,6,9,0,0,1,,3,S,0,S,16,0.019747,0.775835,0.015321
7,33,8,2,0,0,1,,6,S,0,S,14,0.780162,0.010582,0.008255
7,34,5,1,0,0,1,,4,S,0,S,13,0.765223,0.016836,0.012883
7,35,1,8,0,0,1,,7,L,0,S,13,0.018574,0.762563,0.014164
7,36,7,9,0,0,1,,2,S,0,S,19,0.015341,0.78435,0.012033
7,37,5,8,0,0,1,,3,S,0,S,23,0.032965,0.770732,0.025407
7,38,1,7,0,0,1,,6,S,0,S,13,0,0.792845,0
7,39,9,5,0,0,1,,4,S,0,S,14,0.773352,0.014857,0.01149
7,40,3,7,0,0,1,,4,S,0,S,15,0.002699,0.797782,0.002154
7,41,3,4,0,0,1,,1,S,0,S,22,0.019483,0.791006,0.015411
7,42,6,5,0,0,1,,1,S,0,S,21,0.793828,0.01279,0.010153
7,43,1,9,0,0,1,,8,L,0,S,13,0.005012,0.777265,0.003895
7,44,5,4,0,0,1,,1,S,0,S,17,0.764328,0.033103,0.025302
7,45,8,7,0,0,0,,1,S,0,S,23,0.028693,0.776058,0.022268
7,46,4,8,0,0,1,,4,S,0,S,15,0.011657,0.784534,0.009145
7,47,5,6,0,0,1,,1,S,0,S,25,0.025991,0.777587,0.020211
7,48,6,7,0,0,1,,1,S,0,S,15,0.029114,0.762758,0.022207
7,49,9,3,0,0,1,,6,S,0,S,13,0.768782,0.014364,0.011043
7,50,8,9,0,0,0,,1,S,0,S,24,0.782857,0.021134,0.016545
7,51,1,5,0,0,1,,4,S,0,S,15,0.001845,0.792998,0.001463
7,52,4,5,0,0,1,,1,S,0,S,18,0.028273,0.769067,0.021744
7,53,3,8,0,0,1,,5,S,0,S,16,0.023284,0.77625,0.018074
7,54,8,3,0,0,1,,5,S,0,S,14,0.786779,0.006009,0.004728
7,55,5,7,0,0,1,,2,S,0,S,17,0.028076,0.76889,0.021587
7,56,6,1,0,0,1,,5,S,0,S,14,0.785265,0.007715,0.006058
7,57,4,9,0,0,1,,5,S,0,S,14,0.023508,0.760711,0.017883
7,58,8,1,0,0,1,,7,L,0,S,13,0.797884,0,0
7,59,5,9,0,0,1,,4,S,0,S,19,0.00792,0.795016,0.006296
7,60,7,2,0,0,1,,5,S,0,S,15,0.775629,0.016059,0.012456
7,61,5,2,0,0,1,,3,S,0,S,15,0.775772,0.01691,0.013118
7,62,4,7,0,0,1,,3,S,0,S,14,0.007788,0.783783,0.006104
7,63,6,2,0,0,1,,4,S,0,S,16,0.753215,0.038752,0.029189
7,64,1,2,0,0,1,,1,S,0,S,16,0.023372,0.769398,0.017983
7,65,2,3,0,0,1,,1,S,0,S,27,0.032835,0.771862,0.025344
7,66,9,2,0,0,1,,7,L,0,S,13,0.7634,0.01793,0.013688
7,67,2,5,0,0,1,,3,S,0,S,17,0.0259,0.771323,0.019977
7,68,7,8,0,0,1,,1,S,0,S,24,0.024639,0.780067,0.01922
7,69,3,6,0,0,1,,3,S,0,S,16,0.031204,0.763911,0.023837
7,70,1,3,0,0,1,,2,S,0,S,16,0.031757,0.759366,0.024115
7,71,9,4,0,0,1,,5,S,0,S,14,0.768995,0.020624,0.01586
7,72,4,3,0,0,1,,1,S,0,S,22,0.75292,0.045616,0.034345
8,1,4,2,0,0,1,,2,S,0,S,15,0.750384,0.038136,0.028617
8,2,5,1,0,0,1,,4,S,0,S,15,0.773525,0.018312,0.014165
8,3,9,2,0,0,1,,7,L,0,S,13,0.764189,0.018171,0.013886
8,4,1,7,0,0,1,,6,S,0,S,13,0.010626,0.773712,0.008221
8,5,8,6,0,0,1,,2,S,0,S,18,0.789192,0.015408,0.01216
8,6,8,1,0,0,1,,7,L,0,S,13,0.783278,0.003609,0.002827
8,7,3,8,0,0,1,,5,S,0,S,16,0.007988,0.792967,0.006334
8,8,4,5,0,0,1,,1,S,0,S,38,0.017268,0.793152,0.013696
8,9,9,8,0,0,1,,1,S,0,S,16,0.78283,0.015373,0.012035
8,10,4,7,0,0,1,,3,S,0,S,15,0.034704,0.756054,0.026238
8,11,1,5,0,0,1,,4,S,0,S,15,0.007055,0.789599,0.00557
8,12,3,7,0,0,1,,4,S,0,S,14,0.009421,0.783974,0.007386
8,13,8,4,0,0,1,,4,S,0,S,14,0.760848,0.026734,0.020341
8,14,7,8,0,0,1,,1,S,0,S,34,0.043556,0.759275,0.033071
8,15,7,5,0,0,1,,2,S,0,S,20,0.786626,0.020148,0.015849
8,16,6,9,0,0,1,,3,S,0,S,18,0.014465,0.787817,0.011396
8,17,1,9,0,0,1,,8,L,0,S,14,0.003959,0.788142,0.00312
8,18,1,6,0,0,1,,5,S,0,S,14,0.002201,0.791745,0.001743
8,19,1,2,0,0,1,,1,S,0,S,20,0.010379,0.794587,0.008247
8,20,5,7,0,0,1,,2,S,0,S,15,0.010744,0.784289,0.008427
8,21,9,5,0,0,1,,4,S,0,S,15,0.77625,0.018751,0.014556
8,22,5,2,0,0,1,,3,S,0,S,16,0.750617,0.038809,0.029131
8,23,6,5,0,0,1,,1,S,0,S,34,0.769345,0.034713,0.026707
8,24,8,2,0,0,1,,6,S,0,S,13,0.752716,0.026561,0.019993
8,25,5,4,0,0,1,,1,S,0,S,21,0.789122,0.016488,0.013011
8,26,3,4,0,0,1,,1,S,0,S,20,0.038354,0.76408,0.029306
8,27,4,1,0,0,1,,3,S,0,S,14,0.755921,0.030045,0.022711
8,28,2,8,0,0,1,,6,S,0,S,14,0.033022,0.751977,0.024832
8,29,5,6,0,0,1,,1,S,0,S,16,0.03406,0.758776,0.025844
8,30,7,6,0,0,0,,1,S,0,S,20,0.018898,0.788821,0.014907
8,31,2,5,0,0,1,,3,S,0,S,15,0.021151,0.773835,0.016367
8,32,3,6,0,0,1,,3,S,0,S,15,0.013318,0.784525,0.010448
8,33,9,6,0,0,1,,3,S,0,S,17,0.783009,0.019003,0.014879
8,34,2,3,0,0,1,,1,S,0,S,16,0.027016,0.769469,0.020788
8,35,6,4,0,0,1,,2,S,0,S,18,0.775524,0.025197,0.01954
8,36,2,1,0,0,1,,1,S,0,S,19,0.758388,0.040526,0.030734
8,37,3,1,0,0,1,,2,S,0,S,16,0.75836,0.035318,0.026784
8,38,4,3,0,0,1,,1,S,0,S,19,0.7719,0.030119,0.023249
8,39,7,2,0,0,1,,5,S,0,S,15,0.787723,0.009436,0.007433
8,40,4,9,0,0,1,,5,S,0,S,18,0.01074,0.794463,0.008533
8,41,6,1,0,0,1,,5,S,0,S,14,0.75312,0.030766,0.023171
8,42,2,6,0,0,1,,4,S,0,S,14,0.011595,0.781781,0.009065
8,43,3,2,0,0,1,,1,S,0,S,19,0.76554,0.034761,0.026611
8,44,4,6,0,0,1,,2,S,0,S,17,0.042177,0.754138,0.031808
8,45,8,5,0,0,1,,3,S,0,S,15,0.754429,0.035388,0.026698
8,46,1,3,0,0,1,,2,S,0,S,16,0.007031,0.792516,0.005572
8,47,7,1,0,0,1,,6,S,0,S,14,0.782652,0.009783,0.007656
8,48,3,9,0,0,1,,6,S,0,S,15,0.015764,0.779999,0.012296
8,49,8,3,0,0,1,,5,S,0,S,15,0.796642,0.002097,0.001671
8,50,5,9,0,0,1,,4,S,0,S,16,0.037661,0.752644,0.028345
8,51,9,7,0,0,1,,2,S,0,S,22,0.784795,0.021958,0.017232
8,52,4,8,0,0,1,,4,S,0,S,20,0.020175,0.784677,0.015831
8,53,6,3,0,0,1,,3,S,0,S,19,0.769438,0.030442,0.023423
8,54,2,9,0,0,1,,7,L,0,S,14,0.013449,0.778036,0.010464
8,55,6,8,0,0,1,,2,S,0,S,20,0.025973,0.775354,0.020139
8,56,7,4,0,0,1,,3,S,0,S,16,0.753548,0.040388,0.030434
8,57,2,4,0,0,1,,2,S,0,S,17,0.010714,0.793874,0.008506
8,58,5,3,0,0,1,,2,S,0,S,24,0.776287,0.027083,0.021024
8,59,8,9,0,0,0,,1,S,0,S,18,0.789841,0.013702,0.010823
8,60,2,7,0,0,1,,5,S,0,S,13,0.017804,0.766398,0.013645
8,61,1,8,0,0,1,,7,L,0,S,14,0.021545,0.764638,0.016474
8,62,6,2,0,0,1,,4,S,0,S,16,0.797231,0.003012,0.002401
8,63,9,4,0,0,1,,5,S,0,S,14,0.776195,0.015218,0.011812
8,64,6,7,0,0,1,,1,S,0,S,15,0.036931,0.751245,0.027744
8,65,7,3,0,0,1,,4,S,0,S,17,0.770321,0.028728,0.02213
8,66,9,3,0,0,1,,6,S,0,S,14,0.761953,0.025461,0.0194
8,67,9,1,0,0,1,,8,L,0,S,13,0.792581,0,0
8,68,8,7,0,0,1,,1,S,0,S,41,0.779133,0.027689,0.021574
8,69,5,8,0,0,1,,3,S,0,S,18,0.014898,0.785862,0.011708
8,70,1,4,0,0,1,,3,S,0,S,16,0.023153,0.772921,0.017895
8,71,3,5,0,0,1,,2,S,0,S,17,0.01074,0.793577,0.008523
8,72,7,9,0,0,1,,2,S,0,S,20,0.027814,0.776145,0.021587
9,1,4,7,0,0,1,,3,S,0,S,18,0.023155,0.776491,0.01798
9,2,2,3,0,0,1,,1,S,0,S,20,0.028015,0.773935,0.021681
9,3,9,8,0,0,1,,1,S,0,S,34,0.786037,0.02026,0.015925
9,4,7,4,0,0,1,,3,S,0,S,18,0.751439,0.045011,0.033823
9,5,5,4,0,0,1,,1,S,0,S,25,0.785418,0.020105,0.015791
9,6,2,1,0,0,1,,1,S,0,S,18,0.770453,0.024348,0.018759
9,7,9,5,0,0,1,,4,S,0,S,16,0.754715,0.036624,0.02764
9,8,4,1,0,0,1,,3,S,0,S,16,0.792724,0.006858,0.005437
9,9,8,5,0,0,1,,3,S,0,S,17,0.797133,0.00361,0.002878
9,10,1,7,0,0,1,,6,S,0,S,15,0.031624,0.754587,0.023863
9,11,5,8,0,0,1,,3,S,0,S,17,0.018679,0.778746,0.014546
9,12,7,2,0,0,1,,5,S,0,S,16,0.795626,0.006118,0.004867
9,13,9,6,0,0,1,,3,S,0,S,19,0.781578,0.021576,0.016864
9,14,5,7,0,0,1,,2,S,0,S,20,0.009105,0.794531,0.007234
9,15,3,5,0,0,1,,2,S,0,S,18,0.013794,0.787149,0.010858
9,16,8,3,0,0,1,,5,S,0,S,15,0.761163,0.030264,0.023036
9,17,3,9,0,0,1,,6,S,0,S,14,0,0.800555,0
9,18,2,7,0,0,1,,5,S,0,S,16,0.013147,0.779998,0.010254
9,19,8,1,0,0,1,,7,L,0,S,14,0.78304,0.005919,0.004635
9,20,5,9,0,0,1,,4,S,0,S,15,0.003994,0.794032,0.003171
9,21,6,1,0,0,1,,5,S,0,S,15,0.787852,0.006457,0.005087
9,22,6,7,0,0,1,,1,S,0,S,23,0.021979,0.780335,0.017151
9,23,9,4,0,0,1,,5,S,0,S,16,0.752258,0.039423,0.029656
9,24,2,8,0,0,1,,6,S,0,S,15,0.009211,0.782345,0.007206
9,25,7,5,0,0,1,,2,S,0,S,18,0.757766,0.039099,0.029628
9,26,4,8,0,0,1,,4,S,0,S,16,0.024861,0.770229,0.019148
9,27,1,2,0,0,1,,1,S,0,S,22,0.037679,0.761646,0.028698
9,28,6,8,0,0,1,,2,S,0,S,18,0.024047,0.774002,0.018613
9,29,3,1,0,0,1,,2,S,0,S,18,0.789328,0.0115,0.009077
9,30,1,4,0,0,1,,3,S,0,S,17,0.010018,0.790657,0.007921
9,31,8,9,0,0,1,,1,S,0,S,17,0.017907,0.781608,0.013996
9,32,9,7,0,0,1,,2,S,0,S,19,0.779737,0.021253,0.016571
9,33,3,6,0,0,1,,3,S,0,S,16,0.012958,0.784826,0.01017
9,34,1,6,0,0,1,,5,S,0,S,15,0.028896,0.760258,0.021969
9,35,2,9,0,0,1,,7,L,0,S,14,0,0.799554,0
9,36,8,4,0,0,1,,4,S,0,S,17,0.794918,0.006232,0.004954
9,37,9,1,0,0,1,,8,L,0,S,14,0.787321,0.004291,0.003378
9,38,6,9,0,0,1,,3,S,0,S,15,0.022266,0.770601,0.017158
9,39,6,3,0,0,1,,3,S,0,S,17,0.768437,0.030603,0.023516
9,40,3,2,0,0,1,,1,S,0,S,27,0.756806,0.043094,0.032614
9,41,6,5,0,0,1,,1,S,0,S,20,0.781756,0.020144,0.015747
9,42,4,5,0,0,1,,1,S,0,S,24,0.032234,0.771108,0.024856
9,43,1,5,0,0,1,,4,S,0,S,17,0.015226,0.782942,0.011921
9,44,4,2,0,0,1,,2,S,0,S,18,0.77965,0.022117,0.017244
9,45,2,4,0,0,1,,2,S,0,S,17,0.036849,0.754351,0.027797
9,46,3,4,0,0,1,,1,S,0,S,18,0.007125,0.796667,0.005676
9,47,4,3,0,0,1,,1,S,0,S,20,0.767471,0.037047,0.028433
9,48,1,3,0,0,1,,2,S,0,S,19,0.010436,0.796951,0.008317
9,49,8,2,0,0,1,,6,S,0,S,15,0.78667,0.007791,0.006129
9,50,7,6,0,0,1,,1,S,0,S,32,0.756713,0.046055,0.034851
9,51,9,3,0,0,1,,6,S,0,S,15,0.766185,0.028164,0.021579
9,52,7,3,0,0,1,,4,S,0,S,16,0.757304,0.039041,0.029566
9,53,5,2,0,0,1,,3,S,0,S,17,0.774815,0.022634,0.017537
9,54,8,7,0,0,1,,1,S,0,S,19,0.771869,0.025496,0.01968
9,55,5,1,0,0,1,,4,S,0,S,15,0.763885,0.024947,0.019056
9,56,5,3,0,0,1,,2,S,0,S,18,0.754841,0.043002,0.03246
9,57,3,8,0,0,1,,5,S,0,S,15,0.011042,0.782368,0.008639
9,58,5,6,0,0,1,,1,S,0,S,19,0.038061,0.759266,0.028898
9,59,2,6,0,0,1,,4,S,0,S,16,0.010019,0.786124,0.007876
9,60,7,8,0,0,1,,1,S,0,S,19,0.026401,0.775179,0.020466
9,61,6,2,0,0,1,,4,S,0,S,16,0.766898,0.026723,0.020494
9,62,1,8,0,0,1,,7,L,0,S,15,0,0.800557,0
9,63,7,1,0,0,1,,6,S,0,S,14,0.756186,0.028929,0.021875
9,64,6,4,0,0,1,,2,S,0,S,20,0.771347,0.029377,0.02266
9,65,4,9,0,0,1,,5,S,0,S,14,0.02442,0.764712,0.018675
9,66,1,9,0,0,1,,8,L,0,S,13,0.021675,0.759331,0.016459
9,67,4,6,0,0,1,,2,S,0,S,18,0.018211,0.784932,0.014295
9,68,9,2,0,0,1,,7,L,0,S,15,0.791474,0.00579,0.004583
9,69,3,7,0,0,1,,4,S,0,S,16,0.016109,0.778685,0.012544
9,70,2,5,0,0,1,,3,S,0,S,18,0.007574,0.792427,0.006002
9,71,8,6,0,0,1,,2,S,0,S,19,0.773779,0.025791,0.019956
9,72,7,9,0,0,1,,2,S,0,S,15,0.035719,0.755707,0.026993
10,1,5,2,0,0,1,,3,S,0,S,16,0.763097,0.033415,0.025499
10,2,7,4,0,0,1,,3,S,0,S,18,0.79434,0.01169,0.009286
10,3,8,1,0,0,1,,7,L,0,S,13,0.751866,0.026059,0.019593
10,4,1,3,0,0,1,,2,S,0,S,16,0.019643,0.775897,0.015241
10,5,3,7,0,0,1,,4,S,0,S,16,0.004891,0.797189,0.003899
10,6,3,6,0,0,1,,3,S,0,S,17,0.008494,0.797074,0.00677
10,7,2,4,0,0,1,,2,S,0,S,31,0.045239,0.758776,0.034326
10,8,1,9,0,0,1,,8,L,0,S,12,0.013663,0.762184,0.010413
10,9,5,1,0,0,1,,4,S,0,S,15,0.767423,0.025322,0.019432
10,10,9,4,0,0,1,,5,S,0,S,14,0.752199,0.034604,0.026029
10,11,4,7,0,0,1,,3,S,0,S,18,0.012688,0.789795,0.010021
10,12,2,5,0,0,1,,3,S,0,S,18,0.017115,0.787778,0.013483
10,13,8,7,0,0,1,,1,S,0,S,17,0.768241,0.028088,0.021579
10,14,2,7,0,0,1,,5,S,0,S,16,0.040173,0.751216,0.030179
10,15,6,3,0,0,1,,3,S,0,S,18,0.77891,0.018756,0.014609
10,16,6,5,0,0,1,,1,S,0,S,21,0.766021,0.034443,0.026384
10,17,3,5,0,0,1,,2,S,0,S,16,0.039426,0.75546,0.029785
10,18,1,5,0,0,1,,4,S,0,S,15,0.014979,0.781338,0.011704
10,19,9,2,0,0,1,,7,L,0,S,14,0.786588,0.007494,0.005895
10,20,8,3,0,0,1,,5,S,0,S,15,0.772008,0.019402,0.014978
10,21,8,4,0,0,1,,4,S,0,S,15,0.796371,0.002816,0.002242
10,22,5,3,0,0,1,,2,S,0,S,20,0.77405,0.029061,0.022495
10,23,4,1,0,0,1,,3,S,0,S,16,0.781697,0.014758,0.011536
10,24,7,3,0,0,1,,4,S,0,S,19,0.778085,0.023228,0.018073
10,25,6,1,0,0,1,,5,S,0,S,15,0.789957,0.00399,0.003152
10,26,7,5,0,0,1,,2,S,0,S,27,0.774593,0.032105,0.024868
10,27,5,4,0,0,1,,1,S,0,S,18,0.762298,0.038829,0.0296
10,28,6,9,0,0,1,,3,S,0,S,14,0.012699,0.776135,0.009857
10,29,3,8,0,0,1,,5,S,0,S,15,0.00749,0.790575,0.005921
10,30,4,3,0,0,1,,1,S,0,S,25,0.761723,0.038371,0.029228
10,31,7,1,0,0,1,,6,S,0,S,15,0.777871,0.015703,0.012215
10,32,3,1,0,0,1,,2,S,0,S,18,0.77505,0.025462,0.019734
10,33,9,6,0,0,1,,3,S,0,S,16,0.792834,0.009526,0.007553
10,34,7,8,0,0,1,,1,S,0,S,18,0.008469,0.796358,0.006744
10,35,5,6,0,0,1,,1,S,0,S,26,0.019766,0.791443,0.015643
10,36,9,5,0,0,1,,4,S,0,S,16,0.788811,0.013031,0.010279
10,37,3,9,0,0,1,,6,S,0,S,13,0,0.794998,0
10,38,8,6,0,0,1,,2,S,0,S,16,0.782925,0.015833,0.012396
10,39,5,8,0,0,1,,3,S,0,S,17,0.019636,0.782315,0.015362
10,40,9,1,0,0,1,,8,L,0,S,13,0.75757,0.023105,0.017504
10,41,7,9,0,0,1,,2,S,0,S,14,0.000712,0.794614,0.000566
10,42,6,8,0,0,1,,2,S,0,S,19,0.018666,0.781734,0.014592
10,43,1,8,0,0,1,,7,L,0,S,14,0.006745,0.785303,0.005297
10,44,9,7,0,0,1,,2,S,0,S,17,0.781499,0.019213,0.015015
10,45,8,5,0,0,1,,3,S,0,S,16,0.77866,0.019515,0.015196
10,46,5,9,0,0,1,,4,S,0,S,13,0.02909,0.752738,0.021897
10,47,1,4,0,0,1,,3,S,0,S,16,0.039773,0.753348,0.029963
10,48,2,9,0,0,1,,7,L,0,S,13,0.007871,0.779118,0.006133
10,49,3,2,0,0,1,,1,S,0,S,23,0.7897,0.019374,0.015299
10,50,2,6,0,0,1,,4,S,0,S,18,0.025361,0.776973,0.019705
10,51,8,2,0,0,1,,6,S,0,S,14,0.780218,0.011033,0.008608
10,52,5,7,0,0,1,,2,S,0,S,19,0.029994,0.772697,0.023176
10,53,6,2,0,0,1,,4,S,0,S,16,0.797677,0.002257,0.0018
10,54,1,2,0,0,1,,1,S,0,S,19,0.016187,0.788863,0.012769
10,55,7,6,0,0,1,,1,S,0,S,25,0.784517,0.023443,0.018391
10,56,2,1,0,0,1,,1,S,0,S,17,0.790478,0.01088,0.008601
10,57,6,7,0,0,1,,1,S,0,S,25,0.021971,0.780854,0.017156
10,58,4,5,0,0,1,,1,S,0,S,20,0.02075,0.784655,0.016282
10,59,9,3,0,0,1,,6,S,0,S,15,0.78027,0.014455,0.011279
10,60,4,9,0,0,1,,5,S,0,S,13,0.019647,0.762486,0.014981
10,61,9,8,0,0,1,,1,S,0,S,19,0.774835,0.027586,0.021374
10,62,4,2,0,0,1,,2,S,0,S,17,0.759975,0.035724,0.02715
10,63,1,7,0,0,1,,6,S,0,S,14,0.029802,0.754989,0.0225
10,64,8,9,0,0,1,,1,S,0,S,15,0.037041,0.751544,0.027838
10,65,6,4,0,0,1,,2,S,0,S,17,0.780104,0.018836,0.014694
10,66,4,8,0,0,1,,4,S,0,S,16,0.026483,0.767794,0.020333
10,67,2,3,0,0,1,,1,S,0,S,22,0.016512,0.78929,0.013033
10,68,3,4,0,0,1,,1,S,0,S,20,0.026004,0.780369,0.020292
10,69,2,8,0,0,1,,6,S,0,S,15,0.033068,0.756749,0.025024
10,70,7,2,0,0,1,,5,S,0,S,16,0.779434,0.019024,0.014828
10,71,1,6,0,0,1,,5,S,0,S,15,0.018258,0.776716,0.014182
10,72,4,6,0,0,1,,2,S,0,S,20,0.036108,0.764943,0.02762
11,1,1,5,0,0,1,,4,S,0,S,18,0.010816,0.792839,0.008575
11,2,9,2,0,0,1,,7,L,0,S,14,0.781285,0.008123,0.006346
11,3,5,3,0,0,1,,2,S,0,S,22,0.790475,0.016742,0.013234
11,4,5,8,0,0,1,,3,S,0,S,16,0.027669,0.764676,0.021158
11,5,8,4,0,0,1,,4,S,0,S,15,0.760939,0.031277,0.0238
11,6,4,9,0,0,1,,5,S,0,S,13,0.013353,0.771773,0.010306
11,7,9,1,0,0,1,,8,L,0,S,13,0.776583,0.008879,0.006895
11,8,3,1,0,0,1,,2,S,0,S,16,0.757359,0.036198,0.027415
11,9,7,1,0,0,1,,6,S,0,S,13,0.752941,0.02577,0.019404
11,10,7,3,0,0,1,,4,S,0,S,16,0.78166,0.016363,0.01279
11,11,3,9,0,0,1,,6,S,0,S,13,0.008445,0.778206,0.006572
11,12,3,7,0,0,1,,4,S,0,S,14,0.029155,0.757376,0.022081
11,13,3,8,0,0,1,,5,S,0,S,15,0,0.798551,0
11,14,8,5,0,0,1,,3,S,0,S,14,0.761218,0.027644,0.021043
11,15,5,7,0,0,1,,2,S,0,S,16,0.016727,0.780268,0.013051
11,16,1,4,0,0,1,,3,S,0,S,16,0.012642,0.785155,0.009926
11,17,6,9,0,0,1,,3,S,0,S,14,0.021379,0.766456,0.016386
11,18,4,5,0,0,1,,1,S,0,S,38,0.04277,0.761925,0.032587
11,19,5,9,0,0,1,,4,S,0,S,14,0.004986,0.787391,0.003926
11,20,8,1,0,0,1,,7,L,0,S,13,0.776328,0.010217,0.007932
11,21,1,6,0,0,1,,5,S,0,S,16,0.005645,0.792664,0.004475
11,22,8,2,0,0,1,,6,S,0,S,14,0.780415,0.010007,0.007809
11,23,2,7,0,0,1,,5,S,0,S,13,0.016425,0.766996,0.012598
11,24,1,3,0,0,1,,2,S,0,S,16,0.026727,0.768114,0.02053
11,25,4,1,0,0,1,,3,S,0,S,16,0.776748,0.021065,0.016363
11,26,7,2,0,0,1,,5,S,0,S,15,0.799976,0,0
11,27,4,2,0,0,1,,2,S,0,S,20,0.776975,0.024432,0.018983
11,28,2,4,0,0,1,,2,S,0,S,15,0.010519,0.78645,0.008273
11,29,1,7,0,0,1,,6,S,0,S,14,0.000544,0.792192,0.000431
11,30,5,2,0,0,1,,3,S,0,S,17,0.788681,0.00996,0.007855
11,31,4,8,0,0,1,,4,S,0,S,15,0.008653,0.787403,0.006814
11,32,3,2,0,0,1,,1,S,0,S,22,0.795341,0.010818,0.008604
11,33,7,4,0,0,1,,3,S,0,S,16,0.759548,0.032896,0.024986
11,34,6,8,0,0,1,,2,S,0,S,17,0.032743,0.761439,0.024932
11,35,2,9,0,0,1,,7,L,0,S,12,0.012998,0.763128,0.009919
11,36,7,9,0,0,1,,2,S,0,S,15,0.032747,0.755815,0.02475
11,37,8,7,0,0,1,,1,S,0,S,23,0.775802,0.030035,0.023301
11,38,6,3,0,0,1,,3,S,0,S,18,0.751135,0.045,0.033801
11,39,5,6,0,0,1,,1,S,0,S,30,0.015402,0.791125,0.012185
11,40,9,5,0,0,1,,4,S,0,S,14,0.762785,0.02518,0.019207
11,41,5,4,0,0,1,,1,S,0,S,26,0.784376,0.021833,0.017126
11,42,8,6,0,0,1,,2,S,0,S,16,0.797849,0.004185,0.003339
11,43,8,9,0,0,1,,1,S,0,S,16,0.028766,0.767894,0.022089
11,44,3,4,0,0,1,,1,S,0,S,18,0.012443,0.792741,0.009864
11,45,3,5,0,0,1,,2,S,0,S,23,0.033599,0.771824,0.025933
11,46,9,3,0,0,1,,6,S,0,S,15,0.780325,0.015616,0.012185
11,47,6,7,0,0,1,,1,S,0,S,17,0.017832,0.782024,0.013945
11,48,7,5,0,0,1,,2,S,0,S,15,0.776442,0.017441,0.013542
11,49,9,4,0,0,1,,5,S,0,S,15,0.763935,0.02763,0.021108
11,50,8,3,0,0,1,,5,S,0,S,15,0.777896,0.018802,0.014626
11,51,6,4,0,0,1,,2,S,0,S,20,0.792184,0.013779,0.010916
11,52,2,5,0,0,1,,3,S,0,S,16,0.021167,0.777245,0.016452
11,53,5,1,0,0,1,,4,S,0,S,15,0.789531,0.006777,0.00535
11,54,2,8,0,0,1,,6,S,0,S,13,0.020793,0.759797,0.015798
11,55,1,2,0,0,1,,1,S,0,S,20,0.035139,0.760513,0.026723
11,56,1,9,0,0,1,,8,L,0,S,13,0,0.79921,0
11,57,4,3,0,0,0,,1,S,0,S,19,0.039691,0.761123,0.03021
11,58,6,2,0,0,1,,4,S,0,S,16,0.785873,0.010504,0.008255
11,59,1,8,0,0,1,,7,L,0,S,14,0.005752,0.783969,0.00451
11,60,9,8,0,0,1,,1,S,0,S,21,0.78819,0.016342,0.012881
11,61,2,6,0,0,1,,4,S,0,S,15,0.005478,0.791556,0.004336
11,62,2,3,0,0,1,,1,S,0,S,15,0.020516,0.774534,0.01589
11,63,6,1,0,0,1,,5,S,0,S,14,0.764723,0.022529,0.017229
11,64,7,6,0,0,1,,1,S,0,S,17,0.791025,0.009194,0.007272
11,65,7,8,0,0,1,,1,S,0,S,24,0.018067,0.785902,0.014199
11,66,4,6,0,0,1,,2,S,0,S,18,0.022296,0.778924,0.017367
11,67,9,6,0,0,1,,3,S,0,S,15,0.751223,0.036345,0.027303
11,68,9,7,0,0,1,,2,S,0,S,22,0.779781,0.024943,0.01945
11,69,3,6,0,0,1,,3,S,0,S,17,0.035092,0.760545,0.026689
11,70,4,7,0,0,1,,3,S,0,S,15,0.001491,0.798063,0.00119
11,71,2,1,0,0,1,,1,S,0,S,33,0.769355,0.035308,0.027164
11,72,6,5,0,0,1,,1,S,0,S,17,0.791972,0.010913,0.008643
12,1,8,5,0,0,1,,3,S,0,S,18,0.766804,0.034172,0.026203
12,2,3,9,0,0,1,,6,S,0,S,14,0.024524,0.761357,0.018671
12,3,2,4,0,0,1,,2,S,0,S,20,0.03579,0.76779,0.027479
12,4,3,1,0,0,1,,2,S,0,S,17,0.77663,0.023474,0.018231
12,5,9,2,0,0,1,,7,L,0,S,13,0.779459,0.006391,0.004981
12,6,6,1,0,0,1,,5,S,0,S,15,0.798143,0.003855,0.003077
12,7,3,8,0,0,1,,5,S,0,S,14,0.011866,0.77838,0.009236
12,8,4,5,0,0,1,,1,S,0,S,21,0.028576,0.776628,0.022193
12,9,7,8,0,0,1,,1,S,0,S,21,0.024415,0.779821,0.019039
12,10,8,6,0,0,1,,2,S,0,S,19,0.786373,0.018377,0.014451
12,11,6,8,0,0,1,,2,S,0,S,15,0.035084,0.756303,0.026534
12,12,9,5,0,0,1,,4,S,0,S,15,0.779954,0.01578,0.012308
12,13,1,4,0,0,1,,3,S,0,S,16,0.019028,0.780133,0.014844
12,14,1,7,0,0,1,,6,S,0,S,14,0.016304,0.775328,0.012641
12,15,9,6,0,0,1,,3,S,0,S,15,0.768893,0.023031,0.017708
12,16,4,7,0,0,1,,3,S,0,S,18,0.010074,0.795876,0.008017
12,17,7,9,0,0,1,,2,S,0,S,28,0.014147,0.794123,0.011235
12,18,7,3,0,0,1,,4,S,0,S,15,0.777173,0.015192,0.011807
12,19,3,4,0,0,1,,1,S,0,S,22,0.033652,0.768983,0.025878
12,20,8,9,0,0,1,,1,S,0,S,17,0.037972,0.757714,0.028772
12,21,9,1,0,0,1,,8,L,0,S,13,0.780195,0.007203,0.00562
12,22,8,4,0,0,1,,4,S,0,S,16,0.775352,0.022909,0.017763
12,23,1,5,0,0,1,,4,S,0,S,15,0.007334,0.792059,0.005809
12,24,2,6,0,0,1,,4,S,0,S,17,0.007958,0.796782,0.006341
12,25,4,8,0,0,1,,4,S,0,S,15,0.004209,0.794034,0.003342
12,26,6,7,0,0,1,,1,S,0,S,21,0.014506,0.795928,0.011546
12,27,3,5,0,0,1,,2,S,0,S,17,0.03892,0.756533,0.029444
12,28,8,7,0,0,1,,1,S,0,S,23,0.755387,0.046973,0.035483
12,29,5,3,0,0,1,,2,S,0,S,21,0.786753,0.013985,0.011002
12,30,1,9,0,0,1,,8,L,0,S,13,0.013719,0.770639,0.010572
12,31,2,5,0,0,1,,3,S,0,S,17,0.016542,0.787758,0.013031
12,32,2,7,0,0,1,,5,S,0,S,15,0.039269,0.751744,0.02952
12,33,1,3,0,0,1,,2,S,0,S,16,0.005173,0.794599,0.00411
12,34,7,1,0,0,1,,6,S,0,S,13,0.763378,0.020121,0.01536
12,35,4,2,0,0,1,,2,S,0,S,15,0.753541,0.035533,0.026776
12,36,5,4,0,0,1,,1,S,0,S,19,0.774948,0.024639,0.019094
12,37,9,4,0,0,1,,5,S,0,S,14,0.772979,0.01687,0.01304
12,38,3,2,0,0,1,,1,S,0,S,17,0.780862,0.018462,0.014416
12,39,1,2,0,0,1,,1,S,0,S,25,0.015963,0.793051,0.012659
12,40,8,2,0,0,1,,6,S,0,S,14,0.775593,0.015281,0.011852
12,41,7,2,0,0,1,,5,S,0,S,13,0.762852,0.019104,0.014573
12,42,4,6,0,0,1,,2,S,0,S,20,0.033747,0.767332,0.025895
12,43,6,9,0,0,1,,3,S,0,S,16,0.021029,0.777611,0.016353
12,44,1,8,0,0,1,,7,L,0,S,13,0.005236,0.782306,0.004096
12,45,7,5,0,0,1,,2,S,0,S,16,0.793571,0.008132,0.006454
12,46,7,6,0,0,1,,1,S,0,S,16,0.780206,0.017267,0.013472
12,47,6,2,0,0,1,,4,S,0,S,15,0.798617,0.001974,0.001576
12,48,9,8,0,0,1,,1,S,0,S,25,0.764507,0.037857,0.028942
12,49,1,6,0,0,1,,5,S,0,S,15,0.003398,0.795426,0.002703
12,50,3,7,0,0,1,,4,S,0,S,16,0.017545,0.780618,0.013696
12,51,9,7,0,0,1,,2,S,0,S,16,0.779265,0.018953,0.01477
12,52,6,3,0,0,1,,3,S,0,S,18,0.75756,0.039152,0.02966
12,53,2,1,0,0,1,,1,S,0,S,17,0.757462,0.04088,0.030965
12,54,2,3,0,0,1,,1,S,0,S,19,0.021556,0.781034,0.016836
12,55,5,1,0,0,1,,4,S,0,S,15,0.763985,0.026294,0.020088
12,56,2,9,0,0,1,,7,L,0,S,14,0.015687,0.775516,0.012165
12,57,6,5,0,0,1,,1,S,0,S,22,0.770548,0.03574,0.027539
12,58,5,2,0,0,1,,3,S,0,S,15,0.765007,0.023919,0.018299
12,59,5,6,0,0,1,,1,S,0,S,23,0.027999,0.772579,0.021632
12,60,5,8,0,0,1,,3,S,0,S,15,0.019116,0.771394,0.014746
12,61,4,1,0,0,1,,3,S,0,S,15,0.75184,0.038464,0.028919
12,62,5,7,0,0,1,,2,S,0,S,19,0.014241,0.78843,0.011228
12,63,7,4,0,0,1,,3,S,0,S,15,0.798377,0.001077,0.00086
12,64,5,9,0,0,1,,4,S,0,S,16,0.00218,0.796118,0.001736
12,65,3,6,0,0,1,,3,S,0,S,17,0.028486,0.767964,0.021876
12,66,6,4,0,0,1,,2,S,0,S,17,0.75957,0.038521,0.029259
12,67,8,1,0,0,1,,7,L,0,S,14,0.775588,0.016768,0.013005
12,68,4,3,0,0,1,,1,S,0,S,23,0.759406,0.039786,0.030214
12,69,4,9,0,0,1,,5,S,0,S,15,0.020692,0.772345,0.015981
12,70,2,8,0,0,1,,6,S,0,S,14,0.003861,0.791337,0.003055
12,71,9,3,0,0,1,,6,S,0,S,14,0.754424,0.028724,0.02167
12,72,8,3,0,0,1,,5,S,0,S,17,0.790892,0.010268,0.008121
13,1,9,8,0,0,1,,1,S,0,S,37,0.772191,0.034958,0.026994
13,2,4,5,0,0,1,,1,S,0,S,28,0.050559,0.751618,0.038001
13,3,7,2,0,0,1,,5,S,0,S,15,0.774958,0.018958,0.014692
13,4,7,8,0,0,1,,1,S,0,S,17,0.036095,0.758983,0.027396
13,5,2,8,0,0,1,,6,S,0,S,14,0.021711,0.770205,0.016722
13,6,2,6,0,0,1,,4,S,0,S,16,0.040299,0.755176,0.030433
13,7,6,4,0,0,1,,2,S,0,S,15,0.771384,0.018822,0.014519
13,8,8,2,0,0,1,,6,S,0,S,15,0.782819,0.014419,0.011288
13,9,7,3,0,0,1,,4,S,0,S,15,0.751293,0.036707,0.027578
13,10,7,6,0,0,1,,1,S,0,S,20,0.761017,0.038169,0.029047
13,11,7,4,0,0,1,,3,S,0,S,16,0.750517,0.03885,0.029157
13,12,6,7,0,0,1,,1,S,0,S,22,0.033105,0.766443,0.025373
13,13,8,3,0,0,1,,5,S,0,S,15,0.760019,0.031592,0.02401
13,14,9,4,0,0,1,,5,S,0,S,15,0.794615,0.00397,0.003155
13,15,5,4,0,0,1,,1,S,0,S,26,0.782103,0.023644,0.018492
13,16,5,8,0,0,1,,3,S,0,S,15,0.007986,0.790157,0.00631
13,17,5,2,0,0,1,,3,S,0,S,18,0.781336,0.02206,0.017236
13,18,3,5,0,0,1,,2,S,0,S,16,0.004531,0.795349,0.003603
13,19,2,1,0,0,1,,1,S,0,S,18,0.768326,0.036029,0.027682
13,20,9,2,0,0,1,,7,L,0,S,14,0.789657,0.00596,0.004706
13,21,8,6,0,0,1,,2,S,0,S,20,0.785888,0.02016,0.015844
13,22,6,9,0,0,1,,3,S,0,S,19,0.031127,0.767279,0.023883
13,23,6,1,0,0,1,,5,S,0,S,14,0.789539,0.004134,0.003264
13,24,9,1,0,0,1,,8,L,0,S,13,0.752705,0.030216,0.022743
13,25,3,2,0,0,1,,1,S,0,S,19,0.756072,0.041829,0.031626
13,26,3,1,0,0,1,,2,S,0,S,18,0.78472,0.019137,0.015017
13,27,5,1,0,0,1,,4,S,0,S,17,0.786674,0.017394,0.013684
13,28,8,5,0,0,0,,3,S,0,S,23,0.043549,0.757822,0.033002
13,29,6,8,0,0,1,,2,S,0,S,23,0.016488,0.789027,0.013009
13,30,1,4,0,0,1,,3,S,0,S,17,0.015686,0.781871,0.012265
13,31,4,2,0,0,1,,2,S,0,S,15,0.794165,0.006469,0.005137
13,32,5,7,0,0,1,,2,S,0,S,15,0.006805,0.790509,0.00538
13,33,9,5,0,0,1,,4,S,0,S,18,0.773987,0.027568,0.021337
13,34,2,3,0,0,0,,1,S,0,S,24,0.768782,0.0381,0.02929
13,35,4,6,0,0,0,,2,S,0,S,19,0.780954,0.024231,0.018924
13,36,2,9,0,0,1,,7,L,0,S,14,0.006208,0.789953,0.004904
13,37,6,2,0,0,1,,4,S,0,S,14,0.771211,0.017128,0.01321
13,38,3,4,0,0,1,,1,S,0,S,23,0.025025,0.777585,0.019459
13,39,4,8,0,0,1,,4,S,0,S,18,0.020707,0.784074,0.016236
13,40,7,9,0,0,1,,2,S,0,S,16,0.032657,0.760182,0.024825
13,41,1,3,0,0,1,,2,S,0,S,18,0.037649,0.7579,0.028534
13,42,4,9,0,0,1,,5,S,0,S,17,0.010448,0.794566,0.008302
13,43,6,3,0,0,1,,3,S,0,S,14,0.754222,0.02957,0.022302
13,44,8,1,0,0,1,,7,L,0,S,14,0.754583,0.033493,0.025273
13,45,1,7,0,0,1,,6,S,0,S,13,0.026981,0.750176,0.02024
13,46,8,9,0,0,1,,1,S,0,S,16,0.035432,0.758792,0.026885
13,47,7,1,0,0,1,,6,S,0,S,15,0.799102,0.001264,0.00101
13,48,9,6,0,0,1,,3,S,0,S,16,0.771052,0.026577,0.020493
13,49,5,6,0,0,1,,1,S,0,S,18,0.021276,0.781424,0.016625
13,50,9,3,0,0,1,,6,S,0,S,14,0.774273,0.017308,0.013401
13,51,4,1,0,0,1,,3,S,0,S,14,0.764804,0.026531,0.020291
13,52,1,8,0,0,1,,7,L,0,S,13,0.027653,0.750422,0.020751
13,53,3,9,0,0,1,,6,S,0,S,14,0.01443,0.775022,0.011184
13,54,8,4,0,0,1,,4,S,0,S,16,0.76132,0.032145,0.024473
13,55,8,7,0,0,0,,1,S,0,S,17,0.036679,0.759166,0.027845
13,56,2,4,0,0,1,,2,S,0,S,21,0.022599,0.784559,0.01773
13,57,1,9,0,0,1,,8,L,0,S,13,0.015877,0.765767,0.012158
13,58,2,7,0,0,1,,5,S,0,S,14,0.020706,0.770357,0.015951
13,59,3,6,0,0,1,,3,S,0,S,17,0.022803,0.775562,0.017685
13,60,4,3,0,0,1,,1,S,0,S,15,0.773005,0.02245,0.017354
13,61,5,9,0,0,1,,4,S,0,S,14,0.025586,0.762186,0.019501
13,62,2,5,0,0,1,,3,S,0,S,15,0.02758,0.766763,0.021147
13,63,4,7,0,0,1,,3,S,0,S,18,0.016331,0.788301,0.012874
13,64,5,3,0,0,1,,2,S,0,S,19,0.763227,0.037078,0.028299
13,65,3,7,0,0,1,,4,S,0,S,14,0.029868,0.753981,0.02252
13,66,7,5,0,0,0,,2,S,0,S,23,0.013354,0.793184,0.010592
13,67,9,7,0,0,0,,2,S,0,S,29,0.01683,0.793044,0.013347
13,68,1,5,0,0,1,,4,S,0,S,14,0.021988,0.763558,0.016789
13,69,6,5,0,0,1,,1,S,0,S,19,0.758711,0.03728,0.028285
13,70,1,6,0,0,1,,5,S,0,S,15,0.016896,0.775783,0.013108
13,71,3,8,0,0,1,,5,S,0,S,14,0.030939,0.75377,0.023321
13,72,1,2,0,0,1,,1,S,0,S,20,0.021187,0.782195,0.016572
14,1,2,6,0,0,1,,4,S,0,S,15,0.019645,0.776234,0.015249
14,2,3,9,0,0,1,,6,S,0,S,16,0.010053,0.795334,0.007995
14,3,7,8,0,0,1,,1,S,0,S,16,0.040194,0.750304,0.030158
14,4,8,2,0,0,1,,6,S,0,S,16,0.76277,0.032495,0.024786
14,5,8,7,0,0,1,,1,S,0,S,25,0.78034,0.028167,0.02198
14,6,5,8,0,0,1,,3,S,0,S,16,0.02036,0.775608,0.015791
14,7,3,2,0,0,1,,1,S,0,S,24,0.772611,0.034531,0.026679
14,8,3,1,0,0,1,,2,S,0,S,17,0.788738,0.016607,0.013098
14,9,5,4,0,0,1,,1,S,0,S,17,0.792792,0.01145,0.009078
14,10,9,3,0,0,1,,6,S,0,S,14,0.779513,0.012592,0.009816
14,11,3,4,0,0,1,,1,S,0,S,25,0.036663,0.773202,0.028348
14,12,5,2,0,0,1,,3,S,0,S,16,0.764105,0.02973,0.022717
14,13,1,5,0,0,1,,4,S,0,S,15,0.010457,0.784948,0.008208
14,14,5,1,0,0,1,,4,S,0,S,15,0.799176,0.000323,0.000258
14,15,9,7,0,0,1,,2,S,0,S,16,0.75279,0.039826,0.029981
14,16,1,6,0,0,1,,5,S,0,S,14,0.030665,0.754886,0.023148
14,17,6,7,0,0,1,,1,S,0,S,27,0.03734,0.768326,0.028689
14,18,5,9,0,0,1,,4,S,0,S,21,0.038397,0.76421,0.029343
14,19,7,9,0,0,1,,2,S,0,S,26,0.035481,0.770061,0.027323
14,20,9,8,0,0,0,,1,S,0,S,20,0.044023,0.753346,0.033164
14,21,9,2,0,0,1,,7,L,0,S,14,0.754584,0.030329,0.022885
14,22,2,3,0,0,1,,1,S,0,S,22,0.047412,0.7536,0.035729
14,23,7,5,0,0,1,,2,S,0,S,19,0.750096,0.047377,0.035537
14,24,9,1,0,0,1,,8,L,0,S,13,0.753696,0.026615,0.02006
14,25,7,2,0,0,1,,5,S,0,S,16,0.787789,0.011289,0.008893
14,26,2,7,0,0,1,,5,S,0,S,15,0.031563,0.759738,0.02398
14,27,1,3,0,0,1,,2,S,0,S,18,0.042083,0.753529,0.031711
14,28,7,1,0,0,1,,6,S,0,S,14,0.76209,0.025373,0.019337
14,29,1,9,0,0,1,,8,L,0,S,14,0.018371,0.770527,0.014155
14,30,3,8,0,0,1,,5,S,0,S,14,0.016168,0.776274,0.01255
14,31,9,5,0,0,1,,4,S,0,S,16,0.767247,0.02859,0.021935
14,32,2,4,0,0,1,,2,S,0,S,18,0.023198,0.780424,0.018104
14,33,6,4,0,0,1,,2,S,0,S,17,0.766007,0.033693,0.025809
14,34,4,9,0,0,1,,5,S,0,S,17,0.017932,0.785005,0.014077
14,35,1,2,0,0,1,,1,S,0,S,17,0.027123,0.768413,0.020842
14,36,9,4,0,0,1,,5,S,0,S,15,0.797218,0.003117,0.002485
14,37,7,6,0,0,1,,1,S,0,S,22,0.752301,0.048913,0.036797
14,38,8,6,0,0,0,,2,S,0,S,26,0.026751,0.783605,0.020962
14,39,3,6,0,0,1,,3,S,0,S,16,0.033306,0.766332,0.025524
14,40,8,4,0,0,1,,4,S,0,S,17,0.790686,0.01484,0.011734
14,41,6,9,0,0,1,,3,S,0,S,19,0.043442,0.757088,0.03289
14,42,8,1,0,0,1,,7,L,0,S,15,0.799771,0.001427,0.001141
14,43,9,6,0,0,1,,3,S,0,S,17,0.781613,0.020395,0.015941
14,44,4,5,0,0,1,,1,S,0,S,19,0.034978,0.766513,0.026811
14,45,6,1,0,0,1,,5,S,0,S,15,0.787819,0.010132,0.007982
14,46,5,6,0,0,1,,1,S,0,S,30,0.044356,0.759742,0.033699
14,47,4,3,0,0,1,,1,S,0,S,17,0.759258,0.038016,0.028864
14,48,1,8,0,0,1,,7,L,0,S,13,0.013077,0.768537,0.01005
14,49,6,2,0,0,1,,4,S,0,S,17,0.790704,0.011996,0.009485
14,50,7,4,0,0,1,,3,S,0,S,16,0.771493,0.026176,0.020195
14,51,6,3,0,0,1,,3,S,0,S,16,0.788748,0.012906,0.010179
14,52,6,8,0,0,1,,2,S,0,S,16,0.00377,0.797992,0.003008
14,53,4,6,0,0,1,,2,S,0,S,18,0.016254,0.789611,0.012834
14,54,8,9,0,0,1,,1,S,0,S,21,0.014408,0.796421,0.011474
14,55,4,7,0,0,1,,3,S,0,S,18,0.04666,0.750005,0.034995
14,56,2,1,0,0,1,,1,S,0,S,20,0.761898,0.038786,0.029551
14,57,1,4,0,0,1,,3,S,0,S,16,0.038208,0.754174,0.028816
14,58,2,5,0,0,1,,3,S,0,S,16,0.003655,0.799168,0.002921
14,59,5,7,0,0,0,,2,S,0,S,24,0.793053,0.015783,0.012517
14,60,4,1,0,0,1,,3,S,0,S,16,0.785663,0.014322,0.011252
14,61,4,2,0,0,1,,2,S,0,S,19,0.771085,0.030044,0.023167
14,62,8,3,0,0,1,,5,S,0,S,15,0.754647,0.037287,0.028138
14,63,7,3,0,0,1,,4,S,0,S,15,0.774142,0.020575,0.015928
14,64,6,5,0,0,1,,1,S,0,S,26,0.759479,0.044358,0.033689
14,65,2,9,0,0,1,,7,L,0,S,15,0.004466,0.795271,0.003552
14,66,1,7,0,0,1,,6,S,0,S,15,0.00417,0.792962,0.003307
14,67,2,8,0,0,1,,6,S,0,S,13,0.027552,0.751215,0.020697
14,68,3,7,0,0,1,,4,S,0,S,17,0.01543,0.79061,0.012199
14,69,3,5,0,0,1,,2,S,0,S,17,0.029348,0.773165,0.022691
14,70,4,8,0,0,1,,4,S,0,S,15,0.003335,0.794634,0.00265
14,71,5,3,0,0,1,,2,S,0,S,15,0.755108,0.035252,0.026619
14,72,8,5,0,0,1,,3,S,0,S,22,0.767412,0.037669,0.028908
15,1,7,1,0,0,1,,6,S,0,S,13,0.757136,0.024145,0.018281
15,2,5,7,0,0,1,,2,S,0,S,15,0.03142,0.756159,0.023758
15,3,7,6,0,0,1,,1,S,0,S,24,0.786538,0.019405,0.015263
15,4,8,3,0,0,1,,5,S,0,S,15,0.798452,0.001084,0.000865
15,5,5,4,0,0,0,,1,S,0,S,19,0.009438,0.79705,0.007522
15,6,9,2,0,0,1,,7,L,0,S,13,0.773117,0.009829,0.007599
15,7,7,3,0,0,1,,4,S,0,S,15,0.767446,0.025683,0.019711
15,8,2,6,0,0,1,,4,S,0,S,15,0.017852,0.775226,0.013839
15,9,7,8,0,0,0,,1,S,0,S,19,0.752819,0.046299,0.034855
15,10,1,8,0,0,1,,7,L,0,S,14,0,0.803262,0
15,11,8,9,0,0,1,,1,S,0,S,25,0.016761,0.793091,0.013293
15,12,2,9,0,0,1,,7,L,0,S,14,0.016434,0.775335,0.012742
15,13,5,2,0,0,1,,3,S,0,S,16,0.758095,0.034179,0.025911
15,14,9,4,0,0,1,,5,S,0,S,15,0.774143,0.018494,0.014317
15,15,2,8,0,0,1,,6,S,0,S,15,0.037299,0.753408,0.028102
15,16,9,3,0,0,1,,6,S,0,S,14,0.7804,0.009047,0.00706
15,17,4,2,0,0,1,,2,S,0,S,16,0.785669,0.014832,0.011653
15,18,3,7,0,0,1,,4,S,0,S,14,0.02013,0.763935,0.015378
15,19,9,8,0,0,1,,1,S,0,S,16,0.785336,0.012327,0.009681
15,20,5,9,0,0,1,,4,S,0,S,15,0.011094,0.785015,0.008709
15,21,6,8,0,0,1,,2,S,0,S,23,0.027038,0.781156,0.021121
15,22,1,7,0,0,1,,6,S,0,S,13,0.007265,0.77618,0.005639
15,23,9,1,0,0,1,,8,L,0,S,13,0.793008,0,0
15,24,3,2,0,0,1,,1,S,0,S,20,0.758598,0.038102,0.028904
15,25,9,5,0,0,1,,4,S,0,S,15,0.779895,0.011257,0.00878
15,26,3,1,0,0,1,,2,S,0,S,17,0.756609,0.03536,0.026754
15,27,2,3,0,0,1,,1,S,0,S,21,0.033387,0.770112,0.025712
15,28,1,4,0,0,1,,3,S,0,S,14,0.008978,0.782866,0.007029
15,29,4,8,0,0,1,,4,S,0,S,17,0.04052,0.756853,0.030668
15,30,6,4,0,0,1,,2,S,0,S,21,0.75146,0.050094,0.037644
15,31,3,9,0,0,1,,6,S,0,S,14,0.006182,0.784691,0.004851
15,32,2,7,0,0,1,,5,S,0,S,14,0.031955,0.752585,0.024049
15,33,2,4,0,0,1,,2,S,0,S,16,0.036954,0.758112,0.028016
15,34,9,6,0,0,1,,3,S,0,S,17,0.78874,0.009085,0.007166
15,35,7,9,0,0,1,,2,S,0,S,19,0.031526,0.771504,0.024322
15,36,7,4,0,0,1,,3,S,0,S,17,0.758596,0.038928,0.02953
15,37,5,1,0,0,1,,4,S,0,S,15,0.764608,0.025732,0.019675
15,38,4,3,0,0,1,,1,S,0,S,19,0.750362,0.047901,0.035943
15,39,3,5,0,0,1,,2,S,0,S,16,0.031588,0.756727,0.023903
15,40,4,5,0,0,1,,1,S,0,S,21,0.040665,0.758998,0.030865
15,41,8,6,0,0,1,,2,S,0,S,19,0.771747,0.027981,0.021595
15,42,5,3,0,0,1,,2,S,0,S,21,0.753484,0.044652,0.033644
15,43,8,7,0,0,1,,1,S,0,S,23,0.778971,0.025297,0.019705
15,44,5,6,0,0,1,,1,S,0,S,16,0.025945,0.766245,0.01988
15,45,1,9,0,0,1,,8,L,0,S,13,0,0.790841,0
15,46,7,5,0,0,1,,2,S,0,S,17,0.777444,0.021058,0.016372
15,47,6,5,0,0,1,,1,S,0,S,20,0.775643,0.026892,0.020859
15,48,7,2,0,0,1,,5,S,0,S,14,0.783625,0.00937,0.007343
15,49,4,1,0,0,1,,3,S,0,S,15,0.785169,0.011915,0.009355
15,50,3,8,0,0,1,,5,S,0,S,15,0.0199,0.771595,0.015354
15,51,8,1,0,0,1,,7,L,0,S,13,0.774281,0.010778,0.008345
15,52,5,8,0,0,1,,3,S,0,S,17,0.0195,0.780573,0.015221
15,53,2,5,0,0,1,,3,S,0,S,17,0.022949,0.775002,0.017785
15,54,6,7,0,0,1,,1,S,0,S,17,0.043115,0.750992,0.032379
15,55,3,4,0,0,1,,1,S,0,S,16,0.013495,0.783728,0.010577
15,56,6,3,0,0,1,,3,S,0,S,16,0.751306,0.041889,0.031471
15,57,8,5,0,0,1,,3,S,0,S,16,0.779943,0.016502,0.012871
15,58,4,9,0,0,1,,5,S,0,S,15,0.020424,0.77578,0.015845
15,59,1,3,0,0,1,,2,S,0,S,15,0.02079,0.771171,0.016033
15,60,6,1,0,0,1,,5,S,0,S,14,0.779992,0.0123,0.009594
15,61,1,5,0,0,1,,4,S,0,S,14,0.018633,0.766793,0.014287
15,62,2,1,0,0,1,,1,S,0,S,16,0.760987,0.03323,0.025288
15,63,4,7,0,0,1,,3,S,0,S,16,0.006703,0.794351,0.005324
15,64,1,6,0,0,1,,5,S,0,S,13,0.019387,0.759427,0.014723
15,65,6,9,0,0,1,,3,S,0,S,16,0.041663,0.752665,0.031358
15,66,9,7,0,0,1,,2,S,0,S,18,0.777618,0.01993,0.015498
15,67,1,2,0,0,1,,1,S,0,S,17,0.039041,0.754352,0.029451
15,68,3,6,0,0,1,,3,S,0,S,15,0.003859,0.789143,0.003045
15,69,6,2,0,0,1,,4,S,0,S,15,0.796802,0.003404,0.002712
15,70,4,6,0,0,1,,2,S,0,S,17,0.005149,0.798246,0.00411
15,71,8,4,0,0,1,,4,S,0,S,16,0.768815,0.028136,0.021631
15,72,8,2,0,0,1,,6,S,0,S,13,0.750291,0.02932,0.021999
16,1,2,5,0,0,1,,3,S,0,S,17,0.007544,0.798484,0.006024
16,2,2,9,0,0,1,,7,L,0,S,14,0.007024,0.786124,0.005522
16,3,4,5,0,0,1,,1,S,0,S,17,0.040658,0.755013,0.030698
16,4,1,8,0,0,1,,7,L,0,S,13,0.010818,0.772953,0.008362
16,5,8,4,0,0,1,,4,S,0,S,15,0.763145,0.031768,0.024244
16,6,8,1,0,0,1,,7,L,0,S,13,0.754138,0.028339,0.021372
16,7,4,9,0,0,1,,5,S,0,S,14,0.019098,0.768964,0.014686
16,8,5,9,0,0,1,,4,S,0,S,15,0.032897,0.756984,0.024902
16,9,3,7,0,0,1,,4,S,0,S,15,0.032967,0.75954,0.02504
16,10,7,9,0,0,1,,2,S,0,S,15,0.018667,0.775866,0.014483
16,11,3,1,0,0,1,,2,S,0,S,21,0.77618,0.029554,0.022939
16,12,2,8,0,0,1,,6,S,0,S,15,0.016908,0.777628,0.013148
16,13,8,7,0,0,1,,1,S,0,S,16,0.762869,0.034287,0.026156
16,14,2,1,0,0,1,,1,S,0,S,16,0.758784,0.036691,0.027841
16,15,1,5,0,0,1,,4,S,0,S,14,0.001511,0.793866,0.0012
16,16,9,7,0,0,1,,2,S,0,S,15,0.792344,0.006776,0.005369
16,17,9,2,0,0,1,,7,L,0,S,13,0.778062,0.006911,0.005377
16,18,7,5,0,0,0,,2,S,0,S,22,0.044276,0.758814,0.033597
16,19,4,1,0,0,1,,3,S,0,S,16,0.78554,0.014465,0.011363
16,20,6,7,0,0,1,,1,S,0,S,24,0.050945,0.750539,0.038236
16,21,2,3,0,0,1,,1,S,0,S,24,0.021868,0.784528,0.017156
16,22,3,6,0,0,1,,3,S,0,S,14,0.01066,0.782795,0.008344
16,23,9,8,0,0,1,,1,S,0,S,17,0.755517,0.038277,0.028919
16,24,9,1,0,0,1,,8,L,0,S,13,0.788067,0.001285,0.001012
16,25,9,3,0,0,1,,6,S,0,S,14,0.775521,0.013693,0.010619
16,26,7,6,0,0,0,,1,S,0,S,17,0.037286,0.760732,0.028364
16,27,1,2,0,0,1,,1,S,0,S,18,0.022007,0.777852,0.017118
16,28,7,8,0,0,1,,1,S,0,S,17,0.025375,0.773206,0.01962
16,29,5,1,0,0,1,,4,S,0,S,14,0.759063,0.02894,0.021967
16,30,1,7,0,0,1,,6,S,0,S,14,0.016814,0.77438,0.013021
16,31,8,5,0,0,1,,3,S,0,S,17,0.754869,0.042591,0.032151
16,32,5,8,0,0,1,,3,S,0,S,18,0.018247,0.783711,0.014301
16,33,3,2,0,0,1,,1,S,0,S,24,0.794344,0.013537,0.010753
16,34,6,3,0,0,1,,3,S,0,S,19,0.761376,0.036486,0.02778
16,35,5,2,0,0,1,,3,S,0,S,15,0.795103,0.002669,0.002122
16,36,4,3,0,0,1,,1,S,0,S,24,0.752881,0.045773,0.034462
16,37,4,7,0,0,1,,3,S,0,S,19,0.035248,0.766122,0.027004
16,38,3,5,0,0,1,,2,S,0,S,15,0.009257,0.789574,0.007309
16,39,4,6,0,0,1,,2,S,0,S,16,0.005421,0.796851,0.00432
16,40,8,9,0,0,1,,1,S,0,S,17,0.043023,0.752107,0.032358
16,41,5,4,0,0,1,,1,S,0,S,17,0.751049,0.045712,0.034332
16,42,4,2,0,0,1,,2,S,0,S,16,0.762505,0.030167,0.023002
16,43,9,6,0,0,1,,3,S,0,S,17,0.779751,0.021298,0.016607
16,44,3,8,0,0,1,,5,S,0,S,14,0.007507,0.784552,0.005889
16,45,2,6,0,0,1,,4,S,0,S,15,0.022116,0.77341,0.017105
16,46,5,6,0,0,1,,1,S,0,S,18,0.033877,0.766671,0.025972
16,47,6,4,0,0,1,,2,S,0,S,20,0.754743,0.046434,0.035046
16,48,5,3,0,0,1,,2,S,0,S,17,0.771607,0.026007,0.020067
16,49,7,1,0,0,1,,6,S,0,S,15,0.797564,0.003311,0.00264
16,50,7,3,0,0,1,,4,S,0,S,18,0.784804,0.01764,0.013844
16,51,1,3,0,0,1,,2,S,0,S,15,0.016015,0.777165,0.012446
16,52,8,3,0,0,1,,5,S,0,S,15,0.770558,0.022713,0.017502
16,53,3,4,0,0,1,,1,S,0,S,16,0.033863,0.763316,0.025848
16,54,2,4,0,0,1,,2,S,0,S,21,0.018492,0.79186,0.014643
16,55,6,8,0,0,1,,2,S,0,S,16,0.032445,0.760202,0.024665
16,56,7,2,0,0,1,,5,S,0,S,15,0.781122,0.013955,0.0109
16,57,9,5,0,0,1,,4,S,0,S,15,0.76161,0.030419,0.023167
16,58,5,7,0,0,0,,2,S,0,S,20,0.768377,0.035232,0.027072
16,59,8,2,0,0,1,,6,S,0,S,14,0.795806,0,0
16,60,1,6,0,0,1,,5,S,0,S,13,0.013038,0.772279,0.010069
16,61,1,4,0,0,1,,3,S,0,S,15,0.002594,0.798463,0.002071
16,62,2,7,0,0,1,,5,S,0,S,18,0.019039,0.786523,0.014974
16,63,6,5,0,0,0,,1,S,0,S,19,0.044338,0.754606,0.033458
16,64,3,9,0,0,1,,6,S,0,S,13,0.010906,0.774233,0.008444
16,65,6,1,0,0,1,,5,S,0,S,15,0.774154,0.020758,0.01607
16,66,7,4,0,0,1,,3,S,0,S,18,0.756227,0.043877,0.033181
16,67,4,8,0,0,1,,4,S,0,S,15,0.035274,0.752368,0.026539
16,68,6,2,0,0,1,,4,S,0,S,15,0.755379,0.033039,0.024957
16,69,1,9,0,0,1,,8,L,0,S,12,0.02172,0.750175,0.016294
16,70,6,9,0,0,1,,3,S,0,S,15,0.003219,0.79463,0.002558
16,71,9,4,0,0,1,,5,S,0,S,14,0.772534,0.019073,0.014735
16,72,8,6,0,0,1,,2,S,0,S,23,0.768004,0.037863,0.029079
17,1,8,3,0,0,1,,5,S,0,S,16,0.769876,0.02666,0.020525
17,2,5,2,0,0,1,,3,S,0,S,16,0.79171,0.005829,0.004615
17,3,8,6,0,0,1,,2,S,0,S,18,0.750612,0.047011,0.035287
17,4,4,7,0,0,1,,3,S,0,S,18,0.017323,0.786873,0.013631
17,5,4,8,0,0,1,,4,S,0,S,18,0.032387,0.764569,0.024762
17,6,9,6,0,0,1,,3,S,0,S,20,0.769903,0.032709,0.025182
17,7,4,1,0,0,1,,3,S,0,S,14,0.76619,0.020081,0.015386
17,8,6,4,0,0,1,,2,S,0,S,16,0.753066,0.036416,0.027424
17,9,8,5,0,0,1,,3,S,0,S,17,0.771501,0.028611,0.022073
17,10,5,4,0,0,1,,1,S,0,S,19,0.767159,0.028342,0.021743
17,11,3,4,0,0,1,,1,S,0,S,18,0.020908,0.778208,0.016271
17,12,6,8,0,0,1,,2,S,0,S,25,0.045063,0.753831,0.03397
17,13,7,2,0,0,1,,5,S,0,S,14,0.750406,0.034183,0.025651
17,14,2,9,0,0,1,,7,L,0,S,14,0.033583,0.750733,0.025212
17,15,7,8,0,0,1,,1,S,0,S,24,0.037394,0.764918,0.028603
17,16,2,4,0,0,1,,2,S,0,S,20,0.009208,0.793892,0.00731
17,17,6,3,0,0,1,,3,S,0,S,17,0.759587,0.035139,0.026691
17,18,4,3,0,0,1,,1,S,0,S,21,0.770455,0.031235,0.024065
17,19,7,3,0,0,1,,4,S,0,S,17,0.757559,0.037992,0.028781
17,20,3,5,0,0,1,,2,S,0,S,16,0.013063,0.786667,0.010276
17,21,8,9,0,0,1,,1,S,0,S,24,0.015377,0.796036,0.012241
17,22,1,8,0,0,1,,7,L,0,S,14,0.010304,0.780585,0.008043
17,23,8,7,0,0,1,,1,S,0,S,22,0.783958,0.024826,0.019463
17,24,5,1,0,0,1,,4,S,0,S,14,0.758701,0.023889,0.018125
17,25,6,9,0,0,1,,3,S,0,S,19,0.033331,0.76769,0.025588
17,26,8,1,0,0,1,,7,L,0,S,13,0.767218,0.015806,0.012127
17,27,9,1,0,0,1,,8,L,0,S,13,0.754912,0.024039,0.018147
17,28,7,9,0,0,1,,2,S,0,S,19,0.023549,0.781599,0.018406
17,29,1,7,0,0,1,,6,S,0,S,14,0.005588,0.789576,0.004412
17,30,4,5,0,0,1,,1,S,0,S,27,0.024097,0.782806,0.018863
17,31,2,5,0,0,1,,3,S,0,S,17,0.005526,0.797404,0.004407
17,32,4,9,0,0,1,,5,S,0,S,17,0.007284,0.797038,0.005806
17,33,3,1,0,0,1,,2,S,0,S,17,0.79125,0.009404,0.007441
17,34,3,2,0,0,1,,1,S,0,S,22,0.781666,0.022987,0.017968
17,35,8,4,0,0,1,,4,S,0,S,16,0.799538,0.001849,0.001479
17,36,9,5,0,0,1,,4,S,0,S,18,0.77418,0.026921,0.020842
17,37,5,8,0,0,1,,3,S,0,S,18,0.027937,0.767446,0.02144
17,38,9,3,0,0,1,,6,S,0,S,17,0.786188,0.014783,0.011622
17,39,2,8,0,0,1,,6,S,0,S,15,0.02484,0.764493,0.01899
17,40,1,4,0,0,1,,3,S,0,S,16,0.019114,0.776485,0.014842
17,41,2,3,0,0,1,,1,S,0,S,18,0.015901,0.785029,0.012483
17,42,3,8,0,0,1,,5,S,0,S,15,0.005988,0.790243,0.004732
17,43,1,9,0,0,1,,8,L,0,S,13,0.027861,0.753432,0.020991
17,44,3,6,0,0,1,,3,S,0,S,15,0.023783,0.769475,0.018301
17,45,6,7,0,0,1,,1,S,0,S,23,0.038243,0.765281,0.029266
17,46,1,6,0,0,1,,5,S,0,S,14,0.023447,0.76554,0.017949
17,47,1,2,0,0,1,,1,S,0,S,20,0.033245,0.768058,0.025534
17,48,7,4,0,0,1,,3,S,0,S,16,0.752256,0.038281,0.028797
17,49,9,7,0,0,1,,2,S,0,S,37,0.762914,0.041972,0.032021
17,50,1,3,0,0,1,,2,S,0,S,15,0.028813,0.762247,0.021963
17,51,7,6,0,0,1,,1,S,0,S,22,0.757227,0.044784,0.033912
17,52,9,4,0,0,1,,5,S,0,S,16,0.773701,0.020931,0.016194
17,53,5,9,0,0,1,,4,S,0,S,17,0.005225,0.797042,0.004165
17,54,9,8,0,0,1,,1,S,0,S,26,0.765412,0.03665,0.028053
17,55,5,7,0,0,1,,2,S,0,S,18,0.013477,0.789026,0.010634
17,56,6,2,0,0,1,,4,S,0,S,15,0.801177,0,0
17,57,3,7,0,0,1,,4,S,0,S,15,2E-06,0.800856,1E-06
17,58,6,1,0,0,1,,5,S,0,S,14,0.799419,0,0
17,59,2,7,0,0,1,,5,S,0,S,15,0.018043,0.776347,0.014008
17,60,4,6,0,0,1,,2,S,0,S,20,0.030962,0.771493,0.023887
17,61,7,5,0,0,1,,2,S,0,S,19,0.775527,0.027787,0.02155
17,62,5,3,0,0,1,,2,S,0,S,22,0.781672,0.020499,0.016024
17,63,6,5,0,0,1,,1,S,0,S,19,0.780649,0.022416,0.017499
17,64,5,6,0,0,1,,1,S,0,S,20,0.021368,0.780724,0.016682
17,65,1,5,0,0,1,,4,S,0,S,15,0.005363,0.793571,0.004256
17,66,7,1,0,0,1,,6,S,0,S,14,0.800395,0,0
17,67,4,2,0,0,1,,2,S,0,S,15,0.751711,0.0361,0.027137
17,68,8,2,0,0,1,,6,S,0,S,14,0.777925,0.013585,0.010568
17,69,3,9,0,0,1,,6,S,0,S,14,0.018201,0.772188,0.014054
17,70,2,1,0,0,1,,1,S,0,S,16,0.775044,0.018904,0.014651
17,71,9,2,0,0,1,,7,L,0,S,14,0.761804,0.024859,0.018938
17,72,2,6,0,0,1,,4,S,0,S,16,0.010248,0.789022,0.008086
18,1,4,5,0,0,1,,1,S,0,S,16,0.029867,0.765547,0.022865
18,2,7,5,0,0,1,,2,S,0,S,18,0.768507,0.031283,0.024042
18,3,4,6,0,0,1,,2,S,0,S,16,0.021534,0.778188,0.016757
18,4,6,8,0,0,1,,2,S,0,S,16,0.031463,0.762934,0.024004
18,5,9,6,0,0,1,,3,S,0,S,19,0.780088,0.024789,0.019337
18,6,3,8,0,0,1,,5,S,0,S,14,0.027587,0.756854,0.02088
18,7,2,5,0,0,1,,3,S,0,S,17,0.0371,0.75804,0.028123
18,8,2,7,0,0,1,,5,S,0,S,17,0.019312,0.778938,0.015043
18,9,7,3,0,0,1,,4,S,0,S,16,0.79142,0.009305,0.007364
18,10,7,8,0,0,1,,1,S,0,S,20,0.045966,0.752729,0.0346
18,11,6,7,0,0,1,,1,S,0,S,20,0.044133,0.752961,0.03323
18,12,1,9,0,0,1,,8,L,0,S,14,0,0.797629,0
18,13,6,2,0,0,1,,4,S,0,S,15,0.75083,0.037573,0.028211
18,14,7,2,0,0,1,,5,S,0,S,14,0.769296,0.019648,0.015115
18,15,8,2,0,0,1,,6,S,0,S,15,0.795819,0.002607,0.002075
18,16,8,4,0,0,1,,4,S,0,S,17,0.790846,0.012613,0.009975
18,17,9,7,0,0,1,,2,S,0,S,20,0.78951,0.015058,0.011888
18,18,8,9,0,0,1,,1,S,0,S,19,0.01128,0.790963,0.008922
18,19,3,9,0,0,1,,6,S,0,S,15,0,0.796166,0
18,20,6,9,0,0,1,,3,S,0,S,17,0.00652,0.793699,0.005175
18,21,6,4,0,0,1,,2,S,0,S,19,0.777277,0.026322,0.02046
18,22,2,3,0,0,1,,1,S,0,S,25,0.032641,0.771179,0.025172
18,23,4,8,0,0,1,,4,S,0,S,14,0.029331,0.757242,0.022211
18,24,5,3,0,0,1,,2,S,0,S,18,0.795317,0.011752,0.009346
18,25,3,7,0,0,1,,4,S,0,S,16,0.014124,0.781215,0.011034
18,26,1,7,0,0,1,,6,S,0,S,14,0.032511,0.75332,0.024491
18,27,4,2,0,0,1,,2,S,0,S,19,0.778305,0.024584,0.019134
18,28,8,5,0,0,1,,3,S,0,S,21,0.791153,0.015795,0.012496
18,29,2,6,0,0,1,,4,S,0,S,17,0.025718,0.774592,0.019921
18,30,5,1,0,0,1,,4,S,0,S,14,0.768294,0.020517,0.015763
18,31,9,2,0,0,1,,7,L,0,S,14,0.76322,0.024101,0.018394
18,32,2,9,0,0,1,,7,L,0,S,15,0.022185,0.766876,0.017013
18,33,5,8,0,0,1,,3,S,0,S,17,0.014523,0.789831,0.011471
18,34,9,4,0,0,1,,5,S,0,S,16,0.777615,0.020917,0.016265
18,35,5,4,0,0,1,,1,S,0,S,18,0.786844,0.01955,0.015383
18,36,2,4,0,0,1,,2,S,0,S,23,0.041391,0.760985,0.031498
18,37,9,3,0,0,1,,6,S,0,S,16,0.781443,0.01693,0.01323
18,38,1,8,0,0,1,,7,L,0,S,13,0.028211,0.753594,0.02126
18,39,3,4,0,0,1,,1,S,0,S,19,0.018225,0.785038,0.014308
18,40,1,6,0,0,1,,5,S,0,S,14,0.034788,0.753913,0.026227
18,41,4,7,0,0,1,,3,S,0,S,16,0.01737,0.779828,0.013545
18,42,8,3,0,0,1,,5,S,0,S,17,0.796007,0.00752,0.005986
18,43,5,7,0,0,1,,2,S,0,S,23,0.036084,0.768009,0.027713
18,44,8,7,0,0,1,,1,S,0,S,23,0.779385,0.024668,0.019226
18,45,9,5,0,0,1,,4,S,0,S,19,0.79343,0.012439,0.00987
18,46,9,1,0,0,1,,8,L,0,S,14,0.79754,0,0
18,47,8,6,0,0,1,,2,S,0,S,21,0.760677,0.041928,0.031893
18,48,6,1,0,0,1,,5,S,0,S,14,0.750345,0.03237,0.024289
18,49,7,4,0,0,1,,3,S,0,S,16,0.788001,0.012967,0.010218
18,50,8,1,0,0,1,,7,L,0,S,14,0.783322,0.00713,0.005585
18,51,5,6,0,0,1,,1,S,0,S,25,0.051578,0.753427,0.03886
18,52,1,4,0,0,1,,3,S,0,S,16,0.019409,0.781866,0.015175
18,53,4,1,0,0,1,,3,S,0,S,16,0.755763,0.035436,0.026781
18,54,7,9,0,0,1,,2,S,0,S,21,0.045568,0.75006,0.034179
18,55,7,6,0,0,1,,1,S,0,S,18,0.757078,0.042005,0.031801
18,56,2,1,0,0,1,,1,S,0,S,16,0.794173,0.004561,0.003622
18,57,1,3,0,0,1,,2,S,0,S,16,0.025867,0.772413,0.01998
18,58,6,5,0,0,0,,1,S,0,S,22,0.038643,0.763318,0.029497
18,59,4,3,0,0,0,,1,S,0,S,19,0.046672,0.750797,0.035041
18,60,3,5,0,0,1,,2,S,0,S,16,0.025905,0.767805,0.01989
18,61,3,1,0,0,1,,2,S,0,S,17,0.788818,0.009469,0.007469
18,62,9,8,0,0,0,,1,S,0,S,20,0.01777,0.78783,0.014
18,63,6,3,0,0,1,,3,S,0,S,19,0.789811,0.015262,0.012054
18,64,4,9,0,0,1,,5,S,0,S,15,0,0.796819,0
18,65,3,6,0,0,1,,3,S,0,S,16,0.017874,0.780092,0.013943
18,66,2,8,0,0,1,,6,S,0,S,15,0.014764,0.780029,0.011516
18,67,1,5,0,0,1,,4,S,0,S,15,0.003661,0.797111,0.002918
18,68,5,9,0,0,1,,4,S,0,S,17,0.027156,0.770129,0.020914
18,69,3,2,0,0,1,,1,S,0,S,20,0.795604,0.009308,0.007405
18,70,1,2,0,0,1,,1,S,0,S,21,0.03534,0.768882,0.027173
18,71,7,1,0,0,1,,6,S,0,S,14,0.802252,0,0
18,72,5,2,0,0,1,,3,S,0,S,15,0.774604,0.02109,0.016336
19,1,7,6,0,0,1,,1,S,0,S,20,0.755209,0.044705,0.033761
19,2,3,8,0,0,1,,5,S,0,S,14,0.034276,0.752469,0.025791
19,3,3,4,0,0,1,,1,S,0,S,21,0.039569,0.76129,0.030123
19,4,3,6,0,0,1,,3,S,0,S,15,0.027973,0.765107,0.021402
19,5,2,3,0,0,1,,1,S,0,S,14,0.027412,0.759945,0.020832
19,6,9,6,0,0,1,,3,S,0,S,20,0.794114,0.014268,0.01133
19,7,2,4,0,0,1,,2,S,0,S,17,0.006966,0.795724,0.005543
19,8,6,7,0,0,1,,1,S,0,S,16,0.025921,0.7744,0.020073
19,9,4,1,0,0,1,,3,S,0,S,14,0.773855,0.017151,0.013273
19,10,2,9,0,0,1,,7,L,0,S,13,0,0.796769,0
19,11,1,9,0,0,1,,8,L,0,S,13,0.01243,0.775249,0.009637
19,12,8,1,0,0,1,,7,L,0,S,13,0.80177,0,0
19,13,6,9,0,0,1,,3,S,0,S,14,0.029878,0.759543,0.022694
19,14,4,9,0,0,1,,5,S,0,S,15,0.025082,0.770908,0.019336
19,15,3,7,0,0,1,,4,S,0,S,14,0.027252,0.763267,0.020801
19,16,6,1,0,0,1,,5,S,0,S,15,0.789843,0.008534,0.00674
19,17,2,1,0,0,1,,1,S,0,S,24,0.752648,0.047745,0.035936
19,18,2,8,0,0,1,,6,S,0,S,14,0,0.802132,0
19,19,4,8,0,0,1,,4,S,0,S,18,0.040503,0.759272,0.030753
19,20,1,8,0,0,1,,7,L,0,S,14,0.019882,0.771242,0.015334
19,21,1,7,0,0,1,,6,S,0,S,14,0.013626,0.78096,0.010642
19,22,6,2,0,0,1,,4,S,0,S,16,0.752854,0.042274,0.031826
19,23,8,4,0,0,1,,4,S,0,S,14,0.802084,0,0
19,24,1,3,0,0,1,,2,S,0,S,15,0.02559,0.768392,0.019663
19,25,4,6,0,0,1,,2,S,0,S,23,0.035853,0.769357,0.027584
19,26,9,7,0,0,0,,2,S,0,S,23,0.035361,0.772578,0.027319
19,27,8,3,0,0,1,,5,S,0,S,15,0.783015,0.01398,0.010946
19,28,1,6,0,0,1,,5,S,0,S,15,0.00973,0.788585,0.007673
19,29,8,5,0,0,1,,3,S,0,S,15,0.788868,0.011005,0.008681
19,30,9,3,0,0,1,,6,S,0,S,18,0.770775,0.030851,0.023779
19,31,6,8,0,0,1,,2,S,0,S,16,0.038813,0.756209,0.029351
19,32,5,1,0,0,1,,4,S,0,S,13,0.751207,0.028971,0.021763
19,33,1,2,0,0,1,,1,S,0,S,22,0.037577,0.768266,0.028869
19,34,9,8,0,0,0,,1,S,0,S,28,0.029042,0.779664,0.022643
19,35,7,9,0,0,1,,2,S,0,S,16,0.030908,0.766511,0.023691
19,36,1,5,0,0,1,,4,S,0,S,15,0.025593,0.770492,0.01972
19,37,9,2,0,0,1,,7,L,0,S,14,0.757763,0.031193,0.023637
19,38,3,1,0,0,1,,2,S,0,S,17,0.776172,0.024027,0.018649
19,39,3,9,0,0,1,,6,S,0,S,13,0.021908,0.76273,0.01671
19,40,2,7,0,0,1,,5,S,0,S,13,0.02623,0.756821,0.019851
19,41,7,5,0,0,1,,2,S,0,S,18,0.757866,0.042262,0.032029
19,42,5,2,0,0,1,,3,S,0,S,14,0.756792,0.031669,0.023967
19,43,5,7,0,0,1,,2,S,0,S,23,0.032197,0.776112,0.024988
19,44,1,4,0,0,1,,3,S,0,S,19,0.023621,0.779336,0.018409
19,45,6,4,0,0,1,,2,S,0,S,18,0.782353,0.020255,0.015847
19,46,5,8,0,0,1,,3,S,0,S,27,0.052191,0.750256,0.039157
19,47,5,3,0,0,1,,2,S,0,S,18,0.768758,0.032143,0.024711
19,48,7,3,0,0,1,,4,S,0,S,19,0.793713,0.013194,0.010473
19,49,9,4,0,0,1,,5,S,0,S,15,0.77667,0.017976,0.013961
19,50,3,5,0,0,1,,2,S,0,S,16,0.010628,0.793238,0.008431
19,51,8,2,0,0,1,,6,S,0,S,13,0.770526,0.015835,0.012201
19,52,8,6,0,0,1,,2,S,0,S,15,0.761301,0.030759,0.023417
19,53,7,8,0,0,1,,1,S,0,S,24,0.022356,0.78639,0.017581
19,54,6,3,0,0,0,,3,S,0,S,20,0.016192,0.791974,0.012824
19,55,4,3,0,0,1,,1,S,0,S,25,0.78116,0.027033,0.021117
19,56,8,9,0,0,0,,1,S,0,S,25,0.795895,0.015975,0.012714
19,57,4,2,0,0,1,,2,S,0,S,15,0.762294,0.031804,0.024244
19,58,3,2,0,0,1,,1,S,0,S,25,0.761637,0.043792,0.033353
19,59,8,7,0,0,1,,1,S,0,S,17,0.798572,0.008512,0.006798
19,60,7,4,0,0,1,,3,S,0,S,15,0.767483,0.02455,0.018842
19,61,7,2,0,0,1,,5,S,0,S,15,0.801676,0.000389,0.000312
19,62,4,5,0,0,0,,1,S,0,S,24,0.778388,0.030943,0.024086
19,63,9,1,0,0,1,,8,L,0,S,13,0.752019,0.028614,0.021518
19,64,2,5,0,0,1,,3,S,0,S,14,0.02726,0.762199,0.020778
19,65,6,5,0,0,0,,1,S,0,S,20,0.01987,0.789664,0.015691
19,66,5,9,0,0,1,,4,S,0,S,16,0.039572,0.755834,0.02991
19,67,2,6,0,0,1,,4,S,0,S,14,0.015509,0.775293,0.012024
19,68,9,5,0,0,1,,4,S,0,S,18,0.781359,0.024217,0.018922
19,69,4,7,0,0,1,,3,S,0,S,18,0.018205,0.789131,0.014366
19,70,5,4,0,0,1,,1,S,0,S,15,0.775574,0.018551,0.014388
19,71,7,1,0,0,1,,6,S,0,S,14,0.799859,0,0
19,72,5,6,0,0,0,,1,S,0,S,20,0.791407,0.016134,0.012769
20,1,8,1,0,0,1,,7,L,0,S,14,0.777328,0.01368,0.010634
20,2,5,9,0,0,1,,4,S,0,S,16,0.016743,0.784404,0.013133
20,3,8,2,0,0,1,,6,S,0,S,14,0.761353,0.025816,0.019655
20,4,7,5,0,0,1,,2,S,0,S,23,0.783623,0.020719,0.016236
20,5,8,6,0,0,1,,2,S,0,S,18,0.767099,0.03334,0.025575
20,6,1,8,0,0,1,,7,L,0,S,14,0.001394,0.793468,0.001106
20,7,5,2,0,0,1,,3,S,0,S,17,0.7576,0.038703,0.029321
20,8,7,9,0,0,1,,2,S,0,S,23,0.015912,0.792099,0.012604
20,9,5,3,0,0,1,,2,S,0,S,19,0.763004,0.038827,0.029625
20,10,3,1,0,0,1,,2,S,0,S,16,0.774827,0.021782,0.016878
20,11,6,1,0,0,1,,5,S,0,S,15,0.793632,0.002639,0.002095
20,12,6,2,0,0,1,,4,S,0,S,15,0.774143,0.017621,0.013641
20,13,2,9,0,0,1,,7,L,0,S,15,0.007708,0.792287,0.006107
20,14,2,8,0,0,1,,6,S,0,S,14,0.032693,0.752685,0.024607
20,15,2,7,0,0,1,,5,S,0,S,15,0.003515,0.795657,0.002797
20,16,7,8,0,0,1,,1,S,0,S,20,0.027339,0.773255,0.02114
20,17,7,1,0,0,1,,6,S,0,S,14,0.754773,0.02972,0.022432
20,18,6,4,0,0,1,,2,S,0,S,19,0.757004,0.038121,0.028857
20,19,7,2,0,0,1,,5,S,0,S,15,0.787936,0.007796,0.006142
20,20,3,9,0,0,1,,6,S,0,S,16,0.040755,0.752135,0.030653
20,21,2,1,0,0,1,,1,S,0,S,19,0.76463,0.036378,0.027816
20,22,6,8,0,0,1,,2,S,0,S,19,0.026494,0.771925,0.020452
20,23,6,9,0,0,1,,3,S,0,S,21,0.016418,0.789136,0.012956
20,24,5,8,0,0,1,,3,S,0,S,15,0.03647,0.752894,0.027458
20,25,2,6,0,0,1,,4,S,0,S,16,0.010274,0.792391,0.008141
20,26,8,3,0,0,1,,5,S,0,S,15,0.787908,0.010274,0.008095
20,27,2,3,0,0,1,,1,S,0,S,23,0.036209,0.769721,0.027871
20,28,9,1,0,0,1,,8,L,0,S,13,0.751479,0.029055,0.021835
20,29,1,2,0,0,1,,1,S,0,S,20,0.016012,0.791195,0.012669
20,30,4,1,0,0,1,,3,S,0,S,17,0.773688,0.024565,0.019006
20,31,1,6,0,0,1,,5,S,0,S,15,0.000749,0.800966,0.0006
20,32,1,3,0,0,1,,2,S,0,S,17,0.04305,0.753886,0.032454
20,33,9,3,0,0,1,,6,S,0,S,14,0.77215,0.019455,0.015022
20,34,3,6,0,0,1,,3,S,0,S,19,0.013269,0.793171,0.010525
20,35,7,4,0,0,1,,3,S,0,S,18,0.75342,0.040691,0.030658
20,36,8,7,0,0,1,,1,S,0,S,30,0.784311,0.022801,0.017883
20,37,4,7,0,0,1,,3,S,0,S,16,0.001582,0.79963,0.001265
20,38,9,8,0,0,1,,1,S,0,S,20,0.769631,0.032631,0.025114
20,39,1,7,0,0,1,,6,S,0,S,14,0.006496,0.787142,0.005113
20,40,7,3,0,0,1,,4,S,0,S,15,0.758151,0.032113,0.024347
20,41,6,5,0,0,1,,1,S,0,S,28,0.750537,0.046927,0.035221
20,42,3,5,0,0,1,,2,S,0,S,18,0.01929,0.782012,0.015085
20,43,6,7,0,0,1,,1,S,0,S,20,0.023016,0.777774,0.017901
20,44,1,9,0,0,1,,8,L,0,S,14,0.009493,0.785191,0.007454
20,45,5,1,0,0,1,,4,S,0,S,17,0.797769,0.007099,0.005663
20,46,6,3,0,0,1,,3,S,0,S,16,0.791165,0.008338,0.006597
20,47,1,4,0,0,1,,3,S,0,S,15,0.020372,0.773607,0.01576
20,48,5,7,0,0,1,,2,S,0,S,16,0.010189,0.790638,0.008056
20,49,9,7,0,0,1,,2,S,0,S,19,0.769453,0.0321,0.024699
20,50,9,6,0,0,1,,3,S,0,S,16,0.757561,0.037693,0.028555
20,51,7,6,0,0,1,,1,S,0,S,20,0.759436,0.040191,0.030523
20,52,4,8,0,0,1,,4,S,0,S,15,0.02833,0.761427,0.021572
20,53,4,5,0,0,1,,1,S,0,S,17,0.008107,0.793768,0.006435
20,54,3,8,0,0,1,,5,S,0,S,16,0.020641,0.775389,0.016005
20,55,8,4,0,0,1,,4,S,0,S,17,0.770725,0.026861,0.020702
20,56,3,2,0,0,1,,1,S,0,S,17,0.790714,0.011264,0.008906
20,57,8,5,0,0,1,,3,S,0,S,19,0.760443,0.038172,0.029028
20,58,9,2,0,0,1,,7,L,0,S,14,0.791967,0.003032,0.002401
20,59,1,5,0,0,1,,4,S,0,S,14,0.028605,0.758221,0.021689
20,60,8,9,0,0,0,,1,S,0,S,24,0.779029,0.028242,0.022002
20,61,3,7,0,0,1,,4,S,0,S,16,0.032457,0.760588,0.024686
20,62,9,5,0,0,1,,4,S,0,S,17,0.776102,0.023758,0.018438
20,63,5,6,0,0,1,,1,S,0,S,17,0.043385,0.753174,0.032676
20,64,4,9,0,0,1,,5,S,0,S,16,0.007366,0.794347,0.005851
20,65,4,2,0,0,1,,2,S,0,S,18,0.774699,0.025255,0.019565
20,66,3,4,0,0,1,,1,S,0,S,21,0.031248,0.770161,0.024066
20,67,9,4,0,0,1,,5,S,0,S,16,0.788046,0.011925,0.009398
20,68,4,3,0,0,1,,1,S,0,S,20,0.752615,0.046325,0.034865
20,69,2,5,0,0,1,,3,S,0,S,15,0.034154,0.756098,0.025824
20,70,5,4,0,0,0,,1,S,0,S,19,0.028851,0.772894,0.022299
20,71,4,6,0,0,1,,2,S,0,S,17,0.02696,0.771965,0.020812
20,72,2,4,0,0,1,,2,S,0,S,16,0.040329,0.751717,0.030316
21,1,2,4,0,0,1,,2,S,0,S,18,0.024352,0.773495,0.018836
21,2,9,8,0,0,1,,1,S,0,S,19,0.768079,0.031613,0.024281
21,3,2,5,0,0,1,,3,S,0,S,16,0.007586,0.79287,0.006015
21,4,9,3,0,0,1,,6,S,0,S,15,0.787378,0.012211,0.009615
21,5,8,5,0,0,1,,3,S,0,S,19,0.7904,0.016932,0.013383
21,6,9,5,0,0,1,,4,S,0,S,16,0.756825,0.038322,0.029003
21,7,6,1,0,0,1,,5,S,0,S,15,0.783895,0.012614,0.009888
21,8,1,5,0,0,1,,4,S,0,S,14,0,0.799731,0
21,9,8,3,0,0,1,,5,S,0,S,16,0.781199,0.019958,0.015591
21,10,3,9,0,0,1,,6,S,0,S,13,0.026905,0.752245,0.020239
21,11,6,4,0,0,1,,2,S,0,S,17,0.770339,0.026683,0.020555
21,12,1,6,0,0,1,,5,S,0,S,14,0.0011,0.791381,0.000871
21,13,6,2,0,0,1,,4,S,0,S,16,0.789452,0.009154,0.007227
21,14,4,3,0,0,1,,1,S,0,S,21,0.762853,0.040272,0.030722
21,15,1,9,0,0,1,,8,L,0,S,12,0.003645,0.775189,0.002825
21,16,9,1,0,0,1,,8,L,0,S,14,0.795093,0.001177,0.000936
21,17,7,2,0,0,1,,5,S,0,S,16,0.775151,0.021037,0.016307
21,18,4,9,0,0,1,,5,S,0,S,14,0.004845,0.788406,0.00382
21,19,7,3,0,0,1,,4,S,0,S,17,0.75562,0.042086,0.031801
21,20,8,1,0,0,1,,7,L,0,S,14,0.76019,0.028037,0.021314
21,21,2,8,0,0,1,,6,S,0,S,15,0.004556,0.789668,0.003598
21,22,4,8,0,0,1,,4,S,0,S,17,0.010001,0.790241,0.007904
21,23,6,8,0,0,1,,2,S,0,S,20,0.026956,0.773649,0.020854
21,24,5,2,0,0,1,,3,S,0,S,17,0.796644,0.006975,0.005557
21,25,9,7,0,0,1,,2,S,0,S,17,0.770262,0.029724,0.022895
21,26,6,9,0,0,1,,3,S,0,S,15,0.00329,0.79529,0.002616
21,27,7,1,0,0,1,,6,S,0,S,15,0.773214,0.021585,0.01669
21,28,7,9,0,0,1,,2,S,0,S,14,0.030563,0.75594,0.023104
21,29,3,5,0,0,1,,2,S,0,S,17,0.039856,0.755436,0.030109
21,30,3,1,0,0,1,,2,S,0,S,17,0.754552,0.039955,0.030148
21,31,7,5,0,0,1,,2,S,0,S,26,0.770308,0.035989,0.027723
21,32,1,2,0,0,1,,1,S,0,S,15,0.030574,0.757952,0.023174
21,33,6,3,0,0,1,,3,S,0,S,17,0.779698,0.02237,0.017442
21,34,3,6,0,0,1,,3,S,0,S,18,0.016041,0.784306,0.012581
21,35,5,9,0,0,1,,4,S,0,S,14,0.018332,0.772771,0.014166
21,36,6,7,0,0,1,,1,S,0,S,31,0.031115,0.775406,0.024127
21,37,4,2,0,0,1,,2,S,0,S,18,0.785055,0.016093,0.012634
21,38,6,5,0,0,1,,1,S,0,S,22,0.77334,0.031689,0.024506
21,39,1,3,0,0,1,,2,S,0,S,14,0.030815,0.756735,0.023318
21,40,3,2,0,0,1,,1,S,0,S,20,0.780025,0.021531,0.016795
21,41,7,4,0,0,1,,3,S,0,S,18,0.79387,0.010366,0.008229
21,42,5,1,0,0,1,,4,S,0,S,15,0.753502,0.037646,0.028366
21,43,5,7,0,0,1,,2,S,0,S,20,0.024282,0.782552,0.019002
21,44,4,5,0,0,1,,1,S,0,S,19,0.03468,0.766593,0.026585
21,45,3,8,0,0,1,,5,S,0,S,16,0.012127,0.784197,0.00951
21,46,8,6,0,0,1,,2,S,0,S,19,0.796515,0.00931,0.007416
21,47,9,6,0,0,1,,3,S,0,S,16,0.757324,0.035301,0.026734
21,48,8,2,0,0,1,,6,S,0,S,15,0.774937,0.018657,0.014458
21,49,9,2,0,0,1,,7,L,0,S,14,0.765941,0.021839,0.016727
21,50,3,7,0,0,1,,4,S,0,S,17,0.011003,0.791598,0.00871
21,51,2,9,0,0,1,,7,L,0,S,13,0.005686,0.779627,0.004433
21,52,3,4,0,0,1,,1,S,0,S,25,0.023823,0.7802,0.018587
21,53,8,4,0,0,1,,4,S,0,S,16,0.772834,0.023563,0.01821
21,54,8,7,0,0,1,,1,S,0,S,20,0.753755,0.046762,0.035247
21,55,2,3,0,0,1,,1,S,0,S,18,0.020221,0.782674,0.015826
21,56,5,4,0,0,1,,1,S,0,S,19,0.791789,0.01401,0.011093
21,57,1,7,0,0,1,,6,S,0,S,13,0.02443,0.756899,0.018491
21,58,4,1,0,0,1,,3,S,0,S,16,0.762461,0.032101,0.024476
21,59,5,3,0,0,1,,2,S,0,S,18,0.754973,0.045195,0.034121
21,60,1,8,0,0,1,,7,L,0,S,13,0.012586,0.769575,0.009686
21,61,7,6,0,0,1,,1,S,0,S,24,0.766921,0.035381,0.027134
21,62,2,6,0,0,1,,4,S,0,S,16,0.015197,0.779929,0.011853
21,63,8,9,0,0,1,,1,S,0,S,15,0.024182,0.769697,0.018612
21,64,4,6,0,0,1,,2,S,0,S,20,0.018623,0.784411,0.014608
21,65,4,7,0,0,1,,3,S,0,S,18,0.024042,0.777958,0.018703
21,66,5,6,0,0,1,,1,S,0,S,24,0.04707,0.753345,0.03546
21,67,7,8,0,0,1,,1,S,0,S,19,0.022937,0.7785,0.017857
21,68,1,4,0,0,1,,3,S,0,S,14,0.033079,0.750105,0.024813
21,69,2,1,0,0,1,,1,S,0,S,22,0.765519,0.035743,0.027362
21,70,2,7,0,0,1,,5,S,0,S,15,0.026721,0.764298,0.020423
21,71,5,8,0,0,1,,3,S,0,S,18,0.014844,0.78818,0.0117
21,72,9,4,0,0,1,,5,S,0,S,15,0.779994,0.015151,0.011817
22,1,3,8,0,0,1,,5,S,0,S,15,0.017257,0.778361,0.013432
22,2,4,6,0,0,1,,2,S,0,S,19,0.031831,0.770569,0.024528
22,3,1,4,0,0,1,,3,S,0,S,17,0.029237,0.771215,0.022548
22,4,1,6,0,0,1,,5,S,0,S,15,0.008506,0.790933,0.006727
22,5,7,3,0,0,1,,4,S,0,S,16,0.754243,0.039244,0.0296
22,6,4,8,0,0,1,,4,S,0,S,17,0.011525,0.792201,0.00913
22,7,5,1,0,0,1,,4,S,0,S,15,0.764908,0.026108,0.01997
22,8,2,3,0,0,1,,1,S,0,S,16,0.037527,0.755176,0.028339
22,9,1,5,0,0,1,,4,S,0,S,14,0.034273,0.75314,0.025812
22,10,3,2,0,0,1,,1,S,0,S,22,0.769487,0.031249,0.024045
22,11,7,1,0,0,1,,6,S,0,S,14,0.771263,0.017559,0.013543
22,12,8,9,0,0,1,,1,S,0,S,23,0.045301,0.758113,0.034343
22,13,2,6,0,0,1,,4,S,0,S,15,0.024202,0.768673,0.018603
22,14,9,6,0,0,1,,3,S,0,S,16,0.758975,0.035627,0.02704
22,15,6,8,0,0,1,,2,S,0,S,18,0.042636,0.753977,0.032147
22,16,6,3,0,0,1,,3,S,0,S,19,0.772918,0.028993,0.022409
22,17,2,7,0,0,1,,5,S,0,S,15,0.029049,0.761745,0.022128
22,18,4,9,0,0,1,,5,S,0,S,17,0.022787,0.776968,0.017705
22,19,6,7,0,0,1,,1,S,0,S,50,0.027871,0.778387,0.021694
22,20,9,2,0,0,1,,7,L,0,S,14,0.778172,0.011016,0.008573
22,21,1,8,0,0,1,,7,L,0,S,14,0.014945,0.777505,0.01162
22,22,8,6,0,0,1,,2,S,0,S,20,0.76146,0.042005,0.031985
22,23,6,5,0,0,0,,1,S,0,S,22,0.018094,0.789953,0.014294
22,24,6,9,0,0,1,,3,S,0,S,19,0.026018,0.775524,0.020177
22,25,2,1,0,0,1,,1,S,0,S,22,0.755741,0.042716,0.032283
22,26,8,2,0,0,1,,6,S,0,S,15,0.775861,0.018234,0.014147
22,27,7,4,0,0,1,,3,S,0,S,15,0.758799,0.03288,0.02495
22,28,4,2,0,0,1,,2,S,0,S,17,0.774373,0.022621,0.017517
22,29,1,3,0,0,1,,2,S,0,S,16,0.014618,0.786623,0.011499
22,30,4,1,0,0,1,,3,S,0,S,16,0.787168,0.01176,0.009257
22,31,8,7,0,0,1,,1,S,0,S,20,0.785678,0.022051,0.017325
22,32,9,1,0,0,1,,8,L,0,S,13,0.751111,0.027759,0.02085
22,33,9,8,0,0,1,,1,S,0,S,18,0.75306,0.0441,0.03321
22,34,5,8,0,0,1,,3,S,0,S,18,0.013977,0.790934,0.011055
22,35,7,8,0,0,1,,1,S,0,S,37,0.044632,0.759054,0.033878
22,36,3,5,0,0,1,,2,S,0,S,16,0.008977,0.793316,0.007122
22,37,2,4,0,0,1,,2,S,0,S,18,0.029135,0.771187,0.022468
22,38,7,9,0,0,0,,2,S,0,S,25,0.757452,0.04435,0.033593
22,39,5,6,0,0,1,,1,S,0,S,22,0.028703,0.777019,0.022303
22,40,9,7,0,0,1,,2,S,0,S,16,0.765489,0.029987,0.022955
22,41,3,7,0,0,1,,4,S,0,S,16,0.031641,0.763281,0.024151
22,42,4,7,0,0,1,,3,S,0,S,20,0.012808,0.794794,0.01018
22,43,9,3,0,0,1,,6,S,0,S,15,0.771082,0.023046,0.01777
22,44,6,2,0,0,1,,4,S,0,S,16,0.780953,0.014608,0.011408
22,45,4,5,0,0,1,,1,S,0,S,18,0.030202,0.771546,0.023303
22,46,5,3,0,0,1,,2,S,0,S,20,0.765781,0.036262,0.027769
22,47,4,3,0,0,1,,1,S,0,S,25,0.754675,0.047513,0.035857
22,48,8,1,0,0,1,,7,L,0,S,14,0.76081,0.027217,0.020707
22,49,5,7,0,0,1,,2,S,0,S,23,0.035671,0.768062,0.027397
22,50,3,6,0,0,1,,3,S,0,S,16,0.025011,0.772441,0.019319
22,51,3,4,0,0,1,,1,S,0,S,22,0.023211,0.783998,0.018197
22,52,6,1,0,0,1,,5,S,0,S,15,0.776833,0.016301,0.012663
22,53,9,4,0,0,1,,5,S,0,S,14,0.756746,0.030402,0.023007
22,54,2,5,0,0,1,,3,S,0,S,15,0.012315,0.784443,0.00966
22,55,1,9,0,0,1,,8,L,0,S,14,0.019607,0.770525,0.015108
22,56,8,3,0,0,1,,5,S,0,S,17,0.774706,0.027273,0.021128
22,57,7,2,0,0,1,,5,S,0,S,15,0.789131,0.006247,0.00493
22,58,1,2,0,0,1,,1,S,0,S,20,0.010884,0.794766,0.00865
22,59,5,9,0,0,1,,4,S,0,S,18,0.029533,0.770319,0.02275
22,60,2,9,0,0,1,,7,L,0,S,14,0.032131,0.752081,0.024165
22,61,7,5,0,0,1,,2,S,0,S,20,0.777073,0.028046,0.021794
22,62,6,4,0,0,1,,2,S,0,S,17,0.780157,0.020594,0.016067
22,63,5,4,0,0,1,,1,S,0,S,17,0.755099,0.040945,0.030917
22,64,1,7,0,0,1,,6,S,0,S,15,0.012767,0.784834,0.01002
22,65,2,8,0,0,1,,6,S,0,S,14,0.026985,0.759767,0.020502
22,66,8,5,0,0,1,,3,S,0,S,23,0.787352,0.023379,0.018407
22,67,7,6,0,0,1,,1,S,0,S,19,0.787729,0.018156,0.014302
22,68,3,1,0,0,1,,2,S,0,S,18,0.762455,0.034869,0.026586
22,69,9,5,0,0,1,,4,S,0,S,17,0.783932,0.018638,0.014611
22,70,5,2,0,0,1,,3,S,0,S,16,0.764697,0.027879,0.021319
22,71,8,4,0,0,1,,4,S,0,S,16,0.790614,0.012667,0.010015
22,72,3,9,0,0,1,,6,S,0,S,15,0.023722,0.769078,0.018244
23,1,4,9,0,0,1,,5,S,0,S,16,0.008143,0.794039,0.006466
23,2,4,8,0,0,1,,4,S,0,S,16,0.032577,0.766272,0.024963
23,3,6,9,0,0,1,,3,S,0,S,17,0.010591,0.792534,0.008393
23,4,8,3,0,0,1,,5,S,0,S,14,0.789571,0.00353,0.002788
23,5,9,5,0,0,1,,4,S,0,S,18,0.782766,0.020731,0.016228
23,6,3,7,0,0,1,,4,S,0,S,17,0.005055,0.796628,0.004027
23,7,2,5,0,0,1,,3,S,0,S,15,0.02981,0.76194,0.022714
23,8,2,7,0,0,1,,5,S,0,S,14,0.031419,0.754049,0.023691
23,9,8,5,0,0,1,,3,S,0,S,15,0.792266,0.004892,0.003876
23,10,6,1,0,0,1,,5,S,0,S,15,0.800198,0.00111,0.000888
23,11,9,7,0,0,1,,2,S,0,S,23,0.785531,0.021677,0.017028
23,12,3,4,0,0,1,,1,S,0,S,20,0.042888,0.758482,0.03253
23,13,3,2,0,0,1,,1,S,0,S,22,0.755581,0.042315,0.031972
23,14,5,8,0,0,1,,3,S,0,S,19,0.038047,0.76521,0.029114
23,15,2,3,0,0,1,,1,S,0,S,17,0.031731,0.766424,0.024319
23,16,4,6,0,0,1,,2,S,0,S,25,0.01943,0.79123,0.015374
23,17,5,6,0,0,0,,1,S,0,S,18,0.754927,0.043153,0.032577
23,18,5,7,0,0,1,,2,S,0,S,24,0.035695,0.766298,0.027353
23,19,9,1,0,0,1,,8,L,0,S,14,0.791444,0.005655,0.004476
23,20,4,1,0,0,1,,3,S,0,S,15,0.770857,0.024875,0.019175
23,21,8,4,0,0,1,,4,S,0,S,14,0.765667,0.024524,0.018778
23,22,9,6,0,0,1,,3,S,0,S,17,0.772977,0.028734,0.022211
23,23,2,8,0,0,1,,6,S,0,S,14,0.01123,0.784998,0.008815
23,24,9,3,0,0,1,,6,S,0,S,16,0.796768,0.006038,0.004811
23,25,8,2,0,0,1,,6,S,0,S,14,0.790101,0.002384,0.001884
23,26,7,1,0,0,1,,6,S,0,S,14,0.767531,0.023413,0.017971
23,27,7,6,0,0,1,,1,S,0,S,19,0.785055,0.021243,0.016677
23,28,1,9,0,0,1,,8,L,0,S,14,0.0054,0.787908,0.004254
23,29,7,2,0,0,1,,5,S,0,S,16,0.754296,0.0377,0.028437
23,30,5,1,0,0,1,,4,S,0,S,14,0.770734,0.020311,0.015655
23,31,3,5,0,0,1,,2,S,0,S,19,0.014769,0.788494,0.011645
23,32,5,9,0,0,1,,4,S,0,S,18,0.017441,0.786061,0.01371
23,33,6,5,0,0,1,,1,S,0,S,24,0.770714,0.032671,0.02518
23,34,4,5,0,0,1,,1,S,0,S,21,0.0403,0.760835,0.030662
23,35,6,8,0,0,1,,2,S,0,S,17,0.046699,0.75018,0.035032
23,36,1,4,0,0,1,,3,S,0,S,16,0.020402,0.7798,0.01591
23,37,1,6,0,0,1,,5,S,0,S,16,0.014235,0.786148,0.011191
23,38,7,3,0,0,1,,4,S,0,S,16,0.75063,0.041412,0.031085
23,39,2,4,0,0,1,,2,S,0,S,16,0.010465,0.794158,0.008311
23,40,6,4,0,0,1,,2,S,0,S,20,0.777241,0.028877,0.022444
23,41,2,6,0,0,1,,4,S,0,S,16,0.004821,0.799834,0.003856
23,42,9,2,0,0,1,,7,L,0,S,16,0.798949,0.003507,0.002802
23,43,6,3,0,0,1,,3,S,0,S,17,0.758674,0.036591,0.02776
23,44,5,3,0,0,1,,2,S,0,S,16,0.758622,0.03448,0.026158
23,45,6,7,0,0,1,,1,S,0,S,20,0.01645,0.787917,0.012961
23,46,7,4,0,0,1,,3,S,0,S,18,0.763894,0.038064,0.029076
23,47,7,8,0,0,1,,1,S,0,S,19,0.018804,0.790195,0.014859
23,48,1,3,0,0,1,,2,S,0,S,18,0.011267,0.792455,0.008928
23,49,8,7,0,0,1,,1,S,0,S,16,0.791367,0.007801,0.006173
23,50,2,1,0,0,1,,1,S,0,S,21,0.794131,0.016562,0.013152
23,51,1,8,0,0,1,,7,L,0,S,14,0.016688,0.776279,0.012954
23,52,4,7,0,0,1,,3,S,0,S,18,0.007943,0.797137,0.006332
23,53,8,9,0,0,0,,1,S,0,S,17,0.757506,0.037986,0.028775
23,54,3,1,0,0,1,,2,S,0,S,16,0.783361,0.016337,0.012798
23,55,7,9,0,0,1,,2,S,0,S,17,0.041532,0.754352,0.03133
23,56,4,3,0,0,1,,1,S,0,S,19,0.76503,0.035481,0.027144
23,57,9,4,0,0,1,,5,S,0,S,17,0.790035,0.016391,0.01295
23,58,3,9,0,0,1,,6,S,0,S,15,0.021507,0.771173,0.016585
23,59,1,5,0,0,1,,4,S,0,S,16,0.00239,0.798892,0.001909
23,60,7,5,0,0,1,,2,S,0,S,20,0.765221,0.036007,0.027553
23,61,8,1,0,0,1,,7,L,0,S,13,0.794727,0,0
23,62,2,9,0,0,1,,7,L,0,S,14,0.000435,0.795982,0.000346
23,63,3,6,0,0,1,,3,S,0,S,20,0.01761,0.788537,0.013886
23,64,5,2,0,0,1,,3,S,0,S,16,0.761916,0.031063,0.023668
23,65,5,4,0,0,1,,1,S,0,S,18,0.778996,0.025337,0.019737
23,66,6,2,0,0,1,,4,S,0,S,17,0.763766,0.031723,0.024229
23,67,4,2,0,0,1,,2,S,0,S,19,0.775476,0.026285,0.020383
23,68,1,2,0,0,1,,1,S,0,S,18,0.019341,0.781196,0.015109
23,69,8,6,0,0,1,,2,S,0,S,14,0.75734,0.029826,0.022589
23,70,3,8,0,0,1,,5,S,0,S,16,0.004467,0.799729,0.003573
23,71,9,8,0,0,0,,1,S,0,S,22,0.050226,0.754967,0.037919
23,72,1,7,0,0,1,,6,S,0,S,15,0.001931,0.795388,0.001536
24,1,8,4,0,0,1,,4,S,0,S,17,0.78727,0.0168,0.013226
24,2,9,6,0,0,1,,3,S,0,S,23,0.79517,0.014362,0.01142
24,3,5,7,0,0,1,,2,S,0,S,14,0.022502,0.765216,0.017219
24,4,3,6,0,0,1,,3,S,0,S,15,0.010509,0.786553,0.008266
24,5,2,9,0,0,1,,7,L,0,S,13,0.020718,0.760913,0.015764
24,6,2,4,0,0,1,,2,S,0,S,19,0.039228,0.758975,0.029773
24,7,2,7,0,0,1,,5,S,0,S,14,0,0.797382,0
24,8,3,2,0,0,1,,1,S,0,S,19,0.761602,0.036454,0.027764
24,9,6,5,0,0,1,,1,S,0,S,15,0.757149,0.033624,0.025458
24,10,1,8,0,0,1,,7,L,0,S,13,0.023639,0.760569,0.017979
24,11,1,4,0,0,1,,3,S,0,S,17,0.016605,0.787209,0.013071
24,12,3,9,0,0,1,,6,S,0,S,13,0.026109,0.754963,0.019711
24,13,6,3,0,0,1,,3,S,0,S,14,0.760463,0.026452,0.020116
24,14,9,1,0,0,1,,8,L,0,S,14,0.800308,0,0
24,15,6,2,0,0,1,,4,S,0,S,14,0.796803,0,0
24,16,6,9,0,0,1,,3,S,0,S,18,0.019234,0.78657,0.015129
24,17,4,2,0,0,1,,2,S,0,S,16,0.756339,0.037096,0.028057
24,18,8,9,0,0,1,,1,S,0,S,15,0.017026,0.780655,0.013291
24,19,7,9,0,0,1,,2,S,0,S,15,0.027741,0.766824,0.021272
24,20,7,1,0,0,1,,6,S,0,S,14,0.76586,0.022122,0.016942
24,21,6,1,0,0,1,,5,S,0,S,13,0.763054,0.019321,0.014743
24,22,9,3,0,0,1,,6,S,0,S,15,0.789093,0.006855,0.005409
24,23,6,7,0,0,1,,1,S,0,S,20,0.012091,0.796483,0.00963
24,24,4,7,0,0,1,,3,S,0,S,14,0.032745,0.753549,0.024675
24,25,6,4,0,0,1,,2,S,0,S,15,0.80161,0.000507,0.000407
24,26,9,8,0,0,0,,1,S,0,S,20,0.040107,0.762058,0.030564
24,27,6,8,0,0,1,,2,S,0,S,25,0.05222,0.751637,0.03925
24,28,4,5,0,0,1,,1,S,0,S,24,0.016245,0.792692,0.012877
24,29,1,3,0,0,1,,2,S,0,S,18,0.014692,0.78863,0.011586
24,30,1,5,0,0,1,,4,S,0,S,16,0.00693,0.794665,0.005507
24,31,8,7,0,0,0,,1,S,0,S,15,0.039436,0.750246,0.029587
24,32,4,9,0,0,1,,5,S,0,S,14,0.016805,0.775802,0.013037
24,33,5,9,0,0,1,,4,S,0,S,14,0.007954,0.785649,0.006249
24,34,2,6,0,0,1,,4,S,0,S,15,0.001729,0.796589,0.001377
24,35,3,4,0,0,1,,1,S,0,S,21,0.017854,0.789232,0.014091
24,36,9,2,0,0,1,,7,L,0,S,14,0.77878,0.011791,0.009183
24,37,3,5,0,0,1,,2,S,0,S,18,0.013152,0.789486,0.010383
24,38,2,3,0,0,1,,1,S,0,S,22,0.014752,0.789102,0.011641
24,39,7,5,0,0,1,,2,S,0,S,18,0.767546,0.03233,0.024814
24,40,7,6,0,0,0,,1,S,0,S,19,0.036071,0.766546,0.02765
24,41,3,8,0,0,1,,5,S,0,S,14,0.0173,0.773796,0.013387
24,42,3,7,0,0,1,,4,S,0,S,14,0.002496,0.790955,0.001974
24,43,7,8,0,0,1,,1,S,0,S,17,0.015406,0.789758,0.012167
24,44,3,1,0,0,1,,2,S,0,S,17,0.763163,0.031502,0.024041
24,45,1,2,0,0,1,,1,S,0,S,22,0.045453,0.755189,0.034325
24,46,8,1,0,0,1,,7,L,0,S,14,0.755737,0.029953,0.022636
24,47,4,6,0,0,1,,2,S,0,S,16,0.023021,0.776323,0.017872
24,48,9,7,0,0,0,,2,S,0,S,18,0.025893,0.774735,0.020061
24,49,8,2,0,0,1,,6,S,0,S,15,0.776165,0.018792,0.014586
24,50,7,3,0,0,1,,4,S,0,S,16,0.781345,0.016875,0.013185
24,51,1,6,0,0,1,,5,S,0,S,14,0.009363,0.785,0.00735
24,52,8,5,0,0,1,,3,S,0,S,19,0.774357,0.028276,0.021896
24,53,5,1,0,0,1,,4,S,0,S,16,0.777169,0.018651,0.014495
24,54,4,8,0,0,1,,4,S,0,S,15,0.016858,0.781335,0.013172
24,55,5,6,0,0,1,,1,S,0,S,16,0.005668,0.796613,0.004515
24,56,7,2,0,0,1,,5,S,0,S,15,0.788447,0.009147,0.007212
24,57,2,8,0,0,1,,6,S,0,S,14,0.010428,0.781525,0.008149
24,58,4,1,0,0,1,,3,S,0,S,15,0.753626,0.035415,0.02669
24,59,9,5,0,0,1,,4,S,0,S,16,0.774427,0.021784,0.01687
24,60,2,1,0,0,1,,1,S,0,S,18,0.776435,0.021602,0.016773
24,61,1,9,0,0,1,,8,L,0,S,13,0.002227,0.788153,0.001756
24,62,7,4,0,0,1,,3,S,0,S,16,0.760075,0.035904,0.02729
24,63,5,4,0,0,1,,1,S,0,S,24,0.788796,0.019672,0.015517
24,64,5,3,0,0,1,,2,S,0,S,20,0.752727,0.043949,0.033081
24,65,4,3,0,0,1,,1,S,0,S,19,0.786865,0.017427,0.013713
24,66,2,5,0,0,1,,3,S,0,S,17,0.02712,0.768442,0.02084
24,67,5,2,0,0,1,,3,S,0,S,17,0.768883,0.028085,0.021594
24,68,8,3,0,0,1,,5,S,0,S,16,0.763098,0.031242,0.02384
24,69,9,4,0,0,1,,5,S,0,S,15,0.776897,0.018566,0.014424
24,70,5,8,0,0,1,,3,S,0,S,15,0.004672,0.795239,0.003715
24,71,1,7,0,0,1,,6,S,0,S,13,0.012058,0.773801,0.00933
24,72,8,6,0,0,0,,2,S,0,S,18,0.037704,0.762943,0.028766
25,1,6,8,0,0,1,,2,S,0,S,16,0.028555,0.770156,0.021992
25,2,8,5,0,0,1,,3,S,0,S,17,0.754983,0.041599,0.031406
25,3,3,2,0,0,1,,1,S,0,S,17,0.79849,0.005412,0.004322
25,4,2,6,0,0,1,,4,S,0,S,15,0.013903,0.781989,0.010872
25,5,8,4,0,0,1,,4,S,0,S,16,0.791349,0.011509,0.009108
25,6,5,6,0,0,1,,1,S,0,S,30,0.03354,0.775402,0.026007
25,7,6,1,0,0,1,,5,S,0,S,14,0.782074,0.011676,0.009132
25,8,2,1,0,0,0,,1,S,0,S,33,0.040774,0.760609,0.031013
25,9,1,9,0,0,1,,8,L,0,S,13,0.020487,0.760298,0.015576
25,10,5,8,0,0,1,,3,S,0,S,15,0.00966,0.789644,0.007628
25,11,4,9,0,0,1,,5,S,0,S,17,0.024602,0.772395,0.019003
25,12,5,7,0,0,1,,2,S,0,S,15,0.027062,0.766768,0.02075
25,13,6,7,0,0,1,,1,S,0,S,17,0.021386,0.781502,0.016713
25,14,1,3,0,0,1,,2,S,0,S,16,0.02801,0.770204,0.021574
25,15,2,7,0,0,1,,5,S,0,S,13,0.012356,0.771268,0.00953
25,16,4,5,0,0,1,,1,S,0,S,26,0.041604,0.762995,0.031744
25,17,2,3,0,0,1,,1,S,0,S,16,0.007815,0.793871,0.006204
25,18,1,2,0,0,1,,1,S,0,S,18,0.03243,0.766137,0.024846
25,19,1,6,0,0,1,,5,S,0,S,15,0.029001,0.764548,0.022172
25,20,4,2,0,0,1,,2,S,0,S,15,0.758834,0.030836,0.023399
25,21,3,6,0,0,0,,3,S,0,S,23,0.774875,0.032011,0.024805
25,22,4,1,0,0,1,,3,S,0,S,14,0.776977,0.013692,0.010639
25,23,1,5,0,0,1,,4,S,0,S,14,0.020375,0.770694,0.015703
25,24,3,5,0,0,1,,2,S,0,S,18,0.044944,0.753707,0.033875
25,25,5,3,0,0,1,,2,S,0,S,20,0.790891,0.018796,0.014865
25,26,9,8,0,0,1,,1,S,0,S,26,0.78716,0.019526,0.01537
25,27,8,7,0,0,0,,1,S,0,S,25,0.037575,0.766103,0.028787
25,28,3,4,0,0,1,,1,S,0,S,31,0.041921,0.765193,0.032078
25,29,1,7,0,0,1,,6,S,0,S,13,0.019605,0.763482,0.014968
25,30,3,9,0,0,1,,6,S,0,S,16,0.006387,0.793706,0.005069
25,31,9,2,0,0,1,,7,L,0,S,14,0.793844,0,0
25,32,4,6,0,0,0,,2,S,0,S,18,0.774361,0.027817,0.02154
25,33,4,8,0,0,1,,4,S,0,S,16,0.030074,0.765503,0.023022
25,34,5,2,0,0,1,,3,S,0,S,17,0.774879,0.024916,0.019307
25,35,9,1,0,0,1,,8,L,0,S,13,0.783308,0.002742,0.002148
25,36,7,2,0,0,1,,5,S,0,S,15,0.794595,0.003881,0.003084
25,37,1,4,0,0,1,,3,S,0,S,15,0.016451,0.78175,0.012861
25,38,8,9,0,0,1,,1,S,0,S,25,0.033986,0.768088,0.026104
25,39,6,3,0,0,1,,3,S,0,S,16,0.759992,0.037733,0.028677
25,40,8,6,0,0,1,,2,S,0,S,15,0.756273,0.035114,0.026555
25,41,2,9,0,0,1,,7,L,0,S,13,0.013255,0.768086,0.010181
25,42,8,1,0,0,1,,7,L,0,S,13,0.769004,0.014907,0.011463
25,43,6,2,0,0,1,,4,S,0,S,15,0.764995,0.028128,0.021518
25,44,6,5,0,0,0,,1,S,0,S,27,0.017932,0.795456,0.014264
25,45,6,9,0,0,1,,3,S,0,S,17,0.022887,0.777338,0.017791
25,46,7,5,0,0,1,,2,S,0,S,20,0.762058,0.040892,0.031162
25,47,9,6,0,0,1,,3,S,0,S,15,0.788898,0.008195,0.006465
25,48,9,7,0,0,1,,2,S,0,S,21,0.789483,0.015648,0.012354
25,49,2,5,0,0,1,,3,S,0,S,14,0.010176,0.782066,0.007958
25,50,7,8,0,0,1,,1,S,0,S,17,0.041773,0.754642,0.031523
25,51,7,6,0,0,1,,1,S,0,S,16,0.751422,0.042739,0.032115
25,52,7,3,0,0,1,,4,S,0,S,15,0.75294,0.03886,0.029259
25,53,5,1,0,0,1,,4,S,0,S,15,0.78224,0.014737,0.011528
25,54,7,1,0,0,1,,6,S,0,S,14,0.800869,0,0
25,55,7,4,0,0,1,,3,S,0,S,17,0.777365,0.025566,0.019874
25,56,4,7,0,0,1,,3,S,0,S,17,0.023036,0.776677,0.017892
25,57,8,2,0,0,1,,6,S,0,S,14,0.77406,0.015385,0.011909
25,58,5,4,0,0,0,,1,S,0,S,22,0.039723,0.767103,0.030472
25,59,4,3,0,0,1,,1,S,0,S,16,0.752896,0.04113,0.030967
25,60,8,3,0,0,1,,5,S,0,S,15,0.793955,0.006141,0.004876
25,61,2,8,0,0,1,,6,S,0,S,13,0.004104,0.782713,0.003212
25,62,3,1,0,0,1,,2,S,0,S,15,0.793973,0.00483,0.003835
25,63,9,4,0,0,1,,5,S,0,S,15,0.777527,0.017909,0.013925
25,64,3,7,0,0,1,,4,S,0,S,16,0.004952,0.797688,0.00395
25,65,7,9,0,0,1,,2,S,0,S,19,0.017256,0.786363,0.013569
25,66,6,4,0,0,1,,2,S,0,S,19,0.790699,0.01922,0.015197
25,67,9,3,0,0,1,,6,S,0,S,14,0.768057,0.020939,0.016082
25,68,3,8,0,0,1,,5,S,0,S,15,0.021701,0.773252,0.016781
25,69,5,9,0,0,1,,4,S,0,S,15,0.028307,0.762967,0.021597
25,70,9,5,0,0,1,,4,S,0,S,16,0.765725,0.02924,0.022389
25,71,2,4,0,0,1,,2,S,0,S,15,0.002942,0.797115,0.002345
25,72,1,8,0,0,1,,7,L,0,S,13,0.010739,0.775713,0.00833
26,1,5,6,0,0,1,,1,S,0,S,18,0.015376,0.789137,0.012134
26,2,9,8,0,0,1,,1,S,0,S,26,0.775786,0.031305,0.024286
26,3,9,7,0,0,1,,2,S,0,S,19,0.760138,0.04182,0.031789
26,4,5,8,0,0,1,,3,S,0,S,20,0.022031,0.78189,0.017226
26,5,6,7,0,0,1,,1,S,0,S,22,0.032878,0.768834,0.025277
26,6,7,2,0,0,1,,5,S,0,S,14,0.77765,0.010371,0.008065
26,7,1,5,0,0,1,,4,S,0,S,15,0.002816,0.795161,0.002239
26,8,9,2,0,0,1,,7,L,0,S,14,0.756133,0.029245,0.022113
26,9,6,9,0,0,1,,3,S,0,S,16,0.02171,0.775917,0.016845
26,10,1,4,0,0,1,,3,S,0,S,15,0.032354,0.756858,0.024487
26,11,9,4,0,0,1,,5,S,0,S,16,0.768863,0.027595,0.021217
26,12,4,2,0,0,1,,2,S,0,S,19,0.792995,0.010676,0.008466
26,13,3,4,0,0,1,,1,S,0,S,18,0.020646,0.777952,0.016062
26,14,4,9,0,0,1,,5,S,0,S,14,0.024902,0.766048,0.019076
26,15,7,6,0,0,1,,1,S,0,S,23,0.760793,0.040965,0.031166
26,16,4,6,0,0,1,,2,S,0,S,15,0.010421,0.787706,0.008209
26,17,4,5,0,0,1,,1,S,0,S,17,0.040453,0.753823,0.030494
26,18,6,8,0,0,1,,2,S,0,S,19,0.014553,0.787502,0.01146
26,19,8,4,0,0,1,,4,S,0,S,16,0.783022,0.013707,0.010733
26,20,5,7,0,0,1,,2,S,0,S,29,0.031628,0.774854,0.024507
26,21,6,1,0,0,1,,5,S,0,S,14,0.766488,0.019911,0.015262
26,22,4,8,0,0,1,,4,S,0,S,15,0.035917,0.75344,0.027061
26,23,3,9,0,0,1,,6,S,0,S,14,0.008897,0.784269,0.006978
26,24,7,3,0,0,1,,4,S,0,S,15,0.800951,0,0
26,25,8,5,0,0,1,,3,S,0,S,17,0.772814,0.024033,0.018573
26,26,5,3,0,0,1,,2,S,0,S,16,0.766907,0.029169,0.02237
26,27,7,9,0,0,1,,2,S,0,S,22,0.030062,0.776254,0.023336
26,28,4,7,0,0,1,,3,S,0,S,16,0.03238,0.763491,0.024721
26,29,2,4,0,0,1,,2,S,0,S,17,0.035047,0.755723,0.026486
26,30,3,1,0,0,1,,2,S,0,S,17,0.793808,0.00755,0.005994
26,31,3,2,0,0,1,,1,S,0,S,22,0.77721,0.022909,0.017805
26,32,8,1,0,0,1,,7,L,0,S,13,0.761119,0.019951,0.015185
26,33,1,9,0,0,1,,8,L,0,S,13,0.010693,0.77755,0.008315
26,34,5,4,0,0,1,,1,S,0,S,18,0.783867,0.017648,0.013834
26,35,2,5,0,0,1,,3,S,0,S,16,0.021108,0.771171,0.016278
26,36,4,1,0,0,1,,3,S,0,S,16,0.795507,0.006268,0.004986
26,37,8,6,0,0,0,,2,S,0,S,25,0.021712,0.78521,0.017048
26,38,6,5,0,0,1,,1,S,0,S,24,0.768613,0.03177,0.024419
26,39,8,2,0,0,1,,6,S,0,S,14,0.762198,0.021998,0.016767
26,40,8,7,0,0,1,,1,S,0,S,18,0.757804,0.039321,0.029797
26,41,7,4,0,0,1,,3,S,0,S,15,0.758667,0.029963,0.022732
26,42,6,3,0,0,1,,3,S,0,S,17,0.784087,0.01585,0.012428
26,43,1,8,0,0,1,,7,L,0,S,14,0.002801,0.791063,0.002216
26,44,9,6,0,0,0,,3,S,0,S,21,0.025611,0.782466,0.020039
26,45,6,2,0,0,1,,4,S,0,S,16,0.792634,0.003818,0.003026
26,46,3,7,0,0,1,,4,S,0,S,16,0.002075,0.799372,0.001659
26,47,9,5,0,0,1,,4,S,0,S,18,0.795959,0.01019,0.008111
26,48,7,1,0,0,1,,6,S,0,S,13,0.772541,0.011479,0.008868
26,49,2,1,0,0,1,,1,S,0,S,17,0.765946,0.028072,0.021502
26,50,2,7,0,0,1,,5,S,0,S,15,0.027633,0.761296,0.021037
26,51,1,6,0,0,1,,5,S,0,S,13,0.024156,0.757937,0.018309
26,52,4,3,0,0,1,,1,S,0,S,26,0.77512,0.031747,0.024608
26,53,2,3,0,0,1,,1,S,0,S,20,0.011741,0.79244,0.009304
26,54,8,3,0,0,1,,5,S,0,S,15,0.781792,0.01374,0.010742
26,55,7,8,0,0,0,,1,S,0,S,19,0.763372,0.035017,0.026731
26,56,3,5,0,0,1,,2,S,0,S,16,0.034539,0.755678,0.0261
