ANN,trial,N1,N2,P1,P2,Succ.,,Ndist,Ndist,Pdist,Pdist,rt,a1,a2,x_acc
1,1,6,2,0,0,1,,4,S,0,S,15,0.778876,0.017762,0.013835
1,2,8,1,0,0,1,,7,L,0,S,13,0.793447,0,0
1,3,3,4,0,0,1,,1,S,0,S,16,0.019378,0.780952,0.015133
1,4,4,8,0,0,1,,4,S,0,S,14,0.006139,0.78472,0.004817
1,5,2,4,0,0,1,,2,S,0,S,19,0.013446,0.795062,0.01069
1,6,3,6,0,0,1,,3,S,0,S,13,0.017954,0.765598,0.013746
1,7,6,1,0,0,1,,5,S,0,S,14,0.800621,0,0
1,8,6,7,0,0,1,,1,S,0,S,18,0.020456,0.781151,0.015979
1,9,6,5,0,0,1,,1,S,0,S,21,0.761274,0.039051,0.029729
1,10,7,6,0,0,0,,1,S,0,S,17,0.009546,0.794131,0.007581
1,11,5,6,0,0,1,,1,S,0,S,16,0.003694,0.799697,0.002954
1,12,7,3,0,0,1,,4,S,0,S,16,0.788519,0.010611,0.008367
1,13,7,1,0,0,1,,6,S,0,S,13,0.774715,0.010755,0.008332
1,14,6,4,0,0,1,,2,S,0,S,20,0.768347,0.035868,0.027559
1,15,7,4,0,0,1,,3,S,0,S,17,0.779592,0.022626,0.017639
1,16,1,2,0,0,1,,1,S,0,S,20,0.049098,0.751466,0.036895
1,17,4,6,0,0,1,,2,S,0,S,14,0.017534,0.771523,0.013528
1,18,5,4,0,0,1,,1,S,0,S,19,0.782484,0.023979,0.018763
1,19,2,1,0,0,1,,1,S,0,S,15,0.794921,0.004004,0.003183
1,20,8,4,0,0,1,,4,S,0,S,16,0.793872,0.008777,0.006968
1,21,1,7,0,0,1,,6,S,0,S,14,0.000413,0.794284,0.000328
1,22,4,1,0,0,1,,3,S,0,S,15,0.799991,0,0
1,23,4,2,0,0,1,,2,S,0,S,17,0.781623,0.019415,0.015175
1,24,9,4,0,0,1,,5,S,0,S,14,0.79153,0.005132,0.004063
1,25,3,8,0,0,1,,5,S,0,S,13,0.009591,0.775063,0.007433
1,26,7,8,0,0,1,,1,S,0,S,16,0.019189,0.777414,0.014918
1,27,8,5,0,0,1,,3,S,0,S,16,0.777049,0.019179,0.014903
1,28,9,3,0,0,1,,6,S,0,S,13,0.757996,0.023288,0.017652
1,29,1,3,0,0,1,,2,S,0,S,16,0.025991,0.769823,0.020008
1,30,2,6,0,0,1,,4,S,0,S,14,0.011441,0.780901,0.008934
1,31,1,6,0,0,1,,5,S,0,S,13,0.00286,0.786254,0.002249
1,32,9,1,0,0,1,,8,L,0,S,12,0.780242,0.000912,0.000712
1,33,7,9,0,0,1,,2,S,0,S,19,0.020485,0.78324,0.016044
1,34,4,9,0,0,1,,5,S,0,S,15,0.01031,0.785079,0.008094
1,35,5,2,0,0,1,,3,S,0,S,15,0.793044,0.007016,0.005564
1,36,4,3,0,0,1,,1,S,0,S,28,0.777889,0.026153,0.020344
1,37,7,5,0,0,1,,2,S,0,S,17,0.75655,0.037798,0.028596
1,38,1,4,0,0,1,,3,S,0,S,15,0.019134,0.778332,0.014893
1,39,9,7,0,0,1,,2,S,0,S,15,0.756467,0.033533,0.025367
1,40,8,6,0,0,0,,2,S,0,S,19,0.012755,0.793117,0.010116
1,41,9,8,0,0,1,,1,S,0,S,20,0.777376,0.02604,0.020243
1,42,8,9,0,0,1,,1,S,0,S,26,0.041238,0.760765,0.031373
1,43,8,3,0,0,1,,5,S,0,S,15,0.783047,0.01176,0.009208
1,44,5,8,0,0,1,,3,S,0,S,15,0.020766,0.772553,0.016043
1,45,8,7,0,0,1,,1,S,0,S,20,0.750272,0.046346,0.034772
1,46,7,2,0,0,1,,5,S,0,S,14,0.770523,0.020065,0.015461
1,47,3,9,0,0,1,,6,S,0,S,14,0.002275,0.791976,0.001801
1,48,2,8,0,0,1,,6,S,0,S,14,0.000613,0.793334,0.000486
1,49,8,2,0,0,1,,6,S,0,S,14,0.797931,0,0
1,50,2,9,0,0,1,,7,L,0,S,15,0.002644,0.796393,0.002106
1,51,2,5,0,0,1,,3,S,0,S,18,0.037358,0.7596,0.028377
1,52,5,9,0,0,1,,4,S,0,S,17,0.020013,0.781114,0.015632
1,53,6,3,0,0,1,,3,S,0,S,17,0.754823,0.039556,0.029858
1,54,2,7,0,0,1,,5,S,0,S,15,0.029704,0.760647,0.022594
1,55,1,5,0,0,1,,4,S,0,S,15,0.016316,0.778434,0.012701
1,56,6,8,0,0,1,,2,S,0,S,15,0.010512,0.785317,0.008256
1,57,1,9,0,0,1,,8,L,0,S,13,0.020266,0.76272,0.015458
1,58,1,8,0,0,1,,7,L,0,S,13,0,0.794219,0
1,59,9,2,0,0,1,,7,L,0,S,13,0.801491,0,0
1,60,3,2,0,0,1,,1,S,0,S,23,0.752097,0.049585,0.037293
1,61,5,1,0,0,1,,4,S,0,S,13,0.756119,0.025409,0.019212
1,62,3,5,0,0,1,,2,S,0,S,16,0.015154,0.782715,0.011861
1,63,3,1,0,0,1,,2,S,0,S,16,0.773963,0.023059,0.017847
1,64,4,7,0,0,1,,3,S,0,S,16,0.003467,0.796377,0.002761
1,65,2,3,0,0,1,,1,S,0,S,26,0.033695,0.769987,0.025945
1,66,9,6,0,0,1,,3,S,0,S,18,0.771725,0.02985,0.023036
1,67,5,3,0,0,1,,2,S,0,S,17,0.783698,0.017196,0.013476
1,68,9,5,0,0,1,,4,S,0,S,14,0.780698,0.010933,0.008535
1,69,5,7,0,0,1,,2,S,0,S,19,0.014982,0.789996,0.011836
1,70,3,7,0,0,1,,4,S,0,S,14,0.021278,0.766341,0.016306
1,71,6,9,0,0,1,,3,S,0,S,16,0.037759,0.755211,0.028516
1,72,4,5,0,0,1,,1,S,0,S,19,0.026615,0.773093,0.020576
2,1,9,7,0,0,1,,2,S,0,S,29,0.774656,0.0321,0.024866
2,2,9,5,0,0,1,,4,S,0,S,16,0.778552,0.021596,0.016813
2,3,6,7,0,0,1,,1,S,0,S,19,0.036708,0.763923,0.028042
2,4,4,7,0,0,1,,3,S,0,S,15,0.038867,0.751542,0.02921
2,5,2,5,0,0,1,,3,S,0,S,16,0.04052,0.752955,0.030509
2,6,2,6,0,0,1,,4,S,0,S,15,0.000557,0.800007,0.000446
2,7,5,9,0,0,1,,4,S,0,S,14,0.008322,0.780245,0.006493
2,8,5,7,0,0,1,,2,S,0,S,17,0.041158,0.750396,0.030885
2,9,8,6,0,0,1,,2,S,0,S,16,0.760271,0.032925,0.025032
2,10,6,8,0,0,1,,2,S,0,S,21,0.019898,0.788293,0.015685
2,11,8,4,0,0,1,,4,S,0,S,15,0.790509,0.003855,0.003047
2,12,8,9,0,0,1,,1,S,0,S,17,0.029197,0.765067,0.022338
2,13,5,3,0,0,1,,2,S,0,S,17,0.779232,0.016459,0.012826
2,14,5,2,0,0,1,,3,S,0,S,16,0.766059,0.027097,0.020758
2,15,5,1,0,0,1,,4,S,0,S,15,0.787242,0.005966,0.004696
2,16,2,3,0,0,1,,1,S,0,S,20,0.015633,0.787659,0.012313
2,17,1,9,0,0,1,,8,L,0,S,12,0.006462,0.768831,0.004968
2,18,6,3,0,0,1,,3,S,0,S,16,0.787023,0.011301,0.008894
2,19,4,8,0,0,1,,4,S,0,S,16,0.016537,0.785111,0.012984
2,20,2,9,0,0,1,,7,L,0,S,13,0,0.798921,0
2,21,9,2,0,0,1,,7,L,0,S,14,0.754622,0.032303,0.024376
2,22,9,8,0,0,1,,1,S,0,S,22,0.774428,0.03193,0.024728
2,23,9,3,0,0,1,,6,S,0,S,15,0.784946,0.010469,0.008217
2,24,3,7,0,0,1,,4,S,0,S,15,0.012362,0.782992,0.00968
2,25,4,5,0,0,1,,1,S,0,S,21,0.037507,0.767998,0.028805
2,26,1,3,0,0,1,,2,S,0,S,16,0.025016,0.766385,0.019172
2,27,6,2,0,0,1,,4,S,0,S,15,0.764342,0.028468,0.021759
2,28,7,8,0,0,1,,1,S,0,S,28,0.04234,0.764141,0.032354
2,29,9,6,0,0,1,,3,S,0,S,21,0.791691,0.017659,0.01398
2,30,8,5,0,0,1,,3,S,0,S,14,0.752004,0.032637,0.024543
2,31,9,4,0,0,1,,5,S,0,S,16,0.760465,0.032687,0.024858
2,32,7,2,0,0,1,,5,S,0,S,15,0.790149,0.009334,0.007375
2,33,6,4,0,0,1,,2,S,0,S,18,0.770348,0.028469,0.021931
2,34,5,8,0,0,1,,3,S,0,S,18,0.032566,0.764731,0.024904
2,35,8,7,0,0,1,,1,S,0,S,17,0.764706,0.030588,0.023391
2,36,6,1,0,0,1,,5,S,0,S,14,0.769115,0.019057,0.014657
2,37,2,8,0,0,1,,6,S,0,S,14,0.031118,0.755479,0.023509
2,38,7,6,0,0,1,,1,S,0,S,26,0.788811,0.022377,0.017651
2,39,4,9,0,0,1,,5,S,0,S,13,0.016135,0.767986,0.012392
2,40,9,1,0,0,1,,8,L,0,S,14,0.79855,0,0
2,41,1,5,0,0,1,,4,S,0,S,15,0.00757,0.789416,0.005976
2,42,2,1,0,0,1,,1,S,0,S,19,0.780911,0.020602,0.016088
2,43,1,4,0,0,1,,3,S,0,S,15,0.005953,0.787793,0.00469
2,44,3,2,0,0,1,,1,S,0,S,22,0.774661,0.029266,0.022671
2,45,7,9,0,0,1,,2,S,0,S,15,0.001245,0.798806,0.000995
2,46,2,7,0,0,1,,5,S,0,S,14,0.022575,0.765498,0.017281
2,47,3,9,0,0,1,,6,S,0,S,13,0.004502,0.780964,0.003516
2,48,3,4,0,0,1,,1,S,0,S,18,0.023983,0.774244,0.018569
2,49,7,5,0,0,1,,2,S,0,S,17,0.797706,0.00933,0.007443
2,50,1,8,0,0,1,,7,L,0,S,13,0.02838,0.75033,0.021295
2,51,4,1,0,0,1,,3,S,0,S,16,0.787425,0.01222,0.009622
2,52,8,3,0,0,1,,5,S,0,S,14,0.786057,0.003529,0.002774
2,53,3,5,0,0,1,,2,S,0,S,18,0.033017,0.766929,0.025322
2,54,7,3,0,0,1,,4,S,0,S,15,0.766573,0.025414,0.019482
2,55,3,1,0,0,1,,2,S,0,S,17,0.777661,0.019852,0.015438
2,56,7,4,0,0,1,,3,S,0,S,17,0.777036,0.022625,0.01758
2,57,5,6,0,0,1,,1,S,0,S,19,0.016449,0.78677,0.012941
2,58,2,4,0,0,1,,2,S,0,S,16,0.035841,0.754928,0.027057
2,59,8,2,0,0,1,,6,S,0,S,14,0.801944,0,0
2,60,8,1,0,0,1,,7,L,0,S,13,0.780544,0.003458,0.002699
2,61,3,6,0,0,1,,3,S,0,S,15,0.03027,0.761237,0.023043
2,62,4,2,0,0,1,,2,S,0,S,18,0.760923,0.039042,0.029708
2,63,6,9,0,0,1,,3,S,0,S,14,0.023578,0.763882,0.01801
2,64,4,3,0,0,1,,1,S,0,S,20,0.781997,0.021928,0.017147
2,65,3,8,0,0,1,,5,S,0,S,15,0.023136,0.770262,0.017821
2,66,1,7,0,0,1,,6,S,0,S,13,0.022411,0.757178,0.016969
2,67,1,2,0,0,1,,1,S,0,S,17,0.007449,0.79451,0.005919
2,68,1,6,0,0,1,,5,S,0,S,14,0,0.798894,0
2,69,5,4,0,0,1,,1,S,0,S,21,0.775283,0.024063,0.018656
2,70,4,6,0,0,1,,2,S,0,S,16,0.025958,0.773323,0.020074
2,71,6,5,0,0,1,,1,S,0,S,18,0.796408,0.010946,0.008718
2,72,7,1,0,0,1,,6,S,0,S,14,0.787404,0.005943,0.004679
3,1,4,6,0,0,1,,2,S,0,S,17,0.023292,0.773934,0.018026
3,2,6,4,0,0,1,,2,S,0,S,19,0.781076,0.0237,0.018512
3,3,1,4,0,0,1,,3,S,0,S,14,0.016778,0.770894,0.012934
3,4,8,4,0,0,1,,4,S,0,S,17,0.788297,0.014064,0.011087
3,5,5,9,0,0,1,,4,S,0,S,17,0.008893,0.797777,0.007095
3,6,1,8,0,0,1,,7,L,0,S,13,0.022958,0.755294,0.01734
3,7,8,6,0,0,1,,2,S,0,S,18,0.788735,0.013247,0.010448
3,8,1,7,0,0,1,,6,S,0,S,13,0.021614,0.754302,0.016303
3,9,7,4,0,0,1,,3,S,0,S,19,0.769731,0.032329,0.024885
3,10,2,3,0,0,1,,1,S,0,S,21,0.022376,0.783799,0.017538
3,11,4,5,0,0,1,,1,S,0,S,16,0.037859,0.756456,0.028639
3,12,7,6,0,0,1,,1,S,0,S,21,0.750797,0.046822,0.035153
3,13,5,4,0,0,1,,1,S,0,S,24,0.772772,0.035178,0.027185
3,14,3,7,0,0,1,,4,S,0,S,16,0.012068,0.781519,0.009432
3,15,9,1,0,0,1,,8,L,0,S,13,0.780899,0.004926,0.003847
3,16,5,8,0,0,1,,3,S,0,S,18,0.037841,0.762931,0.02887
3,17,3,8,0,0,1,,5,S,0,S,16,0.016203,0.779244,0.012626
3,18,6,7,0,0,1,,1,S,0,S,21,0.033764,0.766153,0.025868
3,19,6,8,0,0,1,,2,S,0,S,22,0.034726,0.768941,0.026702
3,20,3,9,0,0,1,,6,S,0,S,15,0.019011,0.772577,0.014687
3,21,2,5,0,0,1,,3,S,0,S,15,0.018238,0.780052,0.014226
3,22,1,6,0,0,1,,5,S,0,S,14,0.007655,0.780467,0.005974
3,23,9,2,0,0,1,,7,L,0,S,13,0.755118,0.021687,0.016376
3,24,4,3,0,0,1,,1,S,0,S,21,0.792231,0.013556,0.010739
3,25,6,9,0,0,1,,3,S,0,S,18,0.037247,0.761933,0.028379
3,26,3,2,0,0,1,,1,S,0,S,17,0.752233,0.037598,0.028282
3,27,9,4,0,0,1,,5,S,0,S,15,0.765342,0.024957,0.0191
3,28,1,3,0,0,1,,2,S,0,S,16,0.014293,0.780544,0.011156
3,29,9,8,0,0,1,,1,S,0,S,17,0.775757,0.021037,0.016319
3,30,6,3,0,0,1,,3,S,0,S,15,0.756329,0.033417,0.025274
3,31,4,8,0,0,1,,4,S,0,S,16,0.007827,0.792455,0.006202
3,32,5,3,0,0,1,,2,S,0,S,16,0.764073,0.032116,0.024539
3,33,9,3,0,0,1,,6,S,0,S,14,0.785391,0.00444,0.003487
3,34,4,7,0,0,1,,3,S,0,S,16,0.003987,0.79439,0.003167
3,35,3,1,0,0,1,,2,S,0,S,16,0.777009,0.019251,0.014958
3,36,1,2,0,0,1,,1,S,0,S,17,0.031987,0.759236,0.024286
3,37,7,5,0,0,1,,2,S,0,S,24,0.757486,0.046203,0.034998
3,38,7,9,0,0,1,,2,S,0,S,18,0.031581,0.768585,0.024272
3,39,8,1,0,0,1,,7,L,0,S,13,0.753082,0.027745,0.020894
3,40,7,3,0,0,1,,4,S,0,S,15,0.752111,0.036301,0.027302
3,41,2,9,0,0,1,,7,L,0,S,14,0.012674,0.78058,0.009893
3,42,5,1,0,0,1,,4,S,0,S,14,0.75743,0.032181,0.024375
3,43,9,5,0,0,1,,4,S,0,S,16,0.778075,0.018918,0.01472
3,44,2,1,0,0,1,,1,S,0,S,18,0.769483,0.03308,0.025454
3,45,8,2,0,0,1,,6,S,0,S,14,0.775739,0.012791,0.009922
3,46,1,9,0,0,1,,8,L,0,S,13,0.008215,0.775386,0.00637
3,47,2,4,0,0,1,,2,S,0,S,16,0.013078,0.78909,0.010319
3,48,9,6,0,0,1,,3,S,0,S,16,0.786551,0.0093,0.007315
3,49,6,5,0,0,1,,1,S,0,S,23,0.756709,0.046939,0.035519
3,50,7,2,0,0,1,,5,S,0,S,15,0.792244,0.004231,0.003352
3,51,5,2,0,0,1,,3,S,0,S,15,0.765503,0.027015,0.02068
3,52,6,1,0,0,1,,5,S,0,S,14,0.781187,0.012259,0.009577
3,53,3,6,0,0,1,,3,S,0,S,17,0.035613,0.755516,0.026906
3,54,4,2,0,0,1,,2,S,0,S,18,0.792876,0.009323,0.007392
3,55,7,1,0,0,1,,6,S,0,S,14,0.778409,0.014059,0.010943
3,56,4,9,0,0,1,,5,S,0,S,15,0.012427,0.783535,0.009737
3,57,3,5,0,0,1,,2,S,0,S,17,0.0122,0.789297,0.009629
3,58,2,7,0,0,1,,5,S,0,S,14,0.032449,0.751453,0.024384
3,59,2,8,0,0,1,,6,S,0,S,14,0.035103,0.750927,0.02636
3,60,8,3,0,0,1,,5,S,0,S,15,0.796556,0.001244,0.000991
3,61,4,1,0,0,1,,3,S,0,S,16,0.773938,0.023667,0.018317
3,62,8,5,0,0,1,,3,S,0,S,18,0.765025,0.035227,0.026949
3,63,9,7,0,0,1,,2,S,0,S,17,0.754831,0.034918,0.026357
3,64,5,6,0,0,1,,1,S,0,S,24,0.019591,0.78934,0.015464
3,65,8,7,0,0,1,,1,S,0,S,22,0.765475,0.033708,0.025803
3,66,8,9,0,0,1,,1,S,0,S,24,0.02356,0.782937,0.018446
3,67,7,8,0,0,1,,1,S,0,S,22,0.017067,0.790423,0.01349
3,68,3,4,0,0,1,,1,S,0,S,18,0.034736,0.761443,0.02645
3,69,6,2,0,0,1,,4,S,0,S,15,0.795539,0.002022,0.001608
3,70,2,6,0,0,1,,4,S,0,S,15,0.032062,0.758542,0.02432
3,71,1,5,0,0,1,,4,S,0,S,14,0,0.795295,0
3,72,5,7,0,0,1,,2,S,0,S,18,0.026025,0.774661,0.020161
4,1,5,9,0,0,1,,4,S,0,S,15,0.02632,0.762667,0.020073
4,2,9,2,0,0,1,,7,L,0,S,14,0.750871,0.036488,0.027398
4,3,6,7,0,0,1,,1,S,0,S,40,0.034323,0.771452,0.026479
4,4,1,7,0,0,1,,6,S,0,S,13,0.010828,0.774851,0.00839
4,5,5,8,0,0,1,,3,S,0,S,17,0.022464,0.779063,0.017501
4,6,5,3,0,0,1,,2,S,0,S,16,0.779613,0.014657,0.011427
4,7,8,5,0,0,1,,3,S,0,S,19,0.751378,0.04717,0.035442
4,8,4,5,0,0,1,,1,S,0,S,17,0.014663,0.788684,0.011565
4,9,7,8,0,0,1,,1,S,0,S,22,0.017296,0.788942,0.013646
4,10,7,1,0,0,1,,6,S,0,S,13,0.751422,0.025104,0.018864
4,11,9,3,0,0,1,,6,S,0,S,14,0.766786,0.020786,0.015938
4,12,3,6,0,0,1,,3,S,0,S,18,0.038776,0.759838,0.029464
4,13,8,7,0,0,1,,1,S,0,S,40,0.751107,0.049823,0.037422
4,14,1,6,0,0,1,,5,S,0,S,13,0.025881,0.755828,0.019561
4,15,1,8,0,0,1,,7,L,0,S,13,0,0.797238,0
4,16,2,3,0,0,1,,1,S,0,S,22,0.020612,0.78094,0.016097
4,17,2,9,0,0,1,,7,L,0,S,13,0.016661,0.764249,0.012733
4,18,7,4,0,0,1,,3,S,0,S,17,0.790333,0.010942,0.008648
4,19,4,1,0,0,1,,3,S,0,S,16,0.798408,0.003091,0.002468
4,20,2,5,0,0,1,,3,S,0,S,15,0.021857,0.772337,0.016881
4,21,3,7,0,0,1,,4,S,0,S,17,0.010027,0.793088,0.007953
4,22,1,2,0,0,1,,1,S,0,S,15,0.008277,0.790441,0.006542
4,23,3,4,0,0,1,,1,S,0,S,22,0.031513,0.774993,0.024422
4,24,6,9,0,0,1,,3,S,0,S,16,0.030519,0.762926,0.023284
4,25,6,4,0,0,1,,2,S,0,S,17,0.766854,0.033218,0.025473
4,26,2,7,0,0,1,,5,S,0,S,14,0.032381,0.752003,0.02435
4,27,4,6,0,0,1,,2,S,0,S,17,0.01615,0.786084,0.012695
4,28,8,4,0,0,1,,4,S,0,S,17,0.765271,0.033771,0.025844
4,29,8,9,0,0,1,,1,S,0,S,16,0.031543,0.76074,0.023996
4,30,4,2,0,0,1,,2,S,0,S,24,0.795522,0.0143,0.011376
4,31,8,6,0,0,1,,2,S,0,S,19,0.75161,0.046364,0.034848
4,32,6,8,0,0,1,,2,S,0,S,19,0.039674,0.763173,0.030278
4,33,6,3,0,0,1,,3,S,0,S,15,0.780864,0.012415,0.009694
4,34,7,5,0,0,1,,2,S,0,S,18,0.755956,0.03905,0.02952
4,35,5,4,0,0,1,,1,S,0,S,20,0.768708,0.034132,0.026238
4,36,1,3,0,0,1,,2,S,0,S,15,0.035672,0.750478,0.026771
4,37,5,7,0,0,1,,2,S,0,S,19,0.03352,0.765672,0.025666
4,38,8,3,0,0,1,,5,S,0,S,15,0.77939,0.01292,0.01007
4,39,6,2,0,0,1,,4,S,0,S,15,0.759235,0.032791,0.024896
4,40,9,6,0,0,1,,3,S,0,S,17,0.776581,0.025711,0.019967
4,41,9,5,0,0,1,,4,S,0,S,17,0.777174,0.025822,0.020068
4,42,3,1,0,0,1,,2,S,0,S,15,0.783961,0.011818,0.009265
4,43,6,1,0,0,1,,5,S,0,S,14,0.801613,0,0
4,44,4,7,0,0,1,,3,S,0,S,16,0.008872,0.791666,0.007024
4,45,3,2,0,0,1,,1,S,0,S,19,0.777804,0.025933,0.020171
4,46,2,6,0,0,1,,4,S,0,S,15,0.022833,0.770379,0.01759
4,47,6,5,0,0,1,,1,S,0,S,19,0.752935,0.046672,0.035141
4,48,7,2,0,0,1,,5,S,0,S,15,0.769785,0.021087,0.016233
4,49,2,8,0,0,1,,6,S,0,S,14,0.008217,0.786241,0.006461
4,50,2,1,0,0,1,,1,S,0,S,18,0.791838,0.011327,0.008969
4,51,2,4,0,0,1,,2,S,0,S,16,0.019205,0.7802,0.014984
4,52,4,9,0,0,1,,5,S,0,S,14,0.008777,0.781675,0.006861
4,53,3,5,0,0,1,,2,S,0,S,18,0.036658,0.763285,0.02798
4,54,9,4,0,0,1,,5,S,0,S,16,0.78935,0.014505,0.01145
4,55,5,2,0,0,1,,3,S,0,S,17,0.795069,0.008285,0.006587
4,56,7,6,0,0,1,,1,S,0,S,18,0.755574,0.03874,0.029271
4,57,3,8,0,0,1,,5,S,0,S,15,0.036997,0.755089,0.027936
4,58,8,1,0,0,1,,7,L,0,S,14,0.800337,0,0
4,59,4,3,0,0,1,,1,S,0,S,19,0.752296,0.041877,0.031504
4,60,9,8,0,0,1,,1,S,0,S,29,0.758985,0.048348,0.036695
4,61,1,4,0,0,1,,3,S,0,S,14,0.006171,0.789546,0.004872
4,62,5,6,0,0,1,,1,S,0,S,26,0.04935,0.750942,0.037059
4,63,9,7,0,0,1,,2,S,0,S,19,0.766885,0.035639,0.027331
4,64,1,9,0,0,1,,8,L,0,S,12,0.013474,0.76101,0.010254
4,65,9,1,0,0,1,,8,L,0,S,13,0.773508,0.012754,0.009865
4,66,4,8,0,0,1,,4,S,0,S,15,0.010021,0.78945,0.007911
4,67,8,2,0,0,1,,6,S,0,S,15,0.757779,0.033263,0.025206
4,68,7,9,0,0,1,,2,S,0,S,17,0.02277,0.770831,0.017552
4,69,5,1,0,0,1,,4,S,0,S,14,0.770399,0.017592,0.013553
4,70,1,5,0,0,1,,4,S,0,S,13,0.025293,0.757262,0.019153
4,71,7,3,0,0,1,,4,S,0,S,15,0.78798,0.003491,0.002751
4,72,3,9,0,0,1,,6,S,0,S,14,0.026996,0.758092,0.020465
5,1,2,9,0,0,1,,7,L,0,S,13,0.016603,0.768246,0.012755
5,2,4,7,0,0,1,,3,S,0,S,16,0.026921,0.768807,0.020697
5,3,6,2,0,0,1,,4,S,0,S,14,0.758581,0.028135,0.021343
5,4,5,2,0,0,1,,3,S,0,S,15,0.772078,0.01847,0.01426
5,5,1,6,0,0,1,,5,S,0,S,13,0.024477,0.752405,0.018417
5,6,3,4,0,0,1,,1,S,0,S,18,0.038826,0.758149,0.029436
5,7,4,2,0,0,1,,2,S,0,S,17,0.782853,0.015704,0.012294
5,8,1,4,0,0,1,,3,S,0,S,14,0.024092,0.760437,0.018321
5,9,4,3,0,0,1,,1,S,0,S,27,0.79479,0.01392,0.011064
5,10,7,9,0,0,1,,2,S,0,S,16,0.036395,0.75441,0.027457
5,11,8,7,0,0,1,,1,S,0,S,22,0.767876,0.035045,0.02691
5,12,2,7,0,0,1,,5,S,0,S,15,0.03453,0.756911,0.026136
5,13,5,9,0,0,1,,4,S,0,S,14,0.029977,0.75487,0.022629
5,14,9,3,0,0,1,,6,S,0,S,15,0.793476,0.005666,0.004496
5,15,6,8,0,0,1,,2,S,0,S,18,0.023256,0.781665,0.018179
5,16,7,3,0,0,1,,4,S,0,S,15,0.779746,0.013444,0.010483
5,17,4,8,0,0,1,,4,S,0,S,15,0.012504,0.783629,0.009799
5,18,2,1,0,0,1,,1,S,0,S,15,0.772221,0.021834,0.016861
5,19,3,9,0,0,1,,6,S,0,S,13,0.010153,0.776014,0.007879
5,20,8,5,0,0,1,,3,S,0,S,20,0.763127,0.036877,0.028142
5,21,8,3,0,0,1,,5,S,0,S,16,0.797226,0.00411,0.003277
5,22,7,4,0,0,1,,3,S,0,S,15,0.763153,0.025762,0.019661
5,23,6,3,0,0,1,,3,S,0,S,16,0.775216,0.023832,0.018475
5,24,1,7,0,0,1,,6,S,0,S,13,0.013073,0.769723,0.010062
5,25,7,1,0,0,1,,6,S,0,S,13,0.785168,0.000715,0.000561
5,26,1,3,0,0,1,,2,S,0,S,15,0,0.800536,0
5,27,5,7,0,0,1,,2,S,0,S,20,0.011423,0.794762,0.009079
5,28,9,4,0,0,1,,5,S,0,S,15,0.777891,0.017321,0.013474
5,29,9,5,0,0,1,,4,S,0,S,17,0.758088,0.038449,0.029148
5,30,5,3,0,0,1,,2,S,0,S,17,0.755321,0.038343,0.028961
5,31,4,6,0,0,1,,2,S,0,S,17,0.02612,0.770199,0.020118
5,32,3,7,0,0,1,,4,S,0,S,15,0.020265,0.774451,0.015695
5,33,1,9,0,0,1,,8,L,0,S,12,0.002013,0.775997,0.001562
5,34,6,7,0,0,1,,1,S,0,S,27,0.024917,0.785393,0.019569
5,35,7,2,0,0,1,,5,S,0,S,14,0.789046,0.001104,0.000871
5,36,2,6,0,0,1,,4,S,0,S,16,0.025562,0.769881,0.01968
5,37,7,8,0,0,1,,1,S,0,S,28,0.028148,0.775796,0.021837
5,38,3,2,0,0,1,,1,S,0,S,19,0.771998,0.027798,0.02146
5,39,5,8,0,0,1,,3,S,0,S,17,0.008407,0.79409,0.006676
5,40,5,6,0,0,1,,1,S,0,S,23,0.042843,0.75475,0.032336
5,41,3,8,0,0,1,,5,S,0,S,14,0.019168,0.770942,0.014777
5,42,2,3,0,0,1,,1,S,0,S,21,0.043197,0.75805,0.032745
5,43,2,4,0,0,1,,2,S,0,S,20,0.013748,0.79329,0.010906
5,44,8,6,0,0,1,,2,S,0,S,19,0.762052,0.035444,0.02701
5,45,6,5,0,0,1,,1,S,0,S,24,0.765373,0.039786,0.030451
5,46,4,9,0,0,1,,5,S,0,S,13,0.028922,0.750414,0.021703
5,47,3,5,0,0,1,,2,S,0,S,15,0.03224,0.75823,0.024445
5,48,9,2,0,0,1,,7,L,0,S,14,0.799765,0,0
5,49,3,6,0,0,1,,3,S,0,S,16,0.008161,0.79125,0.006458
5,50,6,1,0,0,1,,5,S,0,S,13,0.765162,0.0193,0.014768
5,51,8,4,0,0,1,,4,S,0,S,16,0.77656,0.019819,0.01539
5,52,4,5,0,0,1,,1,S,0,S,17,0.008245,0.794437,0.00655
5,53,2,5,0,0,1,,3,S,0,S,16,0.01185,0.7889,0.009349
5,54,6,9,0,0,1,,3,S,0,S,15,0.01447,0.783918,0.011344
5,55,8,9,0,0,1,,1,S,0,S,15,0.035035,0.754447,0.026432
5,56,1,2,0,0,1,,1,S,0,S,16,0.036266,0.751711,0.027261
5,57,5,1,0,0,1,,4,S,0,S,14,0.792085,0.000809,0.000641
5,58,3,1,0,0,1,,2,S,0,S,15,0.751055,0.037599,0.028239
5,59,1,8,0,0,1,,7,L,0,S,13,0,0.795476,0
5,60,9,6,0,0,1,,3,S,0,S,17,0.777889,0.021589,0.016794
5,61,1,5,0,0,1,,4,S,0,S,13,0.018844,0.761333,0.014347
5,62,6,4,0,0,1,,2,S,0,S,17,0.798803,0.006822,0.005449
5,63,7,6,0,0,1,,1,S,0,S,17,0.754882,0.036422,0.027494
5,64,7,5,0,0,1,,2,S,0,S,18,0.780603,0.019112,0.014919
5,65,9,7,0,0,1,,2,S,0,S,18,0.775714,0.026904,0.02087
5,66,5,4,0,0,1,,1,S,0,S,18,0.765033,0.031823,0.024345
5,67,9,8,0,0,1,,1,S,0,S,28,0.783832,0.025195,0.019749
5,68,2,8,0,0,1,,6,S,0,S,14,0.029194,0.75869,0.022149
5,69,9,1,0,0,1,,8,L,0,S,13,0.793976,0,0
5,70,8,1,0,0,1,,7,L,0,S,13,0.772,0.012029,0.009286
5,71,4,1,0,0,1,,3,S,0,S,15,0.794332,0.00335,0.002661
5,72,8,2,0,0,1,,6,S,0,S,14,0.769917,0.017203,0.013245
6,1,4,9,0,0,1,,5,S,0,S,15,0.007398,0.791942,0.005859
6,2,2,9,0,0,1,,7,L,0,S,14,0.013606,0.777285,0.010576
6,3,1,7,0,0,1,,6,S,0,S,13,0.012664,0.774795,0.009812
6,4,3,2,0,0,1,,1,S,0,S,18,0.763342,0.033186,0.025332
6,5,4,8,0,0,1,,4,S,0,S,16,0.019838,0.779759,0.015469
6,6,4,2,0,0,1,,2,S,0,S,18,0.752328,0.042821,0.032215
6,7,2,5,0,0,1,,3,S,0,S,17,0.008024,0.796086,0.006388
6,8,1,8,0,0,1,,7,L,0,S,13,0.030138,0.750547,0.02262
6,9,6,4,0,0,1,,2,S,0,S,17,0.767185,0.029351,0.022518
6,10,2,4,0,0,1,,2,S,0,S,17,0.039175,0.753835,0.029531
6,11,8,3,0,0,1,,5,S,0,S,15,0.760982,0.030139,0.022935
6,12,9,4,0,0,1,,5,S,0,S,15,0.788948,0.005314,0.004193
6,13,8,5,0,0,1,,3,S,0,S,17,0.768083,0.031344,0.024075
6,14,7,8,0,0,1,,1,S,0,S,20,0.025606,0.779403,0.019957
6,15,7,4,0,0,1,,3,S,0,S,18,0.759075,0.037786,0.028682
6,16,6,5,0,0,1,,1,S,0,S,18,0.778528,0.024227,0.018861
6,17,4,5,0,0,1,,1,S,0,S,19,0.029568,0.774644,0.022904
6,18,9,1,0,0,1,,8,L,0,S,13,0.791282,0,0
6,19,7,5,0,0,1,,2,S,0,S,20,0.793787,0.01457,0.011566
6,20,5,8,0,0,1,,3,S,0,S,17,0.037551,0.758245,0.028473
6,21,6,1,0,0,1,,5,S,0,S,14,0.799632,0,0
6,22,2,6,0,0,1,,4,S,0,S,16,0.021594,0.775878,0.016755
6,23,6,2,0,0,1,,4,S,0,S,15,0.772584,0.019283,0.014898
6,24,8,1,0,0,1,,7,L,0,S,13,0.756494,0.022919,0.017338
6,25,9,3,0,0,1,,6,S,0,S,14,0.774902,0.013087,0.010141
6,26,6,3,0,0,1,,3,S,0,S,16,0.791211,0.008915,0.007053
6,27,9,8,0,0,1,,1,S,0,S,17,0.78306,0.016276,0.012745
6,28,3,8,0,0,1,,5,S,0,S,16,0.026302,0.770376,0.020262
6,29,5,6,0,0,1,,1,S,0,S,21,0.038366,0.76346,0.029291
6,30,1,2,0,0,1,,1,S,0,S,17,0.013682,0.787018,0.010768
6,31,5,2,0,0,1,,3,S,0,S,17,0.786575,0.012748,0.010027
6,32,9,5,0,0,1,,4,S,0,S,15,0.776504,0.016938,0.013152
6,33,7,2,0,0,1,,5,S,0,S,16,0.796881,0.00343,0.002733
6,34,7,1,0,0,1,,6,S,0,S,14,0.785677,0.005493,0.004316
6,35,9,7,0,0,1,,2,S,0,S,19,0.787831,0.016384,0.012908
6,36,6,7,0,0,1,,1,S,0,S,19,0.012696,0.795309,0.010097
6,37,3,5,0,0,1,,2,S,0,S,19,0.046509,0.752061,0.034977
6,38,1,5,0,0,1,,4,S,0,S,14,0.031175,0.756658,0.023589
6,39,4,3,0,0,1,,1,S,0,S,21,0.758684,0.042338,0.032122
6,40,2,3,0,0,1,,1,S,0,S,21,0.014627,0.791246,0.011574
6,41,9,2,0,0,1,,7,L,0,S,14,0.791933,0,0
6,42,5,7,0,0,1,,2,S,0,S,16,0.0192,0.780149,0.014979
6,43,5,4,0,0,1,,1,S,0,S,23,0.783019,0.021573,0.016892
6,44,3,7,0,0,1,,4,S,0,S,15,0.023178,0.771937,0.017892
6,45,7,6,0,0,1,,1,S,0,S,22,0.768258,0.036023,0.027675
6,46,3,9,0,0,1,,6,S,0,S,15,0.01175,0.785283,0.009227
6,47,8,6,0,0,1,,2,S,0,S,18,0.770351,0.031014,0.023892
6,48,6,8,0,0,1,,2,S,0,S,24,0.042878,0.759731,0.032575
6,49,2,8,0,0,1,,6,S,0,S,15,0.012777,0.783203,0.010007
6,50,9,6,0,0,1,,3,S,0,S,15,0.755834,0.032707,0.024721
6,51,8,7,0,0,0,,1,S,0,S,20,0.023207,0.784063,0.018196
6,52,6,9,0,0,1,,3,S,0,S,18,0.015528,0.788844,0.012249
6,53,1,9,0,0,1,,8,L,0,S,13,0.007221,0.780758,0.005638
6,54,7,3,0,0,1,,4,S,0,S,16,0.758784,0.034679,0.026314
6,55,3,4,0,0,1,,1,S,0,S,22,0.030625,0.771948,0.023641
6,56,5,3,0,0,1,,2,S,0,S,18,0.773622,0.026038,0.020143
6,57,4,6,0,0,1,,2,S,0,S,18,0.020469,0.784155,0.016051
6,58,1,4,0,0,1,,3,S,0,S,15,0.009741,0.786822,0.007665
6,59,3,1,0,0,1,,2,S,0,S,15,0.778079,0.014666,0.011411
6,60,8,2,0,0,1,,6,S,0,S,15,0.788613,0.007336,0.005785
6,61,1,6,0,0,1,,5,S,0,S,14,0.019748,0.771222,0.01523
6,62,5,1,0,0,1,,4,S,0,S,14,0.755,0.028168,0.021267
6,63,8,4,0,0,1,,4,S,0,S,17,0.796704,0.00657,0.005235
6,64,3,6,0,0,1,,3,S,0,S,18,0.032108,0.768304,0.024668
6,65,4,7,0,0,1,,3,S,0,S,15,0.018396,0.779177,0.014334
6,66,7,9,0,0,1,,2,S,0,S,17,0.012404,0.791206,0.009814
6,67,2,1,0,0,1,,1,S,0,S,16,0.761151,0.030012,0.022843
6,68,2,7,0,0,1,,5,S,0,S,14,0.021814,0.76789,0.016751
6,69,1,3,0,0,1,,2,S,0,S,16,0.011639,0.788716,0.00918
6,70,4,1,0,0,1,,3,S,0,S,15,0.775589,0.017461,0.013542
6,71,5,9,0,0,1,,4,S,0,S,16,0.00437,0.797639,0.003486
6,72,8,9,0,0,1,,1,S,0,S,19,0.012609,0.794684,0.01002
7,1,9,1,0,0,1,,8,L,0,S,13,0.802925,0,0
7,2,9,7,0,0,1,,2,S,0,S,16,0.793265,0.003951,0.003134
7,3,5,8,0,0,1,,3,S,0,S,17,0.024379,0.775403,0.018903
7,4,4,1,0,0,1,,3,S,0,S,15,0.762316,0.026667,0.020329
7,5,8,1,0,0,1,,7,L,0,S,13,0.763059,0.021894,0.016706
7,6,3,7,0,0,1,,4,S,0,S,15,0.034694,0.750082,0.026023
7,7,8,6,0,0,1,,2,S,0,S,20,0.771336,0.034179,0.026364
7,8,9,2,0,0,1,,7,L,0,S,13,0.766153,0.015006,0.011497
7,9,8,3,0,0,1,,5,S,0,S,15,0.799056,0.000195,0.000156
7,10,3,9,0,0,1,,6,S,0,S,15,0,0.798345,0
7,11,7,2,0,0,1,,5,S,0,S,15,0.797187,0.000477,0.00038
7,12,9,3,0,0,1,,6,S,0,S,13,0.753919,0.022973,0.01732
7,13,7,4,0,0,1,,3,S,0,S,16,0.763444,0.031457,0.024015
7,14,1,7,0,0,1,,6,S,0,S,14,0,0.797662,0
7,15,9,8,0,0,1,,1,S,0,S,16,0.768557,0.027265,0.020955
7,16,7,5,0,0,1,,2,S,0,S,19,0.795936,0.008754,0.006968
7,17,7,6,0,0,1,,1,S,0,S,23,0.779887,0.02604,0.020308
7,18,9,6,0,0,1,,3,S,0,S,16,0.795251,0.005465,0.004346
7,19,2,7,0,0,1,,5,S,0,S,15,0.00778,0.788227,0.006133
7,20,4,8,0,0,1,,4,S,0,S,16,0.018778,0.777364,0.014597
7,21,6,9,0,0,1,,3,S,0,S,18,0.021061,0.780717,0.016443
7,22,1,2,0,0,1,,1,S,0,S,16,0.039197,0.750441,0.029415
7,23,5,9,0,0,1,,4,S,0,S,16,0.039274,0.750721,0.029484
7,24,6,3,0,0,1,,3,S,0,S,16,0.789298,0.008705,0.006871
7,25,6,5,0,0,1,,1,S,0,S,23,0.786444,0.019555,0.015379
7,26,1,3,0,0,1,,2,S,0,S,16,0.020847,0.772218,0.016099
7,27,2,3,0,0,1,,1,S,0,S,21,0.025969,0.776913,0.020176
7,28,9,4,0,0,1,,5,S,0,S,14,0.775766,0.014248,0.011053
7,29,2,4,0,0,1,,2,S,0,S,17,0.013138,0.791737,0.010402
7,30,2,1,0,0,1,,1,S,0,S,18,0.793816,0.012892,0.010234
7,31,5,7,0,0,1,,2,S,0,S,19,0.010234,0.791436,0.0081
7,32,9,5,0,0,1,,4,S,0,S,15,0.781874,0.011424,0.008932
7,33,5,4,0,0,1,,1,S,0,S,20,0.755765,0.043015,0.032509
7,34,1,6,0,0,1,,5,S,0,S,13,0.025947,0.754204,0.01957
7,35,2,9,0,0,1,,7,L,0,S,14,0.014284,0.777261,0.011103
7,36,6,4,0,0,1,,2,S,0,S,18,0.791542,0.013889,0.010993
7,37,4,7,0,0,1,,3,S,0,S,17,0.021549,0.771269,0.01662
7,38,2,5,0,0,1,,3,S,0,S,15,0.032535,0.757979,0.02466
7,39,3,2,0,0,1,,1,S,0,S,21,0.750657,0.045421,0.034096
7,40,3,5,0,0,1,,2,S,0,S,16,0.030586,0.760872,0.023272
7,41,7,9,0,0,1,,2,S,0,S,21,0.028524,0.773883,0.022074
7,42,6,2,0,0,1,,4,S,0,S,15,0.763272,0.027518,0.021004
7,43,6,8,0,0,1,,2,S,0,S,19,0.021818,0.784148,0.017109
7,44,8,7,0,0,1,,1,S,0,S,20,0.785924,0.01908,0.014995
7,45,2,6,0,0,1,,4,S,0,S,15,0.001103,0.80054,0.000883
7,46,1,9,0,0,1,,8,L,0,S,13,0.010718,0.772919,0.008284
7,47,3,1,0,0,1,,2,S,0,S,17,0.798383,0.004973,0.00397
7,48,2,8,0,0,1,,6,S,0,S,14,0.022629,0.768968,0.017401
7,49,4,5,0,0,1,,1,S,0,S,19,0.00698,0.7948,0.005548
7,50,4,2,0,0,1,,2,S,0,S,18,0.793417,0.007063,0.005604
7,51,6,7,0,0,1,,1,S,0,S,22,0.039021,0.759743,0.029646
7,52,7,8,0,0,1,,1,S,0,S,25,0.026921,0.78062,0.021015
7,53,3,4,0,0,1,,1,S,0,S,18,0.034859,0.762938,0.026595
7,54,8,2,0,0,1,,6,S,0,S,14,0.765107,0.024035,0.018389
7,55,8,5,0,0,1,,3,S,0,S,17,0.751314,0.044007,0.033063
7,56,7,3,0,0,1,,4,S,0,S,15,0.778331,0.0138,0.010741
7,57,5,1,0,0,1,,4,S,0,S,15,0.799802,0,0
7,58,1,4,0,0,1,,3,S,0,S,15,0.00186,0.797069,0.001482
7,59,7,1,0,0,1,,6,S,0,S,14,0.801872,0,0
7,60,1,8,0,0,1,,7,L,0,S,13,0.016182,0.768105,0.012429
7,61,4,9,0,0,1,,5,S,0,S,16,0.004263,0.793221,0.003381
7,62,4,3,0,0,1,,1,S,0,S,19,0.792227,0.00762,0.006037
7,63,8,4,0,0,1,,4,S,0,S,16,0.793021,0.010842,0.008598
7,64,5,3,0,0,1,,2,S,0,S,17,0.781604,0.015376,0.012018
7,65,4,6,0,0,1,,2,S,0,S,17,0.009779,0.790369,0.007729
7,66,1,5,0,0,1,,4,S,0,S,14,0.009795,0.779839,0.007639
7,67,3,8,0,0,1,,5,S,0,S,15,0.008974,0.788339,0.007075
7,68,3,6,0,0,1,,3,S,0,S,15,0.026769,0.764387,0.020462
7,69,5,2,0,0,1,,3,S,0,S,16,0.76478,0.027853,0.021302
7,70,8,9,0,0,1,,1,S,0,S,24,0.041143,0.763372,0.031407
7,71,5,6,0,0,1,,1,S,0,S,18,0.028586,0.771046,0.022041
7,72,6,1,0,0,1,,5,S,0,S,14,0.779406,0.012774,0.009956
8,1,6,5,0,0,1,,1,S,0,S,18,0.778421,0.023138,0.018011
8,2,1,2,0,0,1,,1,S,0,S,19,0.035169,0.765405,0.026918
8,3,1,4,0,0,1,,3,S,0,S,15,0.029571,0.761445,0.022517
8,4,3,1,0,0,1,,2,S,0,S,15,0.760402,0.029077,0.02211
8,5,3,6,0,0,1,,3,S,0,S,16,0.006327,0.794536,0.005027
8,6,8,5,0,0,1,,3,S,0,S,16,0.788386,0.012112,0.009549
8,7,6,9,0,0,1,,3,S,0,S,16,0.033898,0.757506,0.025678
8,8,6,3,0,0,1,,3,S,0,S,16,0.795259,0.005745,0.004569
8,9,5,4,0,0,1,,1,S,0,S,28,0.778561,0.02881,0.02243
8,10,1,9,0,0,1,,8,L,0,S,13,0.001551,0.785578,0.001218
8,11,4,7,0,0,1,,3,S,0,S,15,0.020101,0.775005,0.015578
8,12,4,6,0,0,1,,2,S,0,S,15,0.033422,0.756495,0.025283
8,13,7,6,0,0,0,,1,S,0,S,26,0.017219,0.787995,0.013568
8,14,5,6,0,0,1,,1,S,0,S,16,0.016106,0.783213,0.012614
8,15,6,1,0,0,1,,5,S,0,S,14,0.785222,0.005364,0.004212
8,16,2,5,0,0,1,,3,S,0,S,16,0.00564,0.796526,0.004493
8,17,8,1,0,0,1,,7,L,0,S,13,0.767343,0.01469,0.011272
8,18,1,5,0,0,1,,4,S,0,S,15,0.009239,0.78861,0.007286
8,19,2,4,0,0,1,,2,S,0,S,16,0.033116,0.760464,0.025184
8,20,4,2,0,0,1,,2,S,0,S,17,0.7795,0.021578,0.01682
8,21,2,3,0,0,1,,1,S,0,S,18,0.02477,0.77665,0.019237
8,22,3,4,0,0,1,,1,S,0,S,25,0.033356,0.771178,0.025723
8,23,2,8,0,0,1,,6,S,0,S,14,0.014697,0.776217,0.011408
8,24,3,8,0,0,1,,5,S,0,S,16,0.011599,0.789162,0.009153
8,25,7,1,0,0,1,,6,S,0,S,14,0.799159,0,0
8,26,8,7,0,0,1,,1,S,0,S,24,0.783684,0.023401,0.018339
8,27,7,3,0,0,1,,4,S,0,S,15,0.772296,0.0199,0.015369
8,28,4,5,0,0,1,,1,S,0,S,19,0.032895,0.769392,0.025309
8,29,1,6,0,0,1,,5,S,0,S,13,0.028672,0.750175,0.021509
8,30,3,5,0,0,1,,2,S,0,S,20,0.028967,0.775125,0.022453
8,31,4,8,0,0,1,,4,S,0,S,15,0.038455,0.75135,0.028893
8,32,9,7,0,0,0,,2,S,0,S,39,0.023951,0.785171,0.018806
8,33,7,8,0,0,1,,1,S,0,S,37,0.036655,0.765854,0.028072
8,34,5,3,0,0,1,,2,S,0,S,19,0.781244,0.023712,0.018525
8,35,3,2,0,0,1,,1,S,0,S,17,0.795304,0.008757,0.006964
8,36,1,8,0,0,1,,7,L,0,S,14,0,0.801863,0
8,37,7,4,0,0,1,,3,S,0,S,16,0.771753,0.022703,0.017521
8,38,5,1,0,0,1,,4,S,0,S,15,0.774067,0.019354,0.014981
8,39,9,4,0,0,1,,5,S,0,S,15,0.755136,0.035113,0.026515
8,40,6,8,0,0,1,,2,S,0,S,21,0.0193,0.786447,0.015178
8,41,9,3,0,0,1,,6,S,0,S,15,0.798044,0.00216,0.001724
8,42,8,9,0,0,1,,1,S,0,S,19,0.03023,0.769514,0.023263
8,43,5,9,0,0,1,,4,S,0,S,14,0.032282,0.753001,0.024309
8,44,9,5,0,0,1,,4,S,0,S,16,0.775727,0.022862,0.017735
8,45,5,2,0,0,1,,3,S,0,S,16,0.766424,0.030243,0.023179
8,46,1,7,0,0,1,,6,S,0,S,13,0.021633,0.760749,0.016457
8,47,4,9,0,0,1,,5,S,0,S,14,0.020396,0.767789,0.01566
8,48,9,2,0,0,1,,7,L,0,S,14,0.790383,0.004456,0.003522
8,49,6,7,0,0,1,,1,S,0,S,19,0.018361,0.785665,0.014426
8,50,5,7,0,0,1,,2,S,0,S,15,0.036987,0.754023,0.027889
8,51,2,1,0,0,1,,1,S,0,S,19,0.782548,0.019173,0.015003
8,52,7,9,0,0,1,,2,S,0,S,17,0.036156,0.756082,0.027337
8,53,2,7,0,0,1,,5,S,0,S,14,0.00366,0.790565,0.002894
8,54,2,9,0,0,1,,7,L,0,S,13,0.016134,0.766048,0.012359
8,55,3,9,0,0,1,,6,S,0,S,14,0.0262,0.759862,0.019908
8,56,8,6,0,0,1,,2,S,0,S,21,0.776463,0.026812,0.020818
8,57,4,1,0,0,1,,3,S,0,S,15,0.750382,0.037097,0.027837
8,58,2,6,0,0,1,,4,S,0,S,14,0.01194,0.778551,0.009296
8,59,7,2,0,0,1,,5,S,0,S,14,0.770433,0.017592,0.013553
8,60,5,8,0,0,1,,3,S,0,S,16,0.022049,0.776996,0.017132
8,61,3,7,0,0,1,,4,S,0,S,15,0.02815,0.76429,0.021515
8,62,4,3,0,0,1,,1,S,0,S,21,0.777846,0.02743,0.021336
8,63,7,5,0,0,1,,2,S,0,S,17,0.783673,0.01631,0.012782
8,64,8,4,0,0,1,,4,S,0,S,15,0.765494,0.026302,0.020134
8,65,8,2,0,0,1,,6,S,0,S,14,0.795629,0,0
8,66,6,4,0,0,1,,2,S,0,S,17,0.781289,0.018389,0.014367
8,67,1,3,0,0,1,,2,S,0,S,16,0.035551,0.758211,0.026955
8,68,9,6,0,0,1,,3,S,0,S,23,0.781818,0.024308,0.019004
8,69,9,8,0,0,1,,1,S,0,S,21,0.754059,0.046732,0.035239
8,70,8,3,0,0,1,,5,S,0,S,14,0.754016,0.031678,0.023885
8,71,9,1,0,0,1,,8,L,0,S,13,0.763097,0.018583,0.01418
8,72,6,2,0,0,1,,4,S,0,S,14,0.751922,0.032707,0.024593
9,1,9,2,0,0,1,,7,L,0,S,14,0.767731,0.019458,0.014938
9,2,3,5,0,0,1,,2,S,0,S,16,0.024629,0.773614,0.019053
9,3,6,8,0,0,1,,2,S,0,S,19,0.014816,0.791634,0.011729
9,4,5,6,0,0,1,,1,S,0,S,20,0.031173,0.770894,0.024031
9,5,4,6,0,0,1,,2,S,0,S,17,0.016653,0.781197,0.013009
9,6,9,4,0,0,1,,5,S,0,S,16,0.757829,0.035679,0.027039
9,7,1,7,0,0,1,,6,S,0,S,14,0,0.803078,0
9,8,1,8,0,0,1,,7,L,0,S,14,0,0.800827,0
9,9,1,2,0,0,1,,1,S,0,S,18,0.024933,0.774947,0.019322
9,10,2,3,0,0,1,,1,S,0,S,21,0.018827,0.785513,0.014789
9,11,2,5,0,0,1,,3,S,0,S,17,0.013497,0.790498,0.01067
9,12,6,9,0,0,1,,3,S,0,S,18,0.027298,0.774155,0.021133
9,13,9,7,0,0,1,,2,S,0,S,22,0.790157,0.018568,0.014671
9,14,5,9,0,0,1,,4,S,0,S,17,0.044877,0.750778,0.033693
9,15,3,8,0,0,1,,5,S,0,S,15,0.000423,0.800944,0.000339
9,16,2,6,0,0,1,,4,S,0,S,15,0.037575,0.750906,0.028215
9,17,4,2,0,0,1,,2,S,0,S,17,0.751178,0.039899,0.029971
9,18,7,5,0,0,1,,2,S,0,S,18,0.753991,0.040668,0.030663
9,19,8,3,0,0,1,,5,S,0,S,15,0.755012,0.034167,0.025796
9,20,5,2,0,0,1,,3,S,0,S,16,0.79897,0.002803,0.00224
9,21,9,5,0,0,1,,4,S,0,S,17,0.792439,0.010846,0.008595
9,22,8,6,0,0,1,,2,S,0,S,20,0.768809,0.033693,0.025903
9,23,1,4,0,0,1,,3,S,0,S,15,0.005463,0.793622,0.004336
9,24,5,8,0,0,1,,3,S,0,S,18,0.028554,0.773932,0.022099
9,25,7,1,0,0,1,,6,S,0,S,14,0.776294,0.01259,0.009773
9,26,6,3,0,0,1,,3,S,0,S,17,0.768743,0.02699,0.020748
9,27,9,1,0,0,1,,8,L,0,S,13,0.750125,0.029327,0.021999
9,28,3,7,0,0,1,,4,S,0,S,14,0.035303,0.751979,0.026547
9,29,8,1,0,0,1,,7,L,0,S,14,0.799022,0,0
9,30,5,4,0,0,1,,1,S,0,S,21,0.757107,0.044591,0.03376
9,31,1,9,0,0,1,,8,L,0,S,13,0.027874,0.753059,0.020991
9,32,3,4,0,0,1,,1,S,0,S,16,0.035565,0.759407,0.027009
9,33,5,7,0,0,1,,2,S,0,S,18,0.025192,0.779222,0.01963
9,34,3,2,0,0,1,,1,S,0,S,24,0.784484,0.021765,0.017074
9,35,9,8,0,0,1,,1,S,0,S,22,0.794547,0.014142,0.011236
9,36,7,3,0,0,1,,4,S,0,S,16,0.766955,0.023744,0.01821
9,37,2,8,0,0,1,,6,S,0,S,15,0.014616,0.782806,0.011442
9,38,8,5,0,0,1,,3,S,0,S,17,0.771222,0.029683,0.022892
9,39,5,1,0,0,1,,4,S,0,S,14,0.750879,0.035113,0.026366
9,40,4,8,0,0,1,,4,S,0,S,16,0.01962,0.777134,0.015247
9,41,8,7,0,0,1,,1,S,0,S,26,0.771928,0.036575,0.028234
9,42,9,3,0,0,1,,6,S,0,S,15,0.765882,0.023823,0.018245
9,43,2,1,0,0,1,,1,S,0,S,17,0.776002,0.024702,0.019169
9,44,2,4,0,0,1,,2,S,0,S,17,0.027034,0.773157,0.020902
9,45,4,9,0,0,1,,5,S,0,S,16,0.009318,0.790009,0.007361
9,46,7,2,0,0,1,,5,S,0,S,15,0.784596,0.008202,0.006435
9,47,1,5,0,0,1,,4,S,0,S,14,0.035355,0.750242,0.026525
9,48,7,6,0,0,1,,1,S,0,S,25,0.794282,0.010781,0.008563
9,49,3,9,0,0,1,,6,S,0,S,14,0.029967,0.757687,0.022706
9,50,3,1,0,0,1,,2,S,0,S,18,0.779189,0.023847,0.018581
9,51,8,2,0,0,1,,6,S,0,S,14,0.761035,0.026429,0.020113
9,52,8,4,0,0,1,,4,S,0,S,17,0.787967,0.016212,0.012774
9,53,7,8,0,0,1,,1,S,0,S,23,0.020326,0.784471,0.015945
9,54,6,7,0,0,1,,1,S,0,S,19,0.010946,0.797512,0.008729
9,55,4,3,0,0,1,,1,S,0,S,23,0.777546,0.023406,0.018199
9,56,9,6,0,0,1,,3,S,0,S,19,0.774859,0.025785,0.01998
9,57,6,4,0,0,1,,2,S,0,S,20,0.763412,0.037935,0.02896
9,58,1,6,0,0,1,,5,S,0,S,14,0.010317,0.780754,0.008055
9,59,4,7,0,0,1,,3,S,0,S,16,0.017636,0.780682,0.013768
9,60,4,1,0,0,1,,3,S,0,S,16,0.78753,0.011075,0.008722
9,61,2,9,0,0,1,,7,L,0,S,15,0.0072,0.792051,0.005703
9,62,5,3,0,0,1,,2,S,0,S,17,0.75253,0.040548,0.030514
9,63,4,5,0,0,1,,1,S,0,S,19,0.028636,0.771918,0.022105
9,64,1,3,0,0,1,,2,S,0,S,16,0.015245,0.781379,0.011912
9,65,7,9,0,0,1,,2,S,0,S,21,0.02737,0.7743,0.021193
9,66,2,7,0,0,1,,5,S,0,S,15,0.013113,0.785702,0.010303
9,67,6,1,0,0,1,,5,S,0,S,14,0.756698,0.029876,0.022607
9,68,8,9,0,0,1,,1,S,0,S,27,0.027847,0.781502,0.021762
9,69,3,6,0,0,1,,3,S,0,S,15,0.020447,0.773018,0.015806
9,70,6,5,0,0,1,,1,S,0,S,21,0.755115,0.045473,0.034337
9,71,6,2,0,0,1,,4,S,0,S,15,0.757548,0.031484,0.023851
9,72,7,4,0,0,1,,3,S,0,S,18,0.777586,0.021864,0.017001
10,1,2,3,0,0,1,,1,S,0,S,19,0.031328,0.769442,0.024105
10,2,9,4,0,0,1,,5,S,0,S,15,0.776416,0.02128,0.016522
10,3,7,3,0,0,1,,4,S,0,S,15,0.786572,0.009834,0.007735
10,4,8,4,0,0,1,,4,S,0,S,14,0.772547,0.018868,0.014576
10,5,6,9,0,0,1,,3,S,0,S,16,0.016403,0.781226,0.012815
10,6,5,8,0,0,1,,3,S,0,S,15,0.015762,0.781397,0.012317
10,7,5,7,0,0,1,,2,S,0,S,16,0.018988,0.778748,0.014786
10,8,2,8,0,0,1,,6,S,0,S,13,0.029614,0.750009,0.022211
10,9,3,5,0,0,1,,2,S,0,S,19,0.035023,0.76466,0.026781
10,10,6,3,0,0,1,,3,S,0,S,15,0.775293,0.018547,0.01438
10,11,4,3,0,0,1,,1,S,0,S,29,0.764749,0.039539,0.030238
10,12,9,1,0,0,1,,8,L,0,S,12,0.75242,0.0217,0.016327
10,13,8,9,0,0,1,,1,S,0,S,24,0.018197,0.789111,0.014359
10,14,7,8,0,0,1,,1,S,0,S,19,0.018025,0.786712,0.01418
10,15,1,4,0,0,1,,3,S,0,S,14,0.02672,0.762411,0.020372
10,16,8,3,0,0,1,,5,S,0,S,13,0.751426,0.028236,0.021217
10,17,5,3,0,0,1,,2,S,0,S,18,0.77373,0.028076,0.021723
10,18,7,4,0,0,1,,3,S,0,S,16,0.778699,0.02058,0.016026
10,19,7,9,0,0,1,,2,S,0,S,16,0.029039,0.765155,0.02222
10,20,2,7,0,0,1,,5,S,0,S,14,0.015709,0.772833,0.01214
10,21,8,5,0,0,1,,3,S,0,S,15,0.789932,0.007805,0.006165
10,22,4,6,0,0,1,,2,S,0,S,15,0.016299,0.779669,0.012708
10,23,9,8,0,0,0,,1,S,0,S,23,0.042327,0.762204,0.032262
10,24,4,9,0,0,1,,5,S,0,S,13,0.02403,0.757261,0.018197
10,25,3,4,0,0,1,,1,S,0,S,27,0.016821,0.793576,0.013349
10,26,9,5,0,0,1,,4,S,0,S,16,0.777801,0.021727,0.016899
10,27,8,2,0,0,1,,6,S,0,S,13,0.775498,0.01011,0.00784
10,28,6,8,0,0,1,,2,S,0,S,18,0.027247,0.773491,0.021075
10,29,5,4,0,0,1,,1,S,0,S,28,0.779416,0.030296,0.023613
10,30,2,9,0,0,1,,7,L,0,S,13,0.006497,0.779537,0.005065
10,31,2,6,0,0,1,,4,S,0,S,14,0.022556,0.76564,0.01727
10,32,2,5,0,0,1,,3,S,0,S,15,0.034196,0.755719,0.025842
10,33,9,6,0,0,1,,3,S,0,S,19,0.778144,0.026565,0.020671
10,34,8,6,0,0,1,,2,S,0,S,16,0.762259,0.032231,0.024568
10,35,3,8,0,0,1,,5,S,0,S,15,0.011508,0.784781,0.009031
10,36,8,1,0,0,1,,7,L,0,S,12,0.771765,0.006077,0.00469
10,37,2,1,0,0,1,,1,S,0,S,16,0.796636,0.004394,0.003501
10,38,3,2,0,0,1,,1,S,0,S,17,0.796022,0.007098,0.00565
10,39,6,2,0,0,1,,4,S,0,S,14,0.762561,0.024622,0.018776
10,40,4,8,0,0,1,,4,S,0,S,14,0.015833,0.775741,0.012282
10,41,7,1,0,0,1,,6,S,0,S,13,0.790083,0,0
10,42,6,7,0,0,1,,1,S,0,S,22,0.03828,0.761425,0.029147
10,43,3,6,0,0,1,,3,S,0,S,16,0.026143,0.769291,0.020111
10,44,4,1,0,0,1,,3,S,0,S,15,0.795458,0.003348,0.002663
10,45,5,1,0,0,1,,4,S,0,S,14,0.787905,0.006017,0.004741
10,46,9,3,0,0,1,,6,S,0,S,14,0.769488,0.021055,0.016202
10,47,1,8,0,0,1,,7,L,0,S,13,0,0.797936,0
10,48,5,6,0,0,1,,1,S,0,S,16,0.033397,0.76222,0.025456
10,49,1,9,0,0,1,,8,L,0,S,12,0.012401,0.763373,0.009466
10,50,6,5,0,0,1,,1,S,0,S,18,0.780661,0.021293,0.016622
10,51,8,7,0,0,1,,1,S,0,S,17,0.783723,0.016083,0.012605
10,52,3,1,0,0,1,,2,S,0,S,14,0.778977,0.011357,0.008847
10,53,5,2,0,0,1,,3,S,0,S,16,0.764623,0.031386,0.023999
10,54,1,7,0,0,1,,6,S,0,S,13,0.008947,0.775608,0.006939
10,55,3,9,0,0,1,,6,S,0,S,14,0.012005,0.778236,0.009343
10,56,2,4,0,0,1,,2,S,0,S,16,0.035536,0.7598,0.027
10,57,5,9,0,0,1,,4,S,0,S,14,0.014911,0.776465,0.011578
10,58,1,5,0,0,1,,4,S,0,S,14,0.006941,0.786341,0.005458
10,59,3,7,0,0,1,,4,S,0,S,16,0.012897,0.784363,0.010116
10,60,1,2,0,0,1,,1,S,0,S,17,0.007328,0.796536,0.005837
10,61,7,2,0,0,1,,5,S,0,S,14,0.771491,0.017829,0.013755
10,62,9,2,0,0,1,,7,L,0,S,14,0.799482,0,0
10,63,1,3,0,0,1,,2,S,0,S,15,0.03271,0.757582,0.024781
10,64,7,5,0,0,1,,2,S,0,S,17,0.75959,0.03632,0.027589
10,65,6,4,0,0,1,,2,S,0,S,16,0.761341,0.034136,0.025989
10,66,6,1,0,0,1,,5,S,0,S,13,0.784729,0.002338,0.001835
10,67,7,6,0,0,1,,1,S,0,S,25,0.776246,0.029048,0.022548
10,68,1,6,0,0,1,,5,S,0,S,13,0.013409,0.771338,0.010343
10,69,4,2,0,0,1,,2,S,0,S,19,0.782936,0.021542,0.016866
10,70,4,5,0,0,1,,1,S,0,S,17,0.010757,0.79318,0.008532
10,71,9,7,0,0,1,,2,S,0,S,20,0.758433,0.041628,0.031572
10,72,4,7,0,0,1,,3,S,0,S,15,0.007369,0.78937,0.005817
11,1,6,5,0,0,1,,1,S,0,S,19,0.778412,0.022781,0.017733
11,2,5,6,0,0,1,,1,S,0,S,17,0.00993,0.793445,0.007879
11,3,7,2,0,0,1,,5,S,0,S,15,0.791452,0.004243,0.003359
11,4,6,1,0,0,1,,5,S,0,S,14,0.767074,0.020847,0.015991
11,5,1,4,0,0,1,,3,S,0,S,16,0.027076,0.768615,0.020811
11,6,9,4,0,0,1,,5,S,0,S,14,0.760232,0.026338,0.020023
11,7,8,3,0,0,1,,5,S,0,S,13,0.768266,0.015046,0.011559
11,8,6,7,0,0,1,,1,S,0,S,20,0.039569,0.757159,0.02996
11,9,5,9,0,0,1,,4,S,0,S,14,0.00737,0.783194,0.005772
11,10,3,2,0,0,1,,1,S,0,S,24,0.793173,0.013835,0.010974
11,11,1,2,0,0,1,,1,S,0,S,17,0.015417,0.785366,0.012108
11,12,4,6,0,0,1,,2,S,0,S,19,0.020033,0.784354,0.015713
11,13,6,2,0,0,1,,4,S,0,S,16,0.797822,0.002225,0.001775
11,14,9,2,0,0,1,,7,L,0,S,14,0.772953,0.015992,0.012361
11,15,6,9,0,0,1,,3,S,0,S,16,0.004518,0.793494,0.003585
11,16,2,4,0,0,1,,2,S,0,S,18,0.00904,0.797097,0.007206
11,17,4,9,0,0,1,,5,S,0,S,14,0.032624,0.750224,0.024475
11,18,8,7,0,0,1,,1,S,0,S,17,0.781912,0.017962,0.014045
11,19,2,5,0,0,1,,3,S,0,S,15,0.03338,0.757261,0.025278
11,20,8,4,0,0,1,,4,S,0,S,14,0.788319,0.005399,0.004256
11,21,3,8,0,0,1,,5,S,0,S,14,0,0.794937,0
11,22,3,5,0,0,1,,2,S,0,S,17,0.036924,0.757635,0.027975
11,23,1,5,0,0,1,,4,S,0,S,15,0.003952,0.794275,0.003139
11,24,1,7,0,0,1,,6,S,0,S,14,0,0.798004,0
11,25,5,8,0,0,1,,3,S,0,S,14,0.009294,0.782304,0.00727
11,26,2,3,0,0,1,,1,S,0,S,25,0.025056,0.781164,0.019573
11,27,9,7,0,0,1,,2,S,0,S,19,0.786941,0.016014,0.012602
11,28,7,8,0,0,1,,1,S,0,S,17,0.024537,0.771996,0.018943
11,29,3,4,0,0,1,,1,S,0,S,26,0.017741,0.789676,0.01401
11,30,5,2,0,0,1,,3,S,0,S,20,0.775438,0.026899,0.020858
11,31,6,8,0,0,1,,2,S,0,S,16,0.008393,0.790276,0.006633
11,32,1,6,0,0,1,,5,S,0,S,14,0.015608,0.775163,0.012099
11,33,7,5,0,0,1,,2,S,0,S,17,0.785924,0.013741,0.0108
11,34,9,1,0,0,1,,8,L,0,S,13,0.76648,0.017084,0.013094
11,35,8,9,0,0,1,,1,S,0,S,23,0.027167,0.776079,0.021084
11,36,7,6,0,0,1,,1,S,0,S,19,0.794777,0.010058,0.007994
11,37,8,2,0,0,1,,6,S,0,S,14,0.798629,0,0
11,38,3,1,0,0,1,,2,S,0,S,17,0.779687,0.020485,0.015972
11,39,2,1,0,0,1,,1,S,0,S,21,0.764881,0.038335,0.029322
11,40,9,5,0,0,1,,4,S,0,S,16,0.794986,0.00574,0.004563
11,41,4,2,0,0,1,,2,S,0,S,17,0.766405,0.030282,0.023208
11,42,3,9,0,0,1,,6,S,0,S,14,0,0.795517,0
11,43,7,9,0,0,1,,2,S,0,S,17,0.018027,0.778468,0.014034
11,44,6,3,0,0,1,,3,S,0,S,15,0.78989,0.005546,0.00438
11,45,9,6,0,0,1,,3,S,0,S,17,0.789513,0.012763,0.010076
11,46,7,4,0,0,1,,3,S,0,S,15,0.775803,0.017,0.013189
11,47,3,7,0,0,1,,4,S,0,S,15,0.021499,0.769729,0.016548
11,48,4,7,0,0,1,,3,S,0,S,17,0.01817,0.78117,0.014194
11,49,7,1,0,0,1,,6,S,0,S,14,0.795812,0,0
11,50,4,8,0,0,1,,4,S,0,S,15,0,0.799881,0
11,51,2,7,0,0,1,,5,S,0,S,14,0.015568,0.77424,0.012053
11,52,7,3,0,0,1,,4,S,0,S,14,0.77252,0.01502,0.011603
11,53,5,1,0,0,1,,4,S,0,S,16,0.768368,0.027785,0.021349
11,54,3,6,0,0,1,,3,S,0,S,16,0.02064,0.776399,0.016025
11,55,1,3,0,0,1,,2,S,0,S,19,0.022473,0.779733,0.017523
11,56,9,8,0,0,0,,1,S,0,S,19,0.025635,0.775823,0.019888
11,57,2,8,0,0,1,,6,S,0,S,13,0.00808,0.778426,0.00629
11,58,4,5,0,0,1,,1,S,0,S,25,0.023459,0.782966,0.018368
11,59,8,5,0,0,1,,3,S,0,S,15,0.786269,0.010468,0.008231
11,60,1,9,0,0,1,,8,L,0,S,13,0,0.794777,0
11,61,4,1,0,0,1,,3,S,0,S,15,0.773001,0.021277,0.016447
11,62,8,6,0,0,1,,2,S,0,S,16,0.796306,0.00598,0.004762
11,63,5,3,0,0,1,,2,S,0,S,17,0.759375,0.035524,0.026976
11,64,2,9,0,0,1,,7,L,0,S,13,0.006771,0.778618,0.005272
11,65,9,3,0,0,1,,6,S,0,S,14,0.799426,0,0
11,66,1,8,0,0,1,,7,L,0,S,13,0,0.794845,0
11,67,6,4,0,0,1,,2,S,0,S,16,0.776263,0.01977,0.015347
11,68,4,3,0,0,1,,1,S,0,S,16,0.783677,0.014339,0.011237
11,69,8,1,0,0,1,,7,L,0,S,13,0.786192,0.002738,0.002153
11,70,2,6,0,0,1,,4,S,0,S,15,0.002745,0.797359,0.002188
11,71,5,7,0,0,1,,2,S,0,S,16,0.00361,0.796947,0.002877
11,72,5,4,0,0,1,,1,S,0,S,23,0.788251,0.018915,0.01491
12,1,8,9,0,0,1,,1,S,0,S,27,0.023729,0.786082,0.018653
12,2,9,8,0,0,1,,1,S,0,S,23,0.782033,0.026039,0.020363
12,3,3,7,0,0,1,,4,S,0,S,15,0.01516,0.776996,0.011779
12,4,3,9,0,0,1,,6,S,0,S,15,0.006702,0.788593,0.005285
12,5,8,6,0,0,1,,2,S,0,S,18,0.783681,0.021185,0.016602
12,6,3,2,0,0,1,,1,S,0,S,18,0.795815,0.005465,0.004349
12,7,5,2,0,0,1,,3,S,0,S,16,0.76601,0.026391,0.020216
12,8,7,6,0,0,1,,1,S,0,S,19,0.755639,0.043075,0.032549
12,9,5,4,0,0,1,,1,S,0,S,25,0.750997,0.050187,0.03769
12,10,1,6,0,0,1,,5,S,0,S,14,0.015333,0.77475,0.011879
12,11,1,8,0,0,1,,7,L,0,S,14,0,0.80181,0
12,12,2,3,0,0,1,,1,S,0,S,16,0.011753,0.784382,0.009219
12,13,7,3,0,0,1,,4,S,0,S,15,0.777357,0.016132,0.01254
12,14,2,7,0,0,1,,5,S,0,S,13,0.013539,0.768717,0.010408
12,15,3,1,0,0,1,,2,S,0,S,15,0.796445,0,0
12,16,5,1,0,0,1,,4,S,0,S,14,0.775636,0.013365,0.010367
12,17,1,9,0,0,1,,8,L,0,S,13,0.020217,0.761584,0.015397
12,18,6,8,0,0,1,,2,S,0,S,32,0.030516,0.777029,0.023712
12,19,9,3,0,0,1,,6,S,0,S,15,0.796364,0.002639,0.002102
12,20,4,3,0,0,1,,1,S,0,S,16,0.754271,0.037584,0.028348
12,21,1,4,0,0,1,,3,S,0,S,15,0.032388,0.75951,0.024599
12,22,6,9,0,0,1,,3,S,0,S,21,0.030033,0.775064,0.023277
12,23,9,2,0,0,1,,7,L,0,S,14,0.791124,0.002975,0.002353
12,24,3,6,0,0,1,,3,S,0,S,16,0.028139,0.764844,0.021522
12,25,4,1,0,0,1,,3,S,0,S,13,0.75777,0.023663,0.017931
12,26,6,5,0,0,1,,1,S,0,S,24,0.781301,0.026806,0.020944
12,27,3,8,0,0,1,,5,S,0,S,15,0.02379,0.766578,0.018237
12,28,7,2,0,0,1,,5,S,0,S,14,0.776742,0.012788,0.009933
12,29,9,7,0,0,1,,2,S,0,S,30,0.780525,0.027607,0.021548
12,30,4,9,0,0,1,,5,S,0,S,17,0.015557,0.787252,0.012248
12,31,9,6,0,0,1,,3,S,0,S,18,0.770292,0.031661,0.024389
12,32,9,4,0,0,1,,5,S,0,S,15,0.762661,0.032061,0.024451
12,33,5,8,0,0,1,,3,S,0,S,16,0.020098,0.776355,0.015603
12,34,6,1,0,0,1,,5,S,0,S,13,0.789845,0,0
12,35,4,8,0,0,1,,4,S,0,S,18,0.017251,0.787211,0.01358
12,36,1,2,0,0,1,,1,S,0,S,20,0.034099,0.764446,0.026067
12,37,1,5,0,0,1,,4,S,0,S,14,0,0.796047,0
12,38,2,8,0,0,1,,6,S,0,S,13,0.017877,0.76364,0.013651
12,39,9,5,0,0,1,,4,S,0,S,21,0.785973,0.022451,0.017646
12,40,7,5,0,0,1,,2,S,0,S,25,0.781781,0.025731,0.020116
12,41,7,9,0,0,1,,2,S,0,S,21,0.019965,0.786513,0.015703
12,42,4,5,0,0,1,,1,S,0,S,18,0.040854,0.758078,0.030971
12,43,7,1,0,0,1,,6,S,0,S,13,0.787273,0.000832,0.000655
12,44,4,2,0,0,1,,2,S,0,S,15,0.780212,0.014378,0.011218
12,45,1,3,0,0,1,,2,S,0,S,17,0.008667,0.792092,0.006865
12,46,6,3,0,0,1,,3,S,0,S,15,0.781615,0.013595,0.010626
12,47,2,1,0,0,1,,1,S,0,S,19,0.777702,0.022753,0.017695
12,48,6,4,0,0,1,,2,S,0,S,16,0.793569,0.010217,0.008108
12,49,8,1,0,0,1,,7,L,0,S,13,0.799692,0,0
12,50,8,2,0,0,1,,6,S,0,S,14,0.79449,0.000524,0.000416
12,51,1,7,0,0,1,,6,S,0,S,13,0.025286,0.754211,0.019071
12,52,3,4,0,0,1,,1,S,0,S,20,0.043476,0.755108,0.032829
12,53,4,6,0,0,1,,2,S,0,S,21,0.04497,0.756259,0.034009
12,54,7,8,0,0,1,,1,S,0,S,28,0.026674,0.780419,0.020817
12,55,8,3,0,0,1,,5,S,0,S,15,0.800818,0,0
12,56,9,1,0,0,1,,8,L,0,S,13,0.797361,0,0
12,57,2,5,0,0,1,,3,S,0,S,13,0.022252,0.758377,0.016875
12,58,3,5,0,0,1,,2,S,0,S,15,0.032835,0.755456,0.024805
12,59,8,4,0,0,1,,4,S,0,S,15,0.768524,0.027644,0.021245
12,60,7,4,0,0,1,,3,S,0,S,16,0.788429,0.013489,0.010635
12,61,2,9,0,0,1,,7,L,0,S,13,0.008988,0.77539,0.006969
12,62,5,7,0,0,1,,2,S,0,S,16,0.008736,0.7901,0.006902
12,63,8,5,0,0,1,,3,S,0,S,20,0.767592,0.036633,0.028119
12,64,6,7,0,0,1,,1,S,0,S,23,0.0369,0.766866,0.028297
12,65,4,7,0,0,1,,3,S,0,S,17,0.033178,0.764206,0.025355
12,66,5,9,0,0,1,,4,S,0,S,15,0.033869,0.754854,0.025566
12,67,2,6,0,0,1,,4,S,0,S,14,0.000678,0.792728,0.000537
12,68,5,6,0,0,1,,1,S,0,S,17,0.041067,0.752563,0.030906
12,69,6,2,0,0,1,,4,S,0,S,14,0.780144,0.010909,0.00851
12,70,8,7,0,0,1,,1,S,0,S,25,0.756912,0.046225,0.034988
12,71,2,4,0,0,1,,2,S,0,S,15,0.009266,0.788069,0.007302
12,72,5,3,0,0,1,,2,S,0,S,19,0.7788,0.021368,0.016641
13,1,5,6,0,0,1,,1,S,0,S,20,0.024682,0.778767,0.019221
13,2,8,1,0,0,1,,7,L,0,S,13,0.796798,0,0
13,3,7,5,0,0,1,,2,S,0,S,16,0.769212,0.026445,0.020342
13,4,9,5,0,0,1,,4,S,0,S,16,0.795919,0.005782,0.004602
13,5,3,2,0,0,1,,1,S,0,S,18,0.789457,0.011463,0.00905
13,6,4,6,0,0,1,,2,S,0,S,16,0.005207,0.793085,0.00413
13,7,4,3,0,0,1,,1,S,0,S,17,0.750857,0.040425,0.030353
13,8,6,1,0,0,1,,5,S,0,S,14,0.776239,0.012241,0.009502
13,9,5,8,0,0,1,,3,S,0,S,19,0.044585,0.753046,0.033575
13,10,4,9,0,0,1,,5,S,0,S,14,0.010945,0.776534,0.008499
13,11,5,3,0,0,1,,2,S,0,S,15,0.790633,0.006724,0.005316
13,12,8,7,0,0,1,,1,S,0,S,17,0.795983,0.007568,0.006024
13,13,7,8,0,0,1,,1,S,0,S,32,0.025863,0.782604,0.020241
13,14,6,3,0,0,1,,3,S,0,S,15,0.764772,0.024271,0.018562
13,15,2,1,0,0,1,,1,S,0,S,19,0.761052,0.034596,0.026329
13,16,3,7,0,0,1,,4,S,0,S,14,0.032989,0.751568,0.024794
13,17,5,4,0,0,1,,1,S,0,S,15,0.750192,0.03879,0.0291
13,18,9,4,0,0,1,,5,S,0,S,14,0.758208,0.029899,0.022669
13,19,7,9,0,0,1,,2,S,0,S,17,0.008153,0.795094,0.006482
13,20,2,9,0,0,1,,7,L,0,S,13,0.003764,0.778513,0.00293
13,21,7,6,0,0,1,,1,S,0,S,28,0.787327,0.021407,0.016854
13,22,6,7,0,0,1,,1,S,0,S,19,0.039743,0.75778,0.030117
13,23,4,8,0,0,1,,4,S,0,S,16,0.000663,0.799368,0.00053
13,24,4,5,0,0,1,,1,S,0,S,21,0.024575,0.77536,0.019054
13,25,8,2,0,0,1,,6,S,0,S,13,0.790986,0,0
13,26,9,3,0,0,1,,6,S,0,S,14,0.786767,0.007268,0.005718
13,27,2,5,0,0,1,,3,S,0,S,16,0.008898,0.785846,0.006992
13,28,4,2,0,0,1,,2,S,0,S,16,0.798953,0.00017,0.000136
13,29,2,6,0,0,1,,4,S,0,S,14,0.008127,0.77986,0.006338
13,30,1,7,0,0,1,,6,S,0,S,13,0.011963,0.77391,0.009258
13,31,3,8,0,0,1,,5,S,0,S,14,0.023219,0.762371,0.017702
13,32,2,8,0,0,1,,6,S,0,S,14,0.005541,0.783717,0.004342
13,33,7,4,0,0,1,,3,S,0,S,15,0.792212,0.007107,0.00563
13,34,1,6,0,0,1,,5,S,0,S,13,0.00813,0.776716,0.006315
13,35,8,4,0,0,1,,4,S,0,S,14,0.792275,0.0009,0.000713
13,36,1,8,0,0,1,,7,L,0,S,13,0.006223,0.779688,0.004852
13,37,9,1,0,0,1,,8,L,0,S,13,0.776442,0.010669,0.008284
13,38,7,1,0,0,1,,6,S,0,S,13,0.765587,0.018637,0.014268
13,39,3,6,0,0,1,,3,S,0,S,14,0.026255,0.757905,0.019899
13,40,3,4,0,0,1,,1,S,0,S,20,0.026748,0.77443,0.020715
13,41,2,4,0,0,1,,2,S,0,S,18,0.012796,0.787382,0.010075
13,42,3,1,0,0,1,,2,S,0,S,17,0.764667,0.030501,0.023323
13,43,7,2,0,0,1,,5,S,0,S,13,0.758476,0.023126,0.017541
13,44,6,5,0,0,1,,1,S,0,S,19,0.779478,0.019493,0.015194
13,45,1,5,0,0,1,,4,S,0,S,14,0.02054,0.765861,0.01573
13,46,5,1,0,0,1,,4,S,0,S,14,0.795012,0.000164,0.000131
13,47,8,9,0,0,1,,1,S,0,S,23,0.014545,0.789723,0.011487
13,48,3,9,0,0,1,,6,S,0,S,13,0.015797,0.764169,0.012071
13,49,5,9,0,0,1,,4,S,0,S,16,0.00393,0.79654,0.00313
13,50,1,3,0,0,1,,2,S,0,S,16,0.028125,0.765817,0.021539
13,51,1,2,0,0,1,,1,S,0,S,19,0.033169,0.765189,0.025381
13,52,6,8,0,0,1,,2,S,0,S,18,0.032684,0.762933,0.024935
13,53,6,2,0,0,1,,4,S,0,S,14,0.76743,0.018029,0.013836
13,54,2,7,0,0,1,,5,S,0,S,14,0.013493,0.775223,0.01046
13,55,3,5,0,0,1,,2,S,0,S,17,0.01018,0.788672,0.008029
13,56,4,1,0,0,1,,3,S,0,S,15,0.762385,0.026881,0.020494
13,57,9,6,0,0,1,,3,S,0,S,21,0.768189,0.035318,0.027131
13,58,1,9,0,0,1,,8,L,0,S,12,0.013477,0.760072,0.010244
13,59,6,4,0,0,1,,2,S,0,S,16,0.767232,0.025897,0.019869
13,60,9,7,0,0,1,,2,S,0,S,19,0.753998,0.047088,0.035504
13,61,8,6,0,0,1,,2,S,0,S,17,0.765832,0.029291,0.022432
13,62,9,2,0,0,1,,7,L,0,S,13,0.76977,0.014854,0.011434
13,63,8,3,0,0,1,,5,S,0,S,13,0.761119,0.019163,0.014586
13,64,4,7,0,0,1,,3,S,0,S,16,0.015964,0.781896,0.012482
13,65,1,4,0,0,1,,3,S,0,S,15,0.024354,0.767796,0.018699
13,66,6,9,0,0,1,,3,S,0,S,15,0.025118,0.76248,0.019152
13,67,7,3,0,0,1,,4,S,0,S,14,0.772358,0.018084,0.013967
13,68,2,3,0,0,1,,1,S,0,S,21,0.017111,0.784313,0.013421
13,69,8,5,0,0,1,,3,S,0,S,15,0.795886,0.000187,0.000149
13,70,5,7,0,0,1,,2,S,0,S,21,0.047074,0.754354,0.035511
13,71,5,2,0,0,1,,3,S,0,S,14,0.787022,0.005406,0.004255
13,72,9,8,0,0,1,,1,S,0,S,22,0.781399,0.025716,0.020094
14,1,4,7,0,0,1,,3,S,0,S,18,0.016291,0.789157,0.012856
14,2,3,5,0,0,1,,2,S,0,S,16,0.027537,0.769931,0.021202
14,3,4,3,0,0,1,,1,S,0,S,21,0.779308,0.024994,0.019478
14,4,7,1,0,0,1,,6,S,0,S,13,0.768131,0.012374,0.009505
14,5,2,8,0,0,1,,6,S,0,S,15,0.009273,0.788576,0.007312
14,6,4,9,0,0,1,,5,S,0,S,15,0.01367,0.781535,0.010683
14,7,3,4,0,0,1,,1,S,0,S,19,0.010534,0.795661,0.008381
14,8,5,8,0,0,1,,3,S,0,S,16,0.016041,0.783689,0.012571
14,9,9,7,0,0,1,,2,S,0,S,19,0.795375,0.014297,0.011372
14,10,7,8,0,0,1,,1,S,0,S,26,0.019672,0.786488,0.015471
14,11,1,4,0,0,1,,3,S,0,S,15,0.018441,0.777379,0.014336
14,12,8,4,0,0,1,,4,S,0,S,16,0.754705,0.039512,0.02982
14,13,5,6,0,0,1,,1,S,0,S,20,0.035737,0.766956,0.027409
14,14,6,2,0,0,1,,4,S,0,S,15,0.800755,0,0
14,15,6,3,0,0,1,,3,S,0,S,17,0.779619,0.018524,0.014441
14,16,2,4,0,0,1,,2,S,0,S,20,0.040581,0.761071,0.030885
14,17,7,3,0,0,1,,4,S,0,S,16,0.792059,0.007409,0.005869
14,18,2,9,0,0,1,,7,L,0,S,14,0.012377,0.779574,0.009649
14,19,4,1,0,0,1,,3,S,0,S,14,0.760653,0.023762,0.018075
14,20,5,7,0,0,1,,2,S,0,S,17,0.036635,0.762826,0.027946
14,21,2,3,0,0,1,,1,S,0,S,20,0.03052,0.772911,0.02359
14,22,9,6,0,0,1,,3,S,0,S,17,0.792388,0.012218,0.009681
14,23,6,4,0,0,1,,2,S,0,S,17,0.786117,0.013989,0.010997
14,24,9,2,0,0,1,,7,L,0,S,14,0.79337,0.003448,0.002735
14,25,9,8,0,0,1,,1,S,0,S,28,0.755193,0.048021,0.036265
14,26,7,5,0,0,1,,2,S,0,S,17,0.766269,0.032073,0.024576
14,27,9,3,0,0,1,,6,S,0,S,15,0.760026,0.032127,0.024417
14,28,7,4,0,0,1,,3,S,0,S,16,0.796821,0.004225,0.003367
14,29,6,9,0,0,1,,3,S,0,S,16,0.038398,0.751239,0.028846
14,30,8,2,0,0,1,,6,S,0,S,14,0.760651,0.028359,0.021571
14,31,4,6,0,0,1,,2,S,0,S,21,0.039811,0.7612,0.030304
14,32,6,7,0,0,1,,1,S,0,S,30,0.024183,0.782866,0.018932
14,33,1,2,0,0,1,,1,S,0,S,18,0.025866,0.777355,0.020107
14,34,6,8,0,0,1,,2,S,0,S,19,0.025353,0.774513,0.019637
14,35,8,9,0,0,1,,1,S,0,S,16,0.041565,0.751142,0.031221
14,36,7,2,0,0,1,,5,S,0,S,14,0.781556,0.010207,0.007978
14,37,8,7,0,0,1,,1,S,0,S,28,0.790286,0.021465,0.016964
14,38,4,8,0,0,1,,4,S,0,S,16,0.026002,0.769582,0.020011
14,39,5,9,0,0,1,,4,S,0,S,15,0.006862,0.791612,0.005432
14,40,8,5,0,0,1,,3,S,0,S,19,0.773826,0.031478,0.024359
14,41,7,6,0,0,1,,1,S,0,S,17,0.767122,0.029476,0.022612
14,42,6,1,0,0,1,,5,S,0,S,14,0.79775,0,0
14,43,2,1,0,0,1,,1,S,0,S,15,0.76243,0.027165,0.020711
14,44,7,9,0,0,1,,2,S,0,S,18,0.028818,0.769427,0.022174
14,45,1,8,0,0,1,,7,L,0,S,13,0.015707,0.768706,0.012074
14,46,1,3,0,0,1,,2,S,0,S,15,0.016872,0.778686,0.013138
14,47,2,5,0,0,1,,3,S,0,S,17,0.017543,0.787208,0.01381
14,48,3,8,0,0,1,,5,S,0,S,14,0.031937,0.752565,0.024035
14,49,2,6,0,0,1,,4,S,0,S,17,0.0247,0.775795,0.019162
14,50,4,2,0,0,1,,2,S,0,S,16,0.791979,0.009537,0.007553
14,51,5,2,0,0,1,,3,S,0,S,16,0.784572,0.016466,0.012919
14,52,3,7,0,0,1,,4,S,0,S,15,0.026704,0.766784,0.020476
14,53,1,9,0,0,1,,8,L,0,S,13,0,0.793929,0
14,54,8,3,0,0,1,,5,S,0,S,17,0.797476,0.007438,0.005931
14,55,1,7,0,0,1,,6,S,0,S,14,0,0.800558,0
14,56,3,9,0,0,1,,6,S,0,S,14,0.002435,0.790871,0.001926
14,57,9,1,0,0,1,,8,L,0,S,13,0.777954,0.007228,0.005623
14,58,9,5,0,0,1,,4,S,0,S,17,0.792083,0.014327,0.011348
14,59,6,5,0,0,1,,1,S,0,S,20,0.788398,0.017534,0.013824
14,60,3,2,0,0,1,,1,S,0,S,19,0.772242,0.029829,0.023035
14,61,9,4,0,0,1,,5,S,0,S,15,0.764548,0.029177,0.022307
14,62,5,1,0,0,1,,4,S,0,S,14,0.756915,0.027649,0.020928
14,63,8,6,0,0,1,,2,S,0,S,19,0.779038,0.025335,0.019737
14,64,5,3,0,0,1,,2,S,0,S,22,0.770792,0.033564,0.025871
14,65,5,4,0,0,1,,1,S,0,S,22,0.795698,0.014173,0.011277
14,66,4,5,0,0,1,,1,S,0,S,21,0.019326,0.789348,0.015255
14,67,2,7,0,0,1,,5,S,0,S,16,0.008757,0.795128,0.006963
14,68,1,5,0,0,1,,4,S,0,S,14,0.01726,0.775838,0.013391
14,69,3,1,0,0,1,,2,S,0,S,16,0.78336,0.01234,0.009667
14,70,8,1,0,0,1,,7,L,0,S,13,0.753983,0.024963,0.018821
14,71,1,6,0,0,1,,5,S,0,S,14,0.020503,0.769435,0.015776
14,72,3,6,0,0,1,,3,S,0,S,16,0.033447,0.759984,0.025419
15,1,8,7,0,0,1,,1,S,0,S,24,0.786457,0.017786,0.013988
15,2,8,2,0,0,1,,6,S,0,S,13,0.750065,0.027269,0.020454
15,3,4,5,0,0,1,,1,S,0,S,35,0.030507,0.773005,0.023582
15,4,5,9,0,0,1,,4,S,0,S,17,0.014761,0.787825,0.011629
15,5,6,4,0,0,1,,2,S,0,S,18,0.770083,0.032743,0.025215
15,6,1,5,0,0,1,,4,S,0,S,14,0.017072,0.769918,0.013144
15,7,7,3,0,0,1,,4,S,0,S,15,0.776648,0.017665,0.013719
15,8,9,3,0,0,1,,6,S,0,S,15,0.76682,0.027962,0.021442
15,9,9,2,0,0,1,,7,L,0,S,13,0.763521,0.02099,0.016026
15,10,1,8,0,0,1,,7,L,0,S,13,0,0.785968,0
15,11,7,4,0,0,1,,3,S,0,S,15,0.798428,0.00171,0.001365
15,12,3,7,0,0,1,,4,S,0,S,15,0.005656,0.790493,0.004471
15,13,5,8,0,0,1,,3,S,0,S,17,0.01284,0.787226,0.010108
15,14,1,6,0,0,1,,5,S,0,S,14,0,0.800644,0
15,15,7,5,0,0,1,,2,S,0,S,16,0.78563,0.012898,0.010133
15,16,9,7,0,0,1,,2,S,0,S,22,0.796172,0.014213,0.011316
15,17,2,5,0,0,1,,3,S,0,S,16,0.032637,0.760383,0.024817
15,18,3,6,0,0,1,,3,S,0,S,16,0.003032,0.799821,0.002425
15,19,8,5,0,0,1,,3,S,0,S,17,0.794843,0.006026,0.004789
15,20,9,8,0,0,0,,1,S,0,S,21,0.048962,0.751077,0.036774
15,21,4,6,0,0,1,,2,S,0,S,19,0.036173,0.763988,0.027636
15,22,2,9,0,0,1,,7,L,0,S,14,0.009012,0.783993,0.007066
15,23,6,7,0,0,1,,1,S,0,S,17,0.016946,0.785455,0.013311
15,24,8,4,0,0,1,,4,S,0,S,15,0.772129,0.020615,0.015917
15,25,6,5,0,0,0,,1,S,0,S,34,0.033335,0.773395,0.025781
15,26,3,4,0,0,1,,1,S,0,S,20,0.026401,0.777502,0.020527
15,27,4,1,0,0,1,,3,S,0,S,14,0.761096,0.022713,0.017287
15,28,5,1,0,0,1,,4,S,0,S,14,0.787428,0.003354,0.002641
15,29,6,2,0,0,1,,4,S,0,S,15,0.792541,0.006754,0.005353
15,30,3,1,0,0,1,,2,S,0,S,16,0.774794,0.018888,0.014635
15,31,3,9,0,0,1,,6,S,0,S,14,0.017047,0.772896,0.013176
15,32,3,5,0,0,1,,2,S,0,S,17,0.01538,0.784424,0.012065
15,33,1,4,0,0,1,,3,S,0,S,15,0.015556,0.778773,0.012115
15,34,1,9,0,0,1,,8,L,0,S,13,0,0.788801,0
15,35,8,1,0,0,1,,7,L,0,S,13,0.76629,0.013194,0.01011
15,36,7,9,0,0,1,,2,S,0,S,31,0.041703,0.762231,0.031787
15,37,4,2,0,0,1,,2,S,0,S,15,0.786061,0.00924,0.007263
15,38,8,9,0,0,1,,1,S,0,S,21,0.028936,0.773357,0.022378
15,39,7,1,0,0,1,,6,S,0,S,13,0.781204,0.003416,0.002669
15,40,6,3,0,0,1,,3,S,0,S,20,0.786426,0.020765,0.01633
15,41,1,7,0,0,1,,6,S,0,S,13,0.013643,0.767852,0.010476
15,42,1,3,0,0,1,,2,S,0,S,15,0.001934,0.794969,0.001537
15,43,6,9,0,0,1,,3,S,0,S,16,0.007365,0.79684,0.005869
15,44,2,3,0,0,1,,1,S,0,S,18,0.010511,0.794042,0.008346
15,45,4,3,0,0,1,,1,S,0,S,20,0.776553,0.025697,0.019955
15,46,2,6,0,0,1,,4,S,0,S,15,0.02609,0.767418,0.020022
15,47,5,2,0,0,1,,3,S,0,S,14,0.766056,0.021705,0.016627
15,48,6,8,0,0,1,,2,S,0,S,16,0.0064,0.795163,0.005089
15,49,9,1,0,0,1,,8,L,0,S,13,0.77897,0.007404,0.005767
15,50,5,4,0,0,1,,1,S,0,S,17,0.79351,0.010481,0.008317
15,51,2,1,0,0,1,,1,S,0,S,16,0.756248,0.033877,0.025619
15,52,3,8,0,0,1,,5,S,0,S,14,0.016875,0.770307,0.012999
15,53,1,2,0,0,1,,1,S,0,S,19,0.028052,0.770927,0.021626
15,54,7,6,0,0,1,,1,S,0,S,17,0.775712,0.024799,0.019237
15,55,2,8,0,0,1,,6,S,0,S,14,0.008932,0.781344,0.006979
15,56,2,7,0,0,1,,5,S,0,S,14,0.031745,0.752435,0.023886
15,57,5,6,0,0,1,,1,S,0,S,26,0.024301,0.784051,0.019053
15,58,4,7,0,0,1,,3,S,0,S,17,0.020683,0.777184,0.016074
15,59,5,3,0,0,1,,2,S,0,S,18,0.797078,0.008104,0.006459
15,60,7,2,0,0,1,,5,S,0,S,13,0.766729,0.016181,0.012406
15,61,9,6,0,0,1,,3,S,0,S,18,0.79792,0.011602,0.009257
15,62,9,4,0,0,1,,5,S,0,S,15,0.790689,0.010336,0.008172
15,63,4,8,0,0,1,,4,S,0,S,16,0.009539,0.787768,0.007515
15,64,3,2,0,0,1,,1,S,0,S,17,0.768971,0.027807,0.021382
15,65,8,3,0,0,1,,5,S,0,S,16,0.796041,0.003667,0.002919
15,66,5,7,0,0,1,,2,S,0,S,19,0.013682,0.790584,0.010817
15,67,7,8,0,0,1,,1,S,0,S,27,0.021935,0.78318,0.017179
15,68,4,9,0,0,1,,5,S,0,S,16,0.010432,0.789578,0.008237
15,69,6,1,0,0,1,,5,S,0,S,14,0.767251,0.02054,0.015759
15,70,2,4,0,0,1,,2,S,0,S,19,0.017669,0.788019,0.013924
15,71,9,5,0,0,1,,4,S,0,S,16,0.771357,0.026837,0.020701
15,72,8,6,0,0,1,,2,S,0,S,18,0.762999,0.034757,0.02652
16,1,2,5,0,0,1,,3,S,0,S,17,0.010765,0.792658,0.008533
16,2,2,3,0,0,1,,1,S,0,S,24,0.011973,0.794241,0.00951
16,3,9,8,0,0,1,,1,S,0,S,20,0.784288,0.019195,0.015055
16,4,6,3,0,0,1,,3,S,0,S,15,0.79951,0,0
16,5,6,2,0,0,1,,4,S,0,S,14,0.799956,0,0
16,6,5,2,0,0,1,,3,S,0,S,14,0.77892,0.011234,0.00875
16,7,7,4,0,0,1,,3,S,0,S,18,0.771364,0.028966,0.022343
16,8,4,9,0,0,1,,5,S,0,S,14,0.019378,0.768585,0.014893
16,9,2,8,0,0,1,,6,S,0,S,14,0.000745,0.792799,0.00059
16,10,8,7,0,0,1,,1,S,0,S,37,0.751338,0.051393,0.038614
16,11,1,5,0,0,1,,4,S,0,S,14,0.022702,0.762658,0.017314
16,12,9,5,0,0,1,,4,S,0,S,14,0.756855,0.029465,0.022301
16,13,8,3,0,0,1,,5,S,0,S,14,0.752102,0.030949,0.023276
16,14,3,8,0,0,1,,5,S,0,S,14,0.01794,0.76784,0.013775
16,15,1,9,0,0,1,,8,L,0,S,13,0,0.786496,0
16,16,6,8,0,0,1,,2,S,0,S,19,0.0317,0.767193,0.02432
16,17,4,8,0,0,1,,4,S,0,S,14,0.010998,0.779141,0.008569
16,18,3,1,0,0,1,,2,S,0,S,15,0.772427,0.016938,0.013084
16,19,9,4,0,0,1,,5,S,0,S,15,0.787271,0.010008,0.007879
16,20,8,2,0,0,1,,6,S,0,S,14,0.802818,0,0
16,21,3,6,0,0,1,,3,S,0,S,15,0.032828,0.753458,0.024735
16,22,2,6,0,0,1,,4,S,0,S,15,0.007249,0.789175,0.005721
16,23,6,7,0,0,1,,1,S,0,S,29,0.024523,0.783711,0.019219
16,24,1,4,0,0,1,,3,S,0,S,14,0.008857,0.781041,0.006918
16,25,5,4,0,0,1,,1,S,0,S,19,0.794369,0.012696,0.010085
16,26,2,9,0,0,1,,7,L,0,S,14,0.008304,0.78333,0.006505
16,27,2,1,0,0,1,,1,S,0,S,16,0.795084,0.004074,0.00324
16,28,5,3,0,0,1,,2,S,0,S,15,0.768694,0.022132,0.017013
16,29,7,8,0,0,1,,1,S,0,S,18,0.008642,0.794635,0.006867
16,30,2,7,0,0,1,,5,S,0,S,14,0.02075,0.769498,0.015967
16,31,6,9,0,0,1,,3,S,0,S,21,0.015205,0.790291,0.012016
16,32,3,9,0,0,1,,6,S,0,S,14,0.026817,0.756577,0.020289
16,33,8,1,0,0,1,,7,L,0,S,13,0.785815,0.000481,0.000378
16,34,1,2,0,0,1,,1,S,0,S,19,0.007849,0.793494,0.006228
16,35,7,1,0,0,1,,6,S,0,S,13,0.770496,0.011442,0.008816
16,36,7,5,0,0,1,,2,S,0,S,17,0.778503,0.021423,0.016678
16,37,7,9,0,0,1,,2,S,0,S,18,0.039706,0.755788,0.03001
16,38,9,3,0,0,1,,6,S,0,S,13,0.750549,0.026656,0.020007
16,39,5,7,0,0,1,,2,S,0,S,19,0.043449,0.756508,0.032869
16,40,4,7,0,0,1,,3,S,0,S,14,0.033398,0.752717,0.02514
16,41,1,7,0,0,1,,6,S,0,S,13,0.006453,0.778544,0.005024
16,42,3,7,0,0,1,,4,S,0,S,15,0.005744,0.791183,0.004544
16,43,7,2,0,0,1,,5,S,0,S,14,0.783356,0.007125,0.005582
16,44,4,6,0,0,1,,2,S,0,S,15,0.022526,0.769174,0.017327
16,45,1,3,0,0,1,,2,S,0,S,16,0.012182,0.781234,0.009517
16,46,8,4,0,0,1,,4,S,0,S,17,0.789139,0.013937,0.010998
16,47,5,8,0,0,1,,3,S,0,S,17,0.028289,0.768813,0.021749
16,48,8,6,0,0,1,,2,S,0,S,20,0.768842,0.032107,0.024685
16,49,6,1,0,0,1,,5,S,0,S,13,0.783403,0.001795,0.001407
16,50,8,9,0,0,1,,1,S,0,S,21,0.026879,0.776552,0.020873
16,51,9,1,0,0,1,,8,L,0,S,12,0.760661,0.012644,0.009618
16,52,1,6,0,0,1,,5,S,0,S,13,0.020284,0.757649,0.015368
16,53,7,6,0,0,1,,1,S,0,S,28,0.755857,0.044181,0.033394
16,54,1,8,0,0,1,,7,L,0,S,13,0,0.792711,0
16,55,5,6,0,0,1,,1,S,0,S,26,0.028214,0.776689,0.021914
16,56,4,2,0,0,1,,2,S,0,S,17,0.764792,0.030458,0.023294
16,57,7,3,0,0,1,,4,S,0,S,15,0.775847,0.015844,0.012292
16,58,4,5,0,0,1,,1,S,0,S,17,0.042147,0.752518,0.031716
16,59,6,5,0,0,1,,1,S,0,S,16,0.773181,0.023497,0.018168
16,60,2,4,0,0,1,,2,S,0,S,16,0.016834,0.782555,0.013174
16,61,9,6,0,0,1,,3,S,0,S,16,0.769385,0.025213,0.019399
16,62,3,4,0,0,1,,1,S,0,S,17,0.020518,0.777877,0.01596
16,63,3,5,0,0,1,,2,S,0,S,18,0.027874,0.770291,0.021471
16,64,9,7,0,0,1,,2,S,0,S,17,0.770075,0.029127,0.02243
16,65,3,2,0,0,1,,1,S,0,S,17,0.778033,0.018131,0.014107
16,66,6,4,0,0,1,,2,S,0,S,17,0.782433,0.018631,0.014578
16,67,8,5,0,0,1,,3,S,0,S,16,0.778683,0.019787,0.015408
16,68,4,1,0,0,1,,3,S,0,S,15,0.767093,0.022858,0.017534
16,69,5,1,0,0,1,,4,S,0,S,13,0.767369,0.014468,0.011102
16,70,9,2,0,0,1,,7,L,0,S,13,0.788411,0,0
16,71,5,9,0,0,1,,4,S,0,S,18,0.019116,0.782906,0.014966
16,72,4,3,0,0,1,,1,S,0,S,25,0.756246,0.042304,0.031992
17,1,9,6,0,0,1,,3,S,0,S,14,0.757515,0.028793,0.021811
17,2,6,9,0,0,1,,3,S,0,S,18,0.021235,0.783451,0.016637
17,3,4,1,0,0,1,,3,S,0,S,15,0.77083,0.021394,0.016491
17,4,9,2,0,0,1,,7,L,0,S,13,0.797158,0,0
17,5,2,4,0,0,1,,2,S,0,S,16,0.034619,0.758264,0.026251
17,6,3,1,0,0,1,,2,S,0,S,16,0.77939,0.017546,0.013675
17,7,2,7,0,0,1,,5,S,0,S,14,0.025119,0.764466,0.019203
17,8,2,9,0,0,1,,7,L,0,S,13,0.030309,0.751206,0.022769
17,9,1,7,0,0,1,,6,S,0,S,14,0.020138,0.769921,0.015505
17,10,4,7,0,0,1,,3,S,0,S,17,0.021135,0.781697,0.016521
17,11,2,8,0,0,1,,6,S,0,S,13,0.001484,0.785683,0.001166
17,12,6,8,0,0,1,,2,S,0,S,15,0.033365,0.755155,0.025195
17,13,1,6,0,0,1,,5,S,0,S,14,0.005613,0.788145,0.004424
17,14,1,4,0,0,1,,3,S,0,S,16,0.024565,0.770048,0.018917
17,15,8,2,0,0,1,,6,S,0,S,15,0.797574,0.002512,0.002003
17,16,9,1,0,0,1,,8,L,0,S,12,0.774691,0.002254,0.001746
17,17,6,4,0,0,1,,2,S,0,S,17,0.790746,0.011096,0.008774
17,18,9,3,0,0,1,,6,S,0,S,13,0.786211,0.000566,0.000445
17,19,7,3,0,0,1,,4,S,0,S,15,0.772647,0.018065,0.013958
17,20,8,3,0,0,1,,5,S,0,S,15,0.777366,0.016526,0.012847
17,21,6,7,0,0,1,,1,S,0,S,29,0.016315,0.794995,0.012971
17,22,8,4,0,0,1,,4,S,0,S,15,0.754737,0.033948,0.025622
17,23,8,9,0,0,1,,1,S,0,S,22,0.049048,0.752645,0.036916
17,24,5,4,0,0,1,,1,S,0,S,18,0.773209,0.027568,0.021315
17,25,1,5,0,0,1,,4,S,0,S,15,0.035416,0.753586,0.026689
17,26,9,4,0,0,1,,5,S,0,S,13,0.776138,0.008077,0.006269
17,27,5,7,0,0,1,,2,S,0,S,20,0.016451,0.792933,0.013045
17,28,7,8,0,0,1,,1,S,0,S,17,0.014849,0.782163,0.011615
17,29,4,2,0,0,1,,2,S,0,S,18,0.753266,0.04497,0.033874
17,30,3,6,0,0,1,,3,S,0,S,15,0.024897,0.769557,0.01916
17,31,2,3,0,0,1,,1,S,0,S,17,0.027056,0.770898,0.020858
17,32,9,8,0,0,1,,1,S,0,S,17,0.772502,0.023873,0.018442
17,33,2,6,0,0,1,,4,S,0,S,14,0.009855,0.783628,0.007722
17,34,4,8,0,0,1,,4,S,0,S,14,0.014422,0.775415,0.011183
17,35,8,5,0,0,1,,3,S,0,S,16,0.777176,0.02042,0.01587
17,36,5,1,0,0,1,,4,S,0,S,14,0.761935,0.024811,0.018904
17,37,4,9,0,0,1,,5,S,0,S,15,0.02801,0.766694,0.021475
17,38,1,2,0,0,1,,1,S,0,S,17,0.03826,0.757969,0.029
17,39,3,8,0,0,1,,5,S,0,S,14,0,0.798303,0
17,40,5,6,0,0,1,,1,S,0,S,18,0.017787,0.787834,0.014013
17,41,5,3,0,0,1,,2,S,0,S,17,0.773299,0.025939,0.020059
17,42,3,9,0,0,1,,6,S,0,S,15,0.001157,0.800989,0.000927
17,43,2,1,0,0,1,,1,S,0,S,20,0.793952,0.011419,0.009066
17,44,6,5,0,0,1,,1,S,0,S,18,0.793471,0.011542,0.009158
17,45,1,3,0,0,1,,2,S,0,S,17,0.014398,0.785843,0.011315
17,46,9,7,0,0,1,,2,S,0,S,14,0.779599,0.012331,0.009613
17,47,4,5,0,0,1,,1,S,0,S,23,0.047187,0.754259,0.035591
17,48,5,8,0,0,1,,3,S,0,S,15,0.007062,0.790213,0.00558
17,49,7,4,0,0,1,,3,S,0,S,16,0.799383,0,0
17,50,3,7,0,0,1,,4,S,0,S,16,0.013708,0.788258,0.010805
17,51,5,2,0,0,1,,3,S,0,S,16,0.75975,0.036208,0.027509
17,52,8,6,0,0,1,,2,S,0,S,23,0.794428,0.014963,0.011887
17,53,9,5,0,0,1,,4,S,0,S,13,0.765781,0.016753,0.012829
17,54,6,2,0,0,1,,4,S,0,S,15,0.751529,0.038603,0.029011
17,55,3,4,0,0,1,,1,S,0,S,21,0.038534,0.762467,0.029381
17,56,7,1,0,0,1,,6,S,0,S,13,0.752882,0.023602,0.01777
17,57,7,2,0,0,1,,5,S,0,S,15,0.793036,0.004001,0.003173
17,58,1,8,0,0,1,,7,L,0,S,13,0,0.788352,0
17,59,2,5,0,0,1,,3,S,0,S,16,0.007262,0.794439,0.005769
17,60,5,9,0,0,1,,4,S,0,S,16,0.04067,0.754961,0.030704
17,61,7,5,0,0,1,,2,S,0,S,16,0.772211,0.022098,0.017065
17,62,3,2,0,0,1,,1,S,0,S,22,0.751632,0.049891,0.0375
17,63,7,6,0,0,1,,1,S,0,S,23,0.79247,0.014097,0.011172
17,64,1,9,0,0,1,,8,L,0,S,13,0.026535,0.755191,0.020039
17,65,8,7,0,0,1,,1,S,0,S,19,0.774158,0.029285,0.022671
17,66,4,3,0,0,1,,1,S,0,S,20,0.775879,0.027291,0.021175
17,67,8,1,0,0,1,,7,L,0,S,13,0.756942,0.022495,0.017027
17,68,6,1,0,0,1,,5,S,0,S,14,0.783162,0.007694,0.006025
17,69,3,5,0,0,1,,2,S,0,S,19,0.018594,0.786793,0.01463
17,70,6,3,0,0,1,,3,S,0,S,16,0.774844,0.02159,0.016729
17,71,4,6,0,0,1,,2,S,0,S,16,0.022477,0.776479,0.017453
17,72,7,9,0,0,1,,2,S,0,S,23,0.024766,0.780434,0.019328
18,1,5,9,0,0,1,,4,S,0,S,15,0.037326,0.753813,0.028137
18,2,8,2,0,0,1,,6,S,0,S,13,0.78716,0,0
18,3,1,2,0,0,1,,1,S,0,S,20,0.021787,0.781043,0.017017
18,4,5,7,0,0,1,,2,S,0,S,14,0.025244,0.76265,0.019252
18,5,4,1,0,0,1,,3,S,0,S,14,0.798171,0,0
18,6,5,2,0,0,1,,3,S,0,S,16,0.78343,0.015027,0.011772
18,7,6,4,0,0,1,,2,S,0,S,16,0.795314,0.004384,0.003487
18,8,5,6,0,0,1,,1,S,0,S,18,0.011918,0.793142,0.009453
18,9,5,1,0,0,1,,4,S,0,S,14,0.802354,0,0
18,10,3,1,0,0,1,,2,S,0,S,15,0.777995,0.015002,0.011672
18,11,7,9,0,0,1,,2,S,0,S,20,0.014902,0.792683,0.011813
18,12,1,6,0,0,1,,5,S,0,S,14,0.012184,0.778555,0.009486
18,13,4,6,0,0,1,,2,S,0,S,17,0.038612,0.756773,0.029221
18,14,4,2,0,0,1,,2,S,0,S,16,0.774695,0.021479,0.016639
18,15,4,5,0,0,1,,1,S,0,S,17,0.008802,0.794503,0.006993
18,16,2,9,0,0,1,,7,L,0,S,14,0.00894,0.783756,0.007007
18,17,2,5,0,0,1,,3,S,0,S,15,0,0.798741,0
18,18,7,4,0,0,1,,3,S,0,S,16,0.792411,0.006835,0.005416
18,19,4,3,0,0,1,,1,S,0,S,25,0.755289,0.046615,0.035207
18,20,9,3,0,0,1,,6,S,0,S,14,0.760691,0.025335,0.019272
18,21,2,8,0,0,1,,6,S,0,S,14,0.02778,0.759057,0.021087
18,22,7,6,0,0,1,,1,S,0,S,21,0.788584,0.017431,0.013746
18,23,7,3,0,0,1,,4,S,0,S,16,0.76846,0.027307,0.020984
18,24,6,8,0,0,1,,2,S,0,S,35,0.02794,0.779386,0.021776
18,25,6,9,0,0,1,,3,S,0,S,20,0.025431,0.779317,0.019818
18,26,6,1,0,0,1,,5,S,0,S,13,0.795806,0,0
18,27,2,1,0,0,1,,1,S,0,S,15,0.779318,0.014189,0.011058
18,28,8,5,0,0,1,,3,S,0,S,16,0.798488,0.002468,0.001971
18,29,6,5,0,0,1,,1,S,0,S,24,0.769116,0.033973,0.026129
18,30,7,1,0,0,1,,6,S,0,S,13,0.794921,0,0
18,31,9,2,0,0,1,,7,L,0,S,13,0.77043,0.011759,0.00906
18,32,7,2,0,0,1,,5,S,0,S,14,0.770951,0.017322,0.013355
18,33,4,9,0,0,1,,5,S,0,S,15,0.032502,0.759524,0.024686
18,34,7,5,0,0,1,,2,S,0,S,25,0.76331,0.039031,0.029793
18,35,2,3,0,0,1,,1,S,0,S,17,0.022647,0.776452,0.017584
18,36,3,9,0,0,1,,6,S,0,S,14,0.008692,0.78382,0.006813
18,37,1,5,0,0,1,,4,S,0,S,14,0.002112,0.791605,0.001672
18,38,8,7,0,0,1,,1,S,0,S,21,0.755164,0.043313,0.032709
18,39,9,1,0,0,1,,8,L,0,S,12,0.772077,0.004393,0.003391
18,40,6,7,0,0,1,,1,S,0,S,16,0.036386,0.755892,0.027504
18,41,5,8,0,0,1,,3,S,0,S,16,0.036665,0.758408,0.027807
18,42,8,9,0,0,0,,1,S,0,S,17,0.788803,0.013554,0.010692
18,43,8,4,0,0,1,,4,S,0,S,14,0.795489,0,0
18,44,1,7,0,0,1,,6,S,0,S,13,0,0.795598,0
18,45,8,6,0,0,1,,2,S,0,S,15,0.770857,0.021308,0.016425
18,46,9,4,0,0,1,,5,S,0,S,14,0.772886,0.01444,0.01116
18,47,6,2,0,0,1,,4,S,0,S,14,0.772623,0.015883,0.012271
18,48,3,5,0,0,1,,2,S,0,S,15,0,0.798881,0
18,49,3,2,0,0,1,,1,S,0,S,22,0.795223,0.010778,0.008571
18,50,2,7,0,0,1,,5,S,0,S,13,0.015657,0.766957,0.012008
18,51,9,8,0,0,1,,1,S,0,S,17,0.786708,0.014527,0.011428
18,52,8,3,0,0,1,,5,S,0,S,14,0.785629,0.006685,0.005252
18,53,9,5,0,0,1,,4,S,0,S,16,0.75216,0.038174,0.028713
18,54,4,8,0,0,1,,4,S,0,S,16,0.030127,0.766244,0.023085
18,55,5,4,0,0,1,,1,S,0,S,20,0.776368,0.02618,0.020326
18,56,1,8,0,0,1,,7,L,0,S,14,0,0.800679,0
18,57,3,4,0,0,1,,1,S,0,S,18,0.025162,0.77276,0.019444
18,58,3,7,0,0,1,,4,S,0,S,13,0.015477,0.766941,0.01187
18,59,7,8,0,0,1,,1,S,0,S,28,0.028143,0.779092,0.021926
18,60,5,3,0,0,1,,2,S,0,S,23,0.762675,0.040641,0.030996
18,61,1,9,0,0,1,,8,L,0,S,13,0.017637,0.766412,0.013517
18,62,1,3,0,0,1,,2,S,0,S,15,0.029002,0.762382,0.02211
18,63,2,4,0,0,1,,2,S,0,S,18,0.02644,0.77144,0.020397
18,64,6,3,0,0,1,,3,S,0,S,16,0.772112,0.024273,0.018741
18,65,3,8,0,0,1,,5,S,0,S,14,0.02746,0.759204,0.020848
18,66,9,7,0,0,0,,2,S,0,S,24,0.031929,0.770244,0.024593
18,67,1,4,0,0,1,,3,S,0,S,16,0.014868,0.782066,0.011628
18,68,3,6,0,0,1,,3,S,0,S,15,0.013042,0.781393,0.010191
18,69,2,6,0,0,1,,4,S,0,S,15,0.013423,0.781175,0.010486
18,70,8,1,0,0,1,,7,L,0,S,12,0.783749,0,0
18,71,9,6,0,0,1,,3,S,0,S,16,0.781068,0.015674,0.012242
18,72,4,7,0,0,1,,3,S,0,S,14,0.02216,0.766187,0.016979
19,1,5,4,0,0,1,,1,S,0,S,25,0.77894,0.025443,0.019819
19,2,6,2,0,0,1,,4,S,0,S,14,0.781687,0.008124,0.006351
19,3,1,5,0,0,1,,4,S,0,S,14,0.005726,0.784396,0.004492
19,4,5,2,0,0,1,,3,S,0,S,15,0.763058,0.029296,0.022354
19,5,7,1,0,0,1,,6,S,0,S,14,0.769317,0.019368,0.0149
19,6,5,3,0,0,1,,2,S,0,S,17,0.785522,0.015788,0.012402
19,7,5,8,0,0,1,,3,S,0,S,16,0.026548,0.771967,0.020494
19,8,4,2,0,0,1,,2,S,0,S,14,0.755765,0.03008,0.022733
19,9,8,6,0,0,1,,2,S,0,S,18,0.782987,0.020686,0.016197
19,10,9,3,0,0,1,,6,S,0,S,14,0.775838,0.013987,0.010851
19,11,9,5,0,0,1,,4,S,0,S,17,0.754303,0.038995,0.029414
19,12,6,9,0,0,1,,3,S,0,S,14,0.026571,0.75676,0.020108
19,13,7,2,0,0,1,,5,S,0,S,14,0.780161,0.012618,0.009844
19,14,6,7,0,0,1,,1,S,0,S,20,0.028963,0.770456,0.022315
19,15,7,6,0,0,1,,1,S,0,S,26,0.789811,0.0189,0.014927
19,16,8,9,0,0,1,,1,S,0,S,15,0.01481,0.782257,0.011585
19,17,4,1,0,0,1,,3,S,0,S,15,0.794883,0.002004,0.001593
19,18,8,3,0,0,1,,5,S,0,S,14,0.781238,0.011449,0.008944
19,19,6,4,0,0,1,,2,S,0,S,17,0.792275,0.00591,0.004682
19,20,1,7,0,0,1,,6,S,0,S,13,0.010717,0.773274,0.008287
19,21,1,8,0,0,1,,7,L,0,S,13,0.017746,0.765533,0.013585
19,22,5,6,0,0,1,,1,S,0,S,17,0.041746,0.752679,0.031421
19,23,9,2,0,0,1,,7,L,0,S,13,0.757668,0.02372,0.017972
19,24,4,3,0,0,1,,1,S,0,S,15,0.754027,0.03436,0.025908
19,25,4,9,0,0,1,,5,S,0,S,14,0.002111,0.791433,0.001671
19,26,7,8,0,0,1,,1,S,0,S,20,0.043906,0.758674,0.03331
19,27,1,3,0,0,1,,2,S,0,S,17,0.011657,0.788272,0.009189
19,28,5,7,0,0,1,,2,S,0,S,16,0.006896,0.795198,0.005484
19,29,7,5,0,0,1,,2,S,0,S,22,0.787968,0.018543,0.014611
19,30,9,6,0,0,1,,3,S,0,S,18,0.771627,0.027818,0.021465
19,31,2,5,0,0,1,,3,S,0,S,15,0.019803,0.770016,0.015249
19,32,3,5,0,0,1,,2,S,0,S,17,0.026083,0.76983,0.02008
19,33,9,7,0,0,1,,2,S,0,S,26,0.756203,0.045474,0.034388
19,34,2,4,0,0,1,,2,S,0,S,17,0.01521,0.781297,0.011884
19,35,8,1,0,0,1,,7,L,0,S,13,0.753369,0.027003,0.020343
19,36,1,6,0,0,1,,5,S,0,S,14,0,0.794677,0
19,37,3,4,0,0,1,,1,S,0,S,23,0.011494,0.793768,0.009124
19,38,4,5,0,0,1,,1,S,0,S,25,0.036131,0.765147,0.027645
19,39,6,8,0,0,1,,2,S,0,S,23,0.03015,0.772857,0.023302
19,40,3,2,0,0,1,,1,S,0,S,16,0.778628,0.018716,0.014573
19,41,8,4,0,0,1,,4,S,0,S,15,0.76102,0.029736,0.02263
19,42,1,2,0,0,1,,1,S,0,S,19,0.043882,0.752425,0.033018
19,43,7,9,0,0,1,,2,S,0,S,14,0.015527,0.77563,0.012043
19,44,3,7,0,0,1,,4,S,0,S,15,0.022134,0.770373,0.017051
19,45,7,3,0,0,1,,4,S,0,S,15,0.786533,0.010493,0.008253
19,46,8,5,0,0,1,,3,S,0,S,17,0.764415,0.032937,0.025178
19,47,2,1,0,0,1,,1,S,0,S,21,0.794667,0.009247,0.007348
19,48,9,4,0,0,1,,5,S,0,S,15,0.754009,0.033396,0.025181
19,49,1,4,0,0,1,,3,S,0,S,15,0.009123,0.783864,0.007151
19,50,3,8,0,0,1,,5,S,0,S,15,0.038209,0.751362,0.028709
19,51,2,3,0,0,1,,1,S,0,S,24,0.013823,0.79129,0.010938
19,52,1,9,0,0,1,,8,L,0,S,12,0,0.781851,0
19,53,8,2,0,0,1,,6,S,0,S,13,0.762411,0.021689,0.016536
19,54,6,5,0,0,1,,1,S,0,S,20,0.764754,0.031812,0.024328
19,55,3,6,0,0,1,,3,S,0,S,17,0.005934,0.796331,0.004725
19,56,6,3,0,0,1,,3,S,0,S,15,0.790101,0.004252,0.00336
19,57,2,7,0,0,1,,5,S,0,S,14,0.010891,0.778667,0.00848
19,58,9,8,0,0,1,,1,S,0,S,21,0.784371,0.02285,0.017923
19,59,4,7,0,0,1,,3,S,0,S,17,0.033024,0.763589,0.025217
19,60,5,1,0,0,1,,4,S,0,S,16,0.797187,0.003775,0.003009
19,61,8,7,0,0,1,,1,S,0,S,25,0.775255,0.032087,0.024876
19,62,6,1,0,0,1,,5,S,0,S,14,0.771154,0.014586,0.011248
19,63,2,6,0,0,1,,4,S,0,S,15,0.008873,0.785054,0.006966
19,64,7,4,0,0,1,,3,S,0,S,17,0.779762,0.019531,0.01523
19,65,2,9,0,0,1,,7,L,0,S,12,0.018847,0.752487,0.014182
19,66,4,6,0,0,1,,2,S,0,S,22,0.011688,0.795569,0.009299
19,67,3,9,0,0,1,,6,S,0,S,13,0.006848,0.778455,0.005331
19,68,4,8,0,0,1,,4,S,0,S,18,0.032777,0.767893,0.025169
19,69,5,9,0,0,1,,4,S,0,S,13,0.015632,0.768389,0.012012
19,70,3,1,0,0,1,,2,S,0,S,16,0.759902,0.031578,0.023996
19,71,2,8,0,0,1,,6,S,0,S,14,0.020863,0.767294,0.016008
19,72,9,1,0,0,1,,8,L,0,S,14,0.801749,0,0
20,1,7,4,0,0,1,,3,S,0,S,16,0.758174,0.035226,0.026707
20,2,1,9,0,0,1,,8,L,0,S,13,0,0.795757,0
20,3,8,2,0,0,1,,6,S,0,S,13,0.776082,0.008722,0.006769
20,4,8,5,0,0,1,,3,S,0,S,17,0.78731,0.014562,0.011464
20,5,7,3,0,0,1,,4,S,0,S,15,0.770129,0.022833,0.017584
20,6,9,6,0,0,1,,3,S,0,S,17,0.790968,0.010279,0.00813
20,7,9,2,0,0,1,,7,L,0,S,13,0.793321,0,0
20,8,5,6,0,0,1,,1,S,0,S,17,0.032219,0.766415,0.024693
20,9,2,8,0,0,1,,6,S,0,S,14,0.003644,0.789369,0.002876
20,10,3,1,0,0,1,,2,S,0,S,18,0.781627,0.020344,0.015902
20,11,7,9,0,0,1,,2,S,0,S,21,0.044402,0.755259,0.033535
20,12,7,5,0,0,1,,2,S,0,S,17,0.766149,0.030586,0.023433
20,13,3,8,0,0,1,,5,S,0,S,13,0.02378,0.757697,0.018018
20,14,1,7,0,0,1,,6,S,0,S,13,0.014173,0.765576,0.01085
20,15,6,4,0,0,1,,2,S,0,S,19,0.788142,0.01827,0.0144
20,16,8,9,0,0,1,,1,S,0,S,23,0.049827,0.750565,0.037398
20,17,9,7,0,0,1,,2,S,0,S,17,0.776404,0.019413,0.015073
20,18,4,2,0,0,1,,2,S,0,S,14,0.761229,0.025568,0.019463
20,19,4,6,0,0,1,,2,S,0,S,18,0.013555,0.791946,0.010735
20,20,2,6,0,0,1,,4,S,0,S,15,0.0309,0.759506,0.023468
20,21,6,2,0,0,1,,4,S,0,S,14,0.796089,0,0
20,22,2,4,0,0,1,,2,S,0,S,17,0.03144,0.765776,0.024076
20,23,4,7,0,0,1,,3,S,0,S,18,0.008889,0.794819,0.007065
20,24,9,5,0,0,1,,4,S,0,S,16,0.798096,0.002226,0.001777
20,25,6,5,0,0,1,,1,S,0,S,21,0.778783,0.026731,0.020818
20,26,2,3,0,0,1,,1,S,0,S,21,0.013751,0.793453,0.010911
20,27,5,2,0,0,1,,3,S,0,S,14,0.753277,0.031729,0.023901
20,28,5,7,0,0,1,,2,S,0,S,17,0.028183,0.768517,0.021659
20,29,3,2,0,0,1,,1,S,0,S,17,0.789052,0.012418,0.009799
20,30,8,1,0,0,1,,7,L,0,S,13,0.762734,0.019167,0.014619
20,31,9,1,0,0,1,,8,L,0,S,13,0.781979,0.003151,0.002464
20,32,3,4,0,0,1,,1,S,0,S,16,0.022947,0.77513,0.017787
20,33,4,9,0,0,1,,5,S,0,S,16,0.007008,0.795648,0.005576
20,34,7,8,0,0,1,,1,S,0,S,18,0.025204,0.774981,0.019532
20,35,5,9,0,0,1,,4,S,0,S,15,0.033843,0.757716,0.025643
20,36,5,3,0,0,1,,2,S,0,S,20,0.794084,0.014142,0.01123
20,37,2,1,0,0,1,,1,S,0,S,17,0.795743,0.006477,0.005154
20,38,4,5,0,0,1,,1,S,0,S,21,0.02647,0.778825,0.020616
20,39,5,4,0,0,0,,1,S,0,S,23,0.036519,0.768414,0.028061
20,40,2,9,0,0,1,,7,L,0,S,14,0.024363,0.76309,0.018591
20,41,7,1,0,0,1,,6,S,0,S,13,0.755753,0.023864,0.018035
20,42,6,8,0,0,1,,2,S,0,S,16,0.018103,0.781086,0.01414
20,43,5,8,0,0,1,,3,S,0,S,15,0.00377,0.795598,0.002999
20,44,8,7,0,0,1,,1,S,0,S,19,0.763071,0.034593,0.026397
20,45,1,6,0,0,1,,5,S,0,S,13,0.014443,0.767836,0.01109
20,46,2,7,0,0,1,,5,S,0,S,15,0.029352,0.758597,0.022266
20,47,9,8,0,0,0,,1,S,0,S,26,0.042213,0.757605,0.031981
20,48,2,5,0,0,1,,3,S,0,S,16,0.03728,0.754618,0.028132
20,49,1,2,0,0,1,,1,S,0,S,20,0.032865,0.764666,0.02513
20,50,7,6,0,0,1,,1,S,0,S,20,0.79294,0.013491,0.010698
20,51,1,4,0,0,1,,3,S,0,S,14,0.006384,0.785046,0.005012
20,52,1,5,0,0,1,,4,S,0,S,14,0,0.797461,0
20,53,6,7,0,0,1,,1,S,0,S,22,0.019115,0.786308,0.01503
20,54,4,8,0,0,1,,4,S,0,S,15,0.010877,0.786403,0.008553
20,55,6,3,0,0,1,,3,S,0,S,16,0.755222,0.03893,0.029401
20,56,3,9,0,0,1,,6,S,0,S,14,0.005621,0.788712,0.004434
20,57,3,7,0,0,1,,4,S,0,S,15,0.003771,0.792943,0.00299
20,58,7,2,0,0,1,,5,S,0,S,13,0.769702,0.012982,0.009992
20,59,8,3,0,0,1,,5,S,0,S,15,0.781963,0.014252,0.011145
20,60,8,4,0,0,1,,4,S,0,S,16,0.775216,0.022548,0.017479
20,61,9,3,0,0,1,,6,S,0,S,14,0.764946,0.021945,0.016787
20,62,4,3,0,0,1,,1,S,0,S,19,0.785232,0.02024,0.015893
20,63,6,9,0,0,1,,3,S,0,S,17,0.032488,0.766415,0.024899
20,64,8,6,0,0,1,,2,S,0,S,19,0.786739,0.018253,0.01436
20,65,1,8,0,0,1,,7,L,0,S,12,0.017512,0.754556,0.013214
20,66,4,1,0,0,1,,3,S,0,S,15,0.790558,0.007079,0.005596
20,67,5,1,0,0,1,,4,S,0,S,15,0.781462,0.01424,0.011128
20,68,1,3,0,0,1,,2,S,0,S,15,0,0.799342,0
20,69,9,4,0,0,1,,5,S,0,S,15,0.774108,0.018797,0.014551
20,70,3,6,0,0,1,,3,S,0,S,15,0.004681,0.794519,0.003719
20,71,3,5,0,0,1,,2,S,0,S,15,0.037529,0.751786,0.028214
20,72,6,1,0,0,1,,5,S,0,S,14,0.779118,0.012416,0.009674
21,1,4,6,0,0,1,,2,S,0,S,17,0.025187,0.770039,0.019395
21,2,8,2,0,0,1,,6,S,0,S,14,0.790149,0.005902,0.004663
21,3,6,1,0,0,1,,5,S,0,S,13,0.784722,0.001599,0.001255
21,4,7,9,0,0,1,,2,S,0,S,20,0.027331,0.775513,0.021195
21,5,3,7,0,0,1,,4,S,0,S,15,0.002738,0.789683,0.002162
21,6,4,3,0,0,1,,1,S,0,S,27,0.794543,0.013192,0.010482
21,7,2,1,0,0,1,,1,S,0,S,14,0.756329,0.028746,0.021741
21,8,3,9,0,0,1,,6,S,0,S,15,0,0.798229,0
21,9,9,8,0,0,1,,1,S,0,S,19,0.762908,0.035977,0.027447
21,10,7,2,0,0,1,,5,S,0,S,14,0.75103,0.035457,0.026629
21,11,7,1,0,0,1,,6,S,0,S,13,0.78918,0,0
21,12,7,8,0,0,1,,1,S,0,S,17,0.008809,0.794322,0.006997
21,13,7,6,0,0,1,,1,S,0,S,21,0.772545,0.028793,0.022244
21,14,6,2,0,0,1,,4,S,0,S,15,0.793722,0.006483,0.005145
21,15,2,6,0,0,1,,4,S,0,S,16,0.009879,0.78955,0.0078
21,16,1,3,0,0,1,,2,S,0,S,16,0.028483,0.766055,0.02182
21,17,7,4,0,0,1,,3,S,0,S,17,0.766827,0.0319,0.024462
21,18,3,8,0,0,1,,5,S,0,S,14,0.001209,0.790242,0.000955
21,19,7,5,0,0,1,,2,S,0,S,21,0.755252,0.043745,0.033038
21,20,5,1,0,0,1,,4,S,0,S,13,0.765117,0.016348,0.012508
21,21,1,7,0,0,1,,6,S,0,S,14,0,0.792305,0
21,22,3,2,0,0,1,,1,S,0,S,21,0.776298,0.026856,0.020848
21,23,5,2,0,0,1,,3,S,0,S,15,0.751904,0.039051,0.029363
21,24,6,8,0,0,1,,2,S,0,S,16,0.030941,0.763757,0.023631
21,25,8,4,0,0,1,,4,S,0,S,16,0.798047,0.005713,0.004559
21,26,9,7,0,0,1,,2,S,0,S,16,0.755306,0.034089,0.025748
21,27,5,6,0,0,1,,1,S,0,S,21,0.029501,0.771936,0.022773
21,28,9,2,0,0,1,,7,L,0,S,13,0.782024,0.006152,0.004811
21,29,3,1,0,0,1,,2,S,0,S,15,0.795526,0,0
21,30,3,4,0,0,1,,1,S,0,S,17,0.03184,0.76346,0.024309
21,31,8,5,0,0,1,,3,S,0,S,17,0.755053,0.039928,0.030148
21,32,9,6,0,0,1,,3,S,0,S,15,0.77561,0.016485,0.012786
21,33,2,5,0,0,1,,3,S,0,S,16,0.005579,0.796351,0.004443
21,34,1,5,0,0,1,,4,S,0,S,14,0.025474,0.760608,0.019375
21,35,8,7,0,0,1,,1,S,0,S,22,0.773831,0.027923,0.021608
21,36,2,3,0,0,1,,1,S,0,S,20,0.018621,0.787846,0.01467
21,37,1,6,0,0,1,,5,S,0,S,14,0.028328,0.755549,0.021403
21,38,5,4,0,0,1,,1,S,0,S,21,0.782642,0.024158,0.018907
21,39,1,8,0,0,1,,7,L,0,S,13,0.007365,0.778493,0.005734
21,40,1,4,0,0,1,,3,S,0,S,15,0.02554,0.767824,0.01961
21,41,9,3,0,0,1,,6,S,0,S,14,0.795968,0,0
21,42,7,3,0,0,1,,4,S,0,S,16,0.778197,0.019322,0.015036
21,43,4,2,0,0,1,,2,S,0,S,17,0.753111,0.042179,0.031766
21,44,9,1,0,0,1,,8,L,0,S,12,0.78257,0,0
21,45,6,7,0,0,1,,1,S,0,S,19,0.041367,0.753586,0.031173
21,46,2,8,0,0,1,,6,S,0,S,14,0.000476,0.795303,0.000378
21,47,6,5,0,0,1,,1,S,0,S,24,0.78626,0.020436,0.016068
21,48,6,4,0,0,1,,2,S,0,S,18,0.791179,0.014497,0.01147
21,49,4,8,0,0,1,,4,S,0,S,14,0.02369,0.762632,0.018066
21,50,4,7,0,0,1,,3,S,0,S,16,0,0.799045,0
21,51,9,4,0,0,1,,5,S,0,S,14,0.773354,0.017198,0.0133
21,52,4,1,0,0,1,,3,S,0,S,14,0.781262,0.007757,0.00606
21,53,5,7,0,0,1,,2,S,0,S,17,0.028602,0.766126,0.021913
21,54,3,6,0,0,1,,3,S,0,S,16,0.010001,0.784895,0.007849
21,55,8,3,0,0,1,,5,S,0,S,15,0.786022,0.011001,0.008647
21,56,5,8,0,0,1,,3,S,0,S,15,0.027531,0.764285,0.021042
21,57,2,9,0,0,1,,7,L,0,S,14,0.033759,0.751859,0.025382
21,58,1,2,0,0,1,,1,S,0,S,19,0.033633,0.768818,0.025858
21,59,4,9,0,0,1,,5,S,0,S,15,0.029729,0.759587,0.022582
21,60,8,9,0,0,0,,1,S,0,S,22,0.755781,0.04503,0.034033
21,61,8,6,0,0,1,,2,S,0,S,17,0.758732,0.035907,0.027244
21,62,3,5,0,0,1,,2,S,0,S,16,0.005734,0.791712,0.00454
21,63,2,4,0,0,1,,2,S,0,S,17,0.033798,0.76572,0.02588
21,64,9,5,0,0,1,,4,S,0,S,15,0.775125,0.017897,0.013872
21,65,6,9,0,0,1,,3,S,0,S,19,0.027647,0.774268,0.021407
21,66,1,9,0,0,1,,8,L,0,S,14,0,0.799372,0
21,67,6,3,0,0,1,,3,S,0,S,16,0.763088,0.031384,0.023949
21,68,5,3,0,0,1,,2,S,0,S,18,0.783566,0.019072,0.014944
21,69,5,9,0,0,1,,4,S,0,S,17,0.020538,0.779562,0.016011
21,70,2,7,0,0,1,,5,S,0,S,15,0.00202,0.794925,0.001606
21,71,8,1,0,0,1,,7,L,0,S,12,0.754923,0.017856,0.01348
21,72,4,5,0,0,1,,1,S,0,S,17,0.019013,0.779314,0.014817
22,1,2,4,0,0,1,,2,S,0,S,17,0.038227,0.755754,0.02889
22,2,9,1,0,0,1,,8,L,0,S,13,0.759292,0.021344,0.016206
22,3,1,5,0,0,1,,4,S,0,S,14,0.018062,0.768902,0.013888
22,4,1,7,0,0,1,,6,S,0,S,13,0.022168,0.754994,0.016737
22,5,4,2,0,0,1,,2,S,0,S,17,0.753402,0.041545,0.0313
22,6,5,1,0,0,1,,4,S,0,S,15,0.786639,0.009518,0.007487
22,7,1,9,0,0,1,,8,L,0,S,12,0.017522,0.753428,0.013201
22,8,2,1,0,0,1,,1,S,0,S,18,0.765537,0.031374,0.024018
22,9,2,5,0,0,1,,3,S,0,S,15,0.032554,0.755343,0.024589
22,10,6,1,0,0,1,,5,S,0,S,14,0.764629,0.02241,0.017135
22,11,3,9,0,0,1,,6,S,0,S,13,0.020353,0.759129,0.015451
22,12,2,8,0,0,1,,6,S,0,S,14,0.026777,0.757708,0.020289
22,13,2,9,0,0,1,,7,L,0,S,13,0.005106,0.77889,0.003977
22,14,7,9,0,0,1,,2,S,0,S,15,0.016738,0.77681,0.013002
22,15,9,8,0,0,1,,1,S,0,S,21,0.752352,0.045446,0.034191
22,16,1,3,0,0,1,,2,S,0,S,16,0.008585,0.790621,0.006788
22,17,8,1,0,0,1,,7,L,0,S,13,0.773591,0.011843,0.009162
22,18,3,6,0,0,1,,3,S,0,S,18,0.007752,0.796982,0.006178
22,19,8,2,0,0,1,,6,S,0,S,14,0.775012,0.015804,0.012249
22,20,6,4,0,0,1,,2,S,0,S,17,0.751849,0.042225,0.031747
22,21,8,7,0,0,1,,1,S,0,S,20,0.769949,0.030723,0.023655
22,22,2,6,0,0,1,,4,S,0,S,16,0.024092,0.771004,0.018575
22,23,3,7,0,0,1,,4,S,0,S,15,0.011938,0.780491,0.009318
22,24,1,6,0,0,1,,5,S,0,S,15,0,0.799054,0
22,25,6,2,0,0,1,,4,S,0,S,16,0.779539,0.01758,0.013705
22,26,1,8,0,0,1,,7,L,0,S,13,0.025548,0.752332,0.01922
22,27,7,5,0,0,1,,2,S,0,S,21,0.779913,0.02471,0.019272
22,28,5,9,0,0,1,,4,S,0,S,14,0.016303,0.771927,0.012585
22,29,4,5,0,0,1,,1,S,0,S,19,0.037027,0.762873,0.028247
22,30,9,7,0,0,1,,2,S,0,S,24,0.781259,0.021827,0.017052
22,31,9,2,0,0,1,,7,L,0,S,14,0.755228,0.029574,0.022335
22,32,4,3,0,0,1,,1,S,0,S,19,0.783202,0.021865,0.017125
22,33,6,9,0,0,1,,3,S,0,S,15,0.002815,0.793679,0.002234
22,34,2,3,0,0,1,,1,S,0,S,18,0.043228,0.751762,0.032497
22,35,8,3,0,0,1,,5,S,0,S,14,0.757579,0.030015,0.022739
22,36,7,8,0,0,1,,1,S,0,S,20,0.032154,0.769564,0.024744
22,37,2,7,0,0,1,,5,S,0,S,14,0.021942,0.762133,0.016723
22,38,3,4,0,0,1,,1,S,0,S,20,0.028956,0.773008,0.022383
22,39,7,6,0,0,1,,1,S,0,S,18,0.761864,0.037002,0.028191
22,40,4,8,0,0,1,,4,S,0,S,16,0.03675,0.756373,0.027797
22,41,4,6,0,0,1,,2,S,0,S,23,0.044765,0.757584,0.033913
22,42,1,4,0,0,1,,3,S,0,S,15,0.026089,0.764342,0.019941
22,43,4,1,0,0,1,,3,S,0,S,15,0.779479,0.0159,0.012394
22,44,3,1,0,0,1,,2,S,0,S,16,0.753016,0.037758,0.028432
22,45,9,5,0,0,1,,4,S,0,S,17,0.768409,0.02831,0.021753
22,46,9,6,0,0,1,,3,S,0,S,16,0.770517,0.025266,0.019468
22,47,5,3,0,0,1,,2,S,0,S,18,0.763316,0.035487,0.027088
22,48,3,2,0,0,1,,1,S,0,S,23,0.753874,0.044988,0.033915
22,49,1,2,0,0,1,,1,S,0,S,16,0.036779,0.753397,0.02771
22,50,3,8,0,0,1,,5,S,0,S,15,0.018114,0.774452,0.014029
22,51,4,9,0,0,1,,5,S,0,S,14,0.010393,0.780644,0.008113
22,52,5,6,0,0,1,,1,S,0,S,29,0.040216,0.763307,0.030697
22,53,5,2,0,0,1,,3,S,0,S,17,0.771273,0.026615,0.020528
22,54,3,5,0,0,1,,2,S,0,S,16,0.038118,0.752564,0.028686
22,55,6,3,0,0,1,,3,S,0,S,17,0.792792,0.010125,0.008027
22,56,9,3,0,0,1,,6,S,0,S,15,0.787123,0.009588,0.007547
22,57,8,4,0,0,1,,4,S,0,S,15,0.790834,0.007967,0.0063
22,58,5,4,0,0,1,,1,S,0,S,20,0.782757,0.02206,0.017268
22,59,8,9,0,0,1,,1,S,0,S,17,0.023535,0.775224,0.018245
22,60,7,4,0,0,1,,3,S,0,S,17,0.794765,0.009275,0.007371
22,61,7,2,0,0,1,,5,S,0,S,15,0.757312,0.032828,0.024861
22,62,8,5,0,0,1,,3,S,0,S,16,0.761007,0.033434,0.025444
22,63,6,8,0,0,1,,2,S,0,S,18,0.043596,0.751077,0.032744
22,64,7,3,0,0,1,,4,S,0,S,16,0.778433,0.020178,0.015707
22,65,9,4,0,0,1,,5,S,0,S,15,0.76608,0.025792,0.019759
22,66,7,1,0,0,1,,6,S,0,S,14,0.781541,0.010222,0.007989
22,67,4,7,0,0,1,,3,S,0,S,16,0.026271,0.767762,0.02017
22,68,8,6,0,0,1,,2,S,0,S,15,0.752064,0.038146,0.028688
22,69,6,5,0,0,1,,1,S,0,S,27,0.783807,0.022267,0.017453
22,70,6,7,0,0,1,,1,S,0,S,18,0.023591,0.774355,0.018268
22,71,5,8,0,0,1,,3,S,0,S,17,0.014424,0.786499,0.011344
22,72,5,7,0,0,1,,2,S,0,S,16,0.038861,0.750461,0.029163
23,1,7,9,0,0,1,,2,S,0,S,18,0.035781,0.762626,0.027288
23,2,9,2,0,0,1,,7,L,0,S,14,0.750689,0.033494,0.025144
23,3,6,8,0,0,1,,2,S,0,S,19,0.032094,0.767812,0.024642
23,4,6,3,0,0,1,,3,S,0,S,16,0.795167,0.003802,0.003023
23,5,6,5,0,0,1,,1,S,0,S,21,0.775114,0.028552,0.022131
23,6,7,4,0,0,1,,3,S,0,S,17,0.767738,0.029049,0.022302
23,7,4,8,0,0,1,,4,S,0,S,17,0.013919,0.78783,0.010966
23,8,2,9,0,0,1,,7,L,0,S,14,0.00149,0.794369,0.001183
23,9,6,9,0,0,1,,3,S,0,S,17,0.008507,0.795304,0.006765
23,10,8,4,0,0,1,,4,S,0,S,17,0.76126,0.036667,0.027913
23,11,9,1,0,0,1,,8,L,0,S,13,0.762147,0.020568,0.015676
23,12,8,2,0,0,1,,6,S,0,S,15,0.78566,0.011564,0.009086
23,13,3,5,0,0,1,,2,S,0,S,17,0.036908,0.759878,0.028045
23,14,5,8,0,0,1,,3,S,0,S,18,0.00673,0.797453,0.005367
23,15,5,4,0,0,1,,1,S,0,S,23,0.773641,0.029406,0.02275
23,16,4,7,0,0,1,,3,S,0,S,17,0.036193,0.759609,0.027493
23,17,3,4,0,0,1,,1,S,0,S,18,0.03536,0.763302,0.02699
23,18,1,8,0,0,1,,7,L,0,S,13,0.024382,0.755687,0.018426
23,19,4,5,0,0,1,,1,S,0,S,22,0.013111,0.795673,0.010432
23,20,3,8,0,0,1,,5,S,0,S,15,0.029337,0.762074,0.022357
23,21,4,9,0,0,1,,5,S,0,S,15,0.031307,0.760408,0.023806
23,22,7,8,0,0,1,,1,S,0,S,26,0.024126,0.78143,0.018853
23,23,9,4,0,0,1,,5,S,0,S,16,0.750084,0.041776,0.031336
23,24,3,9,0,0,1,,6,S,0,S,14,0.028661,0.759103,0.021756
23,25,5,2,0,0,1,,3,S,0,S,16,0.759061,0.032468,0.024646
23,26,6,1,0,0,1,,5,S,0,S,14,0.781814,0.009755,0.007626
23,27,4,2,0,0,1,,2,S,0,S,17,0.781904,0.017841,0.01395
23,28,3,2,0,0,1,,1,S,0,S,20,0.779416,0.023892,0.018622
23,29,8,3,0,0,1,,5,S,0,S,15,0.783298,0.012437,0.009742
23,30,9,3,0,0,1,,6,S,0,S,15,0.7997,0,0
23,31,4,6,0,0,1,,2,S,0,S,20,0.026713,0.777684,0.020774
23,32,9,6,0,0,1,,3,S,0,S,18,0.79073,0.014545,0.011501
23,33,2,4,0,0,1,,2,S,0,S,16,0.02931,0.765985,0.022451
23,34,3,7,0,0,1,,4,S,0,S,16,0.006544,0.794951,0.005202
23,35,2,6,0,0,1,,4,S,0,S,15,0.034225,0.756911,0.025905
23,36,2,1,0,0,1,,1,S,0,S,17,0.770011,0.028623,0.02204
23,37,7,6,0,0,1,,1,S,0,S,19,0.791335,0.014076,0.011139
23,38,5,6,0,0,1,,1,S,0,S,23,0.016032,0.791476,0.012689
23,39,1,6,0,0,1,,5,S,0,S,14,0.014907,0.775799,0.011565
23,40,1,4,0,0,1,,3,S,0,S,14,0.033355,0.750703,0.025039
23,41,8,1,0,0,1,,7,L,0,S,13,0.75187,0.029482,0.022166
23,42,2,8,0,0,1,,6,S,0,S,14,0.029439,0.756839,0.022281
23,43,7,5,0,0,1,,2,S,0,S,18,0.77804,0.023118,0.017987
23,44,5,7,0,0,1,,2,S,0,S,18,0.035289,0.76145,0.026871
23,45,6,4,0,0,1,,2,S,0,S,19,0.764479,0.034789,0.026595
23,46,2,5,0,0,1,,3,S,0,S,16,0.009909,0.791368,0.007842
23,47,7,1,0,0,1,,6,S,0,S,13,0.750971,0.028012,0.021036
23,48,7,2,0,0,1,,5,S,0,S,15,0.785935,0.009067,0.007126
23,49,2,3,0,0,1,,1,S,0,S,23,0.027283,0.775716,0.021164
23,50,2,7,0,0,1,,5,S,0,S,15,0.002981,0.795981,0.002373
23,51,1,9,0,0,1,,8,L,0,S,13,0.004425,0.783242,0.003466
23,52,9,7,0,0,1,,2,S,0,S,21,0.770727,0.032441,0.025003
23,53,1,2,0,0,1,,1,S,0,S,17,0.007327,0.794499,0.005821
23,54,9,5,0,0,1,,4,S,0,S,17,0.768846,0.029909,0.022996
23,55,1,3,0,0,1,,2,S,0,S,17,0.008825,0.791297,0.006983
23,56,8,6,0,0,1,,2,S,0,S,19,0.777283,0.027885,0.021674
23,57,1,7,0,0,1,,6,S,0,S,14,0,0.800513,0
23,58,3,6,0,0,1,,3,S,0,S,17,0.017298,0.785145,0.013581
23,59,8,7,0,0,1,,1,S,0,S,30,0.773806,0.033382,0.025831
23,60,6,2,0,0,1,,4,S,0,S,16,0.797752,0.002764,0.002205
23,61,5,3,0,0,1,,2,S,0,S,16,0.756314,0.033557,0.02538
23,62,1,5,0,0,1,,4,S,0,S,14,0.022122,0.766023,0.016946
23,63,3,1,0,0,1,,2,S,0,S,16,0.797032,0.005151,0.004105
23,64,4,1,0,0,1,,3,S,0,S,15,0.799339,0.000287,0.00023
23,65,6,7,0,0,1,,1,S,0,S,21,0.012041,0.794941,0.009572
23,66,4,3,0,0,1,,1,S,0,S,17,0.779048,0.019044,0.014836
23,67,5,9,0,0,1,,4,S,0,S,16,0.012819,0.786463,0.010082
23,68,9,8,0,0,1,,1,S,0,S,24,0.757353,0.044316,0.033563
23,69,8,5,0,0,1,,3,S,0,S,18,0.768037,0.033608,0.025812
23,70,5,1,0,0,1,,4,S,0,S,14,0.75998,0.025981,0.019745
23,71,7,3,0,0,1,,4,S,0,S,15,0.783532,0.009965,0.007808
23,72,8,9,0,0,1,,1,S,0,S,18,0.018073,0.788138,0.014244
24,1,1,7,0,0,1,,6,S,0,S,13,0.009877,0.775206,0.007656
24,2,3,8,0,0,1,,5,S,0,S,14,0.020088,0.767902,0.015426
24,3,9,4,0,0,1,,5,S,0,S,15,0.80135,0,0
24,4,7,1,0,0,1,,6,S,0,S,13,0.76224,0.019565,0.014913
24,5,9,6,0,0,1,,3,S,0,S,17,0.767275,0.034656,0.026591
24,6,4,6,0,0,1,,2,S,0,S,21,0.030416,0.776193,0.023609
24,7,3,1,0,0,1,,2,S,0,S,14,0.756493,0.028194,0.021328
24,8,1,9,0,0,1,,8,L,0,S,13,0.001851,0.785847,0.001454
24,9,8,2,0,0,1,,6,S,0,S,14,0.782232,0.008375,0.006551
24,10,1,3,0,0,1,,2,S,0,S,17,0.027605,0.77236,0.021321
24,11,3,4,0,0,0,,1,S,0,S,22,0.794212,0.011689,0.009283
24,12,4,5,0,0,1,,1,S,0,S,26,0.031334,0.776346,0.024326
24,13,4,2,0,0,1,,2,S,0,S,15,0.774135,0.019759,0.015296
24,14,5,4,0,0,0,,1,S,0,S,35,0.019838,0.786868,0.01561
24,15,5,7,0,0,1,,2,S,0,S,15,0.01552,0.77826,0.012079
24,16,8,5,0,0,1,,3,S,0,S,17,0.75484,0.040413,0.030505
24,17,9,1,0,0,1,,8,L,0,S,13,0.799612,0,0
24,18,1,4,0,0,1,,3,S,0,S,15,0.024972,0.76688,0.019151
24,19,4,8,0,0,1,,4,S,0,S,15,0.027051,0.764943,0.020692
24,20,9,3,0,0,1,,6,S,0,S,14,0.802969,0,0
24,21,4,3,0,0,1,,1,S,0,S,15,0.777015,0.018225,0.014161
24,22,3,2,0,0,1,,1,S,0,S,17,0.786953,0.013828,0.010882
24,23,3,9,0,0,1,,6,S,0,S,15,0.016529,0.776063,0.012827
24,24,2,8,0,0,1,,6,S,0,S,13,0,0.795356,0
24,25,7,9,0,0,1,,2,S,0,S,17,0.04133,0.751904,0.031076
24,26,1,6,0,0,1,,5,S,0,S,13,0.028749,0.7542,0.021683
24,27,4,7,0,0,1,,3,S,0,S,17,0.037795,0.756382,0.028588
24,28,4,9,0,0,1,,5,S,0,S,17,0.005446,0.797468,0.004343
24,29,9,7,0,0,1,,2,S,0,S,21,0.753699,0.046591,0.035116
24,30,5,8,0,0,1,,3,S,0,S,14,0.00729,0.785455,0.005726
24,31,7,2,0,0,1,,5,S,0,S,15,0.796706,0.002181,0.001738
24,32,6,8,0,0,1,,2,S,0,S,16,0.006835,0.794819,0.005433
24,33,8,6,0,0,1,,2,S,0,S,18,0.759342,0.03918,0.029751
24,34,3,7,0,0,1,,4,S,0,S,15,0.034745,0.752452,0.026144
24,35,2,3,0,0,1,,1,S,0,S,18,0.032479,0.765079,0.024849
24,36,5,9,0,0,1,,4,S,0,S,15,1.4E-05,0.798227,1.1E-05
24,37,6,5,0,0,1,,1,S,0,S,23,0.767211,0.038284,0.029372
24,38,9,8,0,0,0,,1,S,0,S,19,0.012879,0.795358,0.010243
24,39,9,5,0,0,1,,4,S,0,S,16,0.750714,0.044754,0.033597
24,40,6,2,0,0,1,,4,S,0,S,15,0.791889,0.006203,0.004912
24,41,5,2,0,0,1,,3,S,0,S,18,0.791559,0.012527,0.009916
24,42,2,6,0,0,1,,4,S,0,S,14,0.004031,0.790322,0.003186
24,43,7,5,0,0,1,,2,S,0,S,22,0.784526,0.023661,0.018563
24,44,3,5,0,0,1,,2,S,0,S,17,0.044095,0.751003,0.033115
24,45,3,6,0,0,1,,3,S,0,S,17,0.014746,0.788918,0.011633
24,46,7,4,0,0,1,,3,S,0,S,16,0.769356,0.025381,0.019527
24,47,6,4,0,0,1,,2,S,0,S,16,0.760819,0.032327,0.024595
24,48,2,5,0,0,1,,3,S,0,S,14,0.013729,0.777093,0.010669
24,49,2,4,0,0,1,,2,S,0,S,16,0.009899,0.786804,0.007789
24,50,5,6,0,0,1,,1,S,0,S,16,0.021904,0.778029,0.017042
24,51,7,8,0,0,1,,1,S,0,S,16,0.013325,0.786228,0.010477
24,52,6,1,0,0,1,,5,S,0,S,13,0.759319,0.022016,0.016717
24,53,1,5,0,0,1,,4,S,0,S,14,0.001384,0.795898,0.001101
24,54,8,1,0,0,1,,7,L,0,S,13,0.785504,0.000726,0.00057
24,55,7,6,0,0,1,,1,S,0,S,33,0.79044,0.020993,0.016593
24,56,2,1,0,0,1,,1,S,0,S,19,0.77084,0.027815,0.021441
24,57,1,2,0,0,1,,1,S,0,S,17,0.02692,0.772263,0.020789
24,58,8,7,0,0,1,,1,S,0,S,29,0.786684,0.018303,0.014399
24,59,8,9,0,0,1,,1,S,0,S,22,0.030476,0.769978,0.023466
24,60,5,3,0,0,1,,2,S,0,S,18,0.796293,0.009513,0.007575
24,61,1,8,0,0,1,,7,L,0,S,12,0.021604,0.752043,0.016247
24,62,8,3,0,0,1,,5,S,0,S,14,0.784539,0.007264,0.005699
24,63,8,4,0,0,1,,4,S,0,S,15,0.777034,0.015092,0.011727
24,64,6,3,0,0,1,,3,S,0,S,15,0.794575,0.004793,0.003809
24,65,5,1,0,0,1,,4,S,0,S,15,0.790548,0.006392,0.005053
24,66,2,9,0,0,1,,7,L,0,S,13,0.01073,0.771372,0.008277
24,67,7,3,0,0,1,,4,S,0,S,15,0.79934,0.000805,0.000644
24,68,9,2,0,0,1,,7,L,0,S,14,0.800826,0,0
24,69,6,9,0,0,1,,3,S,0,S,17,0.030473,0.766132,0.023347
24,70,6,7,0,0,1,,1,S,0,S,18,0.035865,0.761374,0.027307
24,71,2,7,0,0,1,,5,S,0,S,13,0.019422,0.759773,0.014757
24,72,4,1,0,0,1,,3,S,0,S,14,0.801698,0,0
25,1,9,4,0,0,1,,5,S,0,S,13,0.767738,0.016039,0.012313
25,2,4,2,0,0,1,,2,S,0,S,18,0.78124,0.019986,0.015614
25,3,5,4,0,0,1,,1,S,0,S,25,0.793241,0.017739,0.014071
25,4,9,1,0,0,1,,8,L,0,S,12,0.783341,0,0
25,5,1,2,0,0,1,,1,S,0,S,19,0.040945,0.754031,0.030874
25,6,3,2,0,0,1,,1,S,0,S,16,0.784309,0.012224,0.009587
25,7,6,2,0,0,1,,4,S,0,S,14,0.765241,0.019913,0.015238
25,8,6,4,0,0,1,,2,S,0,S,18,0.790948,0.012306,0.009733
25,9,9,8,0,0,1,,1,S,0,S,15,0.764387,0.026797,0.020483
25,10,8,3,0,0,1,,5,S,0,S,14,0.793391,0.001602,0.001271
25,11,7,6,0,0,1,,1,S,0,S,20,0.786384,0.017753,0.013961
25,12,1,6,0,0,1,,5,S,0,S,13,0.017051,0.762948,0.013009
25,13,5,2,0,0,1,,3,S,0,S,15,0.771816,0.021351,0.016479
25,14,3,7,0,0,1,,4,S,0,S,16,0.006556,0.78975,0.005177
25,15,8,4,0,0,1,,4,S,0,S,15,0.771185,0.024388,0.018807
25,16,3,4,0,0,1,,1,S,0,S,22,0.024342,0.780831,0.019007
25,17,2,6,0,0,1,,4,S,0,S,14,0.012179,0.774367,0.009431
25,18,6,9,0,0,1,,3,S,0,S,14,0.021446,0.763732,0.016379
25,19,8,9,0,0,1,,1,S,0,S,15,0.038179,0.75104,0.028674
25,20,6,3,0,0,1,,3,S,0,S,15,0.778021,0.014155,0.011013
25,21,4,8,0,0,1,,4,S,0,S,14,0.009817,0.782951,0.007687
25,22,1,9,0,0,1,,8,L,0,S,12,0.000399,0.777704,0.00031
25,23,6,8,0,0,1,,2,S,0,S,17,0.034047,0.760354,0.025888
25,24,6,5,0,0,1,,1,S,0,S,18,0.771343,0.025838,0.01993
25,25,2,1,0,0,1,,1,S,0,S,18,0.782479,0.016275,0.012735
25,26,3,6,0,0,1,,3,S,0,S,16,0.009777,0.787044,0.007695
25,27,5,8,0,0,1,,3,S,0,S,15,0.032437,0.759469,0.024635
25,28,7,1,0,0,1,,6,S,0,S,13,0.786564,0.001167,0.000918
25,29,4,5,0,0,1,,1,S,0,S,17,0.020062,0.779636,0.015641
25,30,3,9,0,0,1,,6,S,0,S,13,0.015421,0.765947,0.011812
25,31,7,4,0,0,1,,3,S,0,S,15,0.768514,0.025643,0.019707
25,32,4,3,0,0,1,,1,S,0,S,22,0.756466,0.043499,0.032905
25,33,1,3,0,0,1,,2,S,0,S,17,0.017135,0.781214,0.013386
25,34,4,9,0,0,1,,5,S,0,S,13,0,0.797218,0
25,35,1,4,0,0,1,,3,S,0,S,14,0.033568,0.750956,0.025208
25,36,2,5,0,0,1,,3,S,0,S,16,0.012302,0.783239,0.009636
25,37,6,7,0,0,1,,1,S,0,S,19,0.035973,0.757463,0.027248
25,38,2,3,0,0,1,,1,S,0,S,22,0.00934,0.795266,0.007428
25,39,5,7,0,0,1,,2,S,0,S,16,0.032645,0.759201,0.024784
25,40,6,1,0,0,1,,5,S,0,S,14,0.794838,0,0
25,41,9,7,0,0,1,,2,S,0,S,15,0.788358,0.005381,0.004242
25,42,8,1,0,0,1,,7,L,0,S,13,0.788403,0.000479,0.000378
25,43,2,9,0,0,1,,7,L,0,S,12,0.01818,0.752306,0.013677
25,44,9,2,0,0,1,,7,L,0,S,12,0.768442,0.007212,0.005542
25,45,4,6,0,0,1,,2,S,0,S,14,0.03294,0.75057,0.024724
25,46,8,5,0,0,1,,3,S,0,S,15,0.760338,0.03097,0.023548
25,47,1,7,0,0,1,,6,S,0,S,13,0.015874,0.763219,0.012116
25,48,3,8,0,0,1,,5,S,0,S,15,0.012393,0.782468,0.009697
25,49,9,5,0,0,1,,4,S,0,S,13,0.760988,0.019487,0.014829
25,50,3,1,0,0,1,,2,S,0,S,15,0.782645,0.010994,0.008604
25,51,7,9,0,0,1,,2,S,0,S,16,0.002494,0.799378,0.001994
25,52,1,8,0,0,1,,7,L,0,S,13,0.002035,0.784965,0.001597
25,53,7,3,0,0,1,,4,S,0,S,14,0.791249,0.0025,0.001978
25,54,5,6,0,0,1,,1,S,0,S,16,0.037182,0.754848,0.028067
25,55,9,6,0,0,1,,3,S,0,S,15,0.795199,0.001125,0.000895
25,56,3,5,0,0,1,,2,S,0,S,21,0.032683,0.767092,0.025071
25,57,8,2,0,0,1,,6,S,0,S,13,0.766446,0.016924,0.012971
25,58,5,9,0,0,1,,4,S,0,S,13,0.025416,0.755307,0.019197
25,59,2,8,0,0,1,,6,S,0,S,14,0,0.801713,0
25,60,2,7,0,0,1,,5,S,0,S,14,0.010603,0.775097,0.008218
25,61,5,1,0,0,1,,4,S,0,S,14,0.760137,0.026698,0.020294
25,62,8,7,0,0,1,,1,S,0,S,20,0.765704,0.033932,0.025982
25,63,9,3,0,0,1,,6,S,0,S,12,0.751544,0.020003,0.015033
25,64,2,4,0,0,1,,2,S,0,S,16,0.015661,0.781353,0.012237
25,65,4,7,0,0,1,,3,S,0,S,14,0.030805,0.751976,0.023164
25,66,7,5,0,0,1,,2,S,0,S,15,0.757568,0.032278,0.024453
25,67,4,1,0,0,1,,3,S,0,S,16,0.76753,0.027196,0.020874
25,68,1,5,0,0,1,,4,S,0,S,14,0.031559,0.75123,0.023708
25,69,7,8,0,0,1,,1,S,0,S,34,0.019536,0.789971,0.015433
25,70,7,2,0,0,1,,5,S,0,S,13,0.764481,0.017672,0.01351
25,71,5,3,0,0,1,,2,S,0,S,16,0.764734,0.030199,0.023094
25,72,8,6,0,0,1,,2,S,0,S,20,0.791817,0.014321,0.011339
26,1,1,6,0,0,1,,5,S,0,S,15,0.002804,0.797845,0.002237
26,2,2,1,0,0,1,,1,S,0,S,17,0.760504,0.03457,0.026291
26,3,6,9,0,0,1,,3,S,0,S,18,0.013073,0.791534,0.010347
26,4,7,6,0,0,1,,1,S,0,S,15,0.783193,0.013518,0.010587
26,5,1,5,0,0,1,,4,S,0,S,14,0.022808,0.767868,0.017514
26,6,8,2,0,0,1,,6,S,0,S,14,0.768939,0.018359,0.014117
26,7,9,6,0,0,1,,3,S,0,S,16,0.759316,0.033349,0.025322
26,8,5,1,0,0,1,,4,S,0,S,15,0.779234,0.016262,0.012672
26,9,3,1,0,0,1,,2,S,0,S,17,0.772949,0.026128,0.020196
26,10,8,1,0,0,1,,7,L,0,S,14,0.789119,0.003236,0.002553
26,11,1,7,0,0,1,,6,S,0,S,14,0.008698,0.786124,0.006838
26,12,3,4,0,0,1,,1,S,0,S,18,0.021783,0.7817,0.017028
26,13,7,2,0,0,1,,5,S,0,S,13,0.774413,0.010509,0.008138
26,14,7,9,0,0,0,,2,S,0,S,18,0.782741,0.020698,0.016201
26,15,6,3,0,0,1,,3,S,0,S,17,0.792859,0.010718,0.008498
26,16,8,3,0,0,1,,5,S,0,S,16,0.793341,0.007447,0.005908
26,17,3,7,0,0,1,,4,S,0,S,15,0.026674,0.767355,0.020469
26,18,4,9,0,0,1,,5,S,0,S,15,0.03968,0.750107,0.029764
26,19,8,6,0,0,1,,2,S,0,S,18,0.790086,0.013265,0.01048
26,20,8,4,0,0,1,,4,S,0,S,16,0.754177,0.037774,0.028488
26,21,5,3,0,0,1,,2,S,0,S,19,0.774655,0.029178,0.022603
26,22,6,4,0,0,1,,2,S,0,S,18,0.78357,0.019361,0.015171
26,23,2,9,0,0,1,,7,L,0,S,14,0.026709,0.760108,0.020302
26,24,5,7,0,0,1,,2,S,0,S,18,0.012112,0.794644,0.009625
26,25,9,7,0,0,1,,2,S,0,S,18,0.753115,0.042751,0.032196
26,26,9,5,0,0,1,,4,S,0,S,17,0.766954,0.030191,0.023155
26,27,3,2,0,0,1,,1,S,0,S,18,0.750801,0.044863,0.033683
26,28,4,1,0,0,1,,3,S,0,S,15,0.763923,0.028048,0.021426
26,29,5,6,0,0,1,,1,S,0,S,22,0.044645,0.757482,0.033818
26,30,1,8,0,0,1,,7,L,0,S,13,0.025662,0.755313,0.019383
26,31,9,8,0,0,1,,1,S,0,S,24,0.765844,0.034906,0.026732
26,32,8,5,0,0,1,,3,S,0,S,19,0.767661,0.032921,0.025272
26,33,1,3,0,0,1,,2,S,0,S,16,0.015749,0.785512,0.012371
26,34,2,6,0,0,1,,4,S,0,S,16,0.039438,0.752454,0.029675
26,35,7,4,0,0,1,,3,S,0,S,14,0.759435,0.028107,0.021346
26,36,5,8,0,0,1,,3,S,0,S,16,0.025667,0.770471,0.019775
26,37,4,2,0,0,1,,2,S,0,S,16,0.778439,0.019271,0.015001
26,38,4,3,0,0,1,,1,S,0,S,20,0.75631,0.044616,0.033744
26,39,1,4,0,0,1,,3,S,0,S,15,0.026641,0.767413,0.020445
26,40,6,2,0,0,1,,4,S,0,S,15,0.793592,0.003734,0.002963
26,41,5,4,0,0,1,,1,S,0,S,22,0.752677,0.048559,0.036549
26,42,2,8,0,0,1,,6,S,0,S,14,0.031469,0.752307,0.023675
26,43,3,6,0,0,1,,3,S,0,S,17,0.007074,0.79804,0.005645
26,44,7,3,0,0,1,,4,S,0,S,14,0.780759,0.012012,0.009378
26,45,6,5,0,0,1,,1,S,0,S,25,0.764689,0.039308,0.030059
26,46,4,7,0,0,1,,3,S,0,S,17,0.024104,0.77734,0.018737
26,47,9,1,0,0,1,,8,L,0,S,13,0.756269,0.023038,0.017423
26,48,9,2,0,0,1,,7,L,0,S,14,0.792062,0.000347,0.000275
26,49,8,7,0,0,1,,1,S,0,S,22,0.76437,0.037714,0.028827
26,50,7,8,0,0,0,,1,S,0,S,18,0.792828,0.011326,0.00898
26,51,6,8,0,0,1,,2,S,0,S,18,0.026648,0.772741,0.020592
26,52,2,7,0,0,1,,5,S,0,S,15,0.024395,0.768677,0.018752
26,53,3,9,0,0,1,,6,S,0,S,14,0.028285,0.759625,0.021486
26,54,1,9,0,0,1,,8,L,0,S,13,0.02228,0.761269,0.016961
26,55,4,8,0,0,1,,4,S,0,S,16,0.01053,0.789609,0.008315
26,56,9,4,0,0,1,,5,S,0,S,15,0.751426,0.036569,0.027479
26,57,3,5,0,0,1,,2,S,0,S,16,0.01397,0.787352,0.010999
26,58,5,9,0,0,1,,4,S,0,S,16,0.017671,0.78229,0.013824
26,59,9,3,0,0,1,,6,S,0,S,15,0.781336,0.013728,0.010726
26,60,2,3,0,0,1,,1,S,0,S,19,0.046381,0.750977,0.034831
26,61,5,2,0,0,1,,3,S,0,S,16,0.797089,0.004717,0.00376
26,62,2,5,0,0,1,,3,S,0,S,16,0.011145,0.789329,0.008797
26,63,6,7,0,0,1,,1,S,0,S,22,0.030039,0.775085,0.023283
26,64,7,1,0,0,1,,6,S,0,S,13,0.788612,8.3E-05,6.5E-05
26,65,2,4,0,0,1,,2,S,0,S,18,0.01553,0.787863,0.012236
26,66,6,1,0,0,1,,5,S,0,S,14,0.766285,0.021473,0.016455
26,67,1,2,0,0,1,,1,S,0,S,20,0.041851,0.75818,0.031731
26,68,4,5,0,0,1,,1,S,0,S,18,0.034494,0.766394,0.026436
26,69,7,5,0,0,1,,2,S,0,S,15,0.75878,0.033067,0.02509
26,70,4,6,0,0,1,,2,S,0,S,20,0.036535,0.765895,0.027982
26,71,3,8,0,0,1,,5,S,0,S,14,0.033116,0.751748,0.024895
