ANN,trial,N1,N2,P1,P2,Succ.,,Ndist,Ndist,Pdist,Pdist,rt,a1,a2,x_acc
1,1,6,7,0,0,1,,1,S,0,S,18,0.029174,0.77072,0.022485
1,2,6,2,0,0,1,,4,S,0,S,15,0.757933,0.034502,0.02615
1,3,1,2,0,0,1,,1,S,0,S,22,0.045291,0.758655,0.034361
1,4,3,2,0,0,1,,1,S,0,S,25,0.757156,0.046653,0.035324
1,5,1,8,0,0,1,,7,L,0,S,13,0.009067,0.777049,0.007045
1,6,6,1,0,0,1,,5,S,0,S,14,0.781213,0.01145,0.008945
1,7,6,9,0,0,1,,3,S,0,S,17,0.014909,0.787632,0.011743
1,8,2,6,0,0,1,,4,S,0,S,14,0.015141,0.776451,0.011756
1,9,3,9,0,0,1,,6,S,0,S,14,0.015304,0.775565,0.01187
1,10,7,4,0,0,1,,3,S,0,S,18,0.773988,0.029145,0.022558
1,11,7,8,0,0,1,,1,S,0,S,16,0.011896,0.787133,0.009364
1,12,4,6,0,0,1,,2,S,0,S,14,0.013403,0.777194,0.010417
1,13,3,5,0,0,1,,2,S,0,S,16,0.027461,0.767604,0.021079
1,14,3,6,0,0,1,,3,S,0,S,13,0.01791,0.765997,0.013719
1,15,9,4,0,0,1,,5,S,0,S,14,0.779356,0.014919,0.011627
1,16,7,3,0,0,1,,4,S,0,S,17,0.792604,0.009817,0.007781
1,17,9,1,0,0,1,,8,L,0,S,12,0.766827,0.011251,0.008627
1,18,6,4,0,0,1,,2,S,0,S,21,0.752736,0.049529,0.037282
1,19,4,5,0,0,1,,1,S,0,S,19,0.038484,0.758669,0.029197
1,20,1,6,0,0,1,,5,S,0,S,13,0.00883,0.778771,0.006877
1,21,8,4,0,0,1,,4,S,0,S,16,0.762277,0.033964,0.02589
1,22,7,5,0,0,1,,2,S,0,S,18,0.763256,0.034608,0.026415
1,23,5,1,0,0,1,,4,S,0,S,14,0.793775,0.002088,0.001657
1,24,5,9,0,0,1,,4,S,0,S,17,0.042601,0.753006,0.032079
1,25,4,2,0,0,1,,2,S,0,S,17,0.757825,0.038614,0.029262
1,26,3,1,0,0,1,,2,S,0,S,17,0.798597,0.006291,0.005024
1,27,7,2,0,0,1,,5,S,0,S,15,0.794707,0.00544,0.004323
1,28,2,1,0,0,1,,1,S,0,S,15,0.787453,0.010339,0.008142
1,29,1,4,0,0,1,,3,S,0,S,15,0.037713,0.755142,0.028478
1,30,9,6,0,0,1,,3,S,0,S,20,0.782155,0.024,0.018772
1,31,5,3,0,0,1,,2,S,0,S,17,0.758556,0.037457,0.028414
1,32,8,2,0,0,1,,6,S,0,S,14,0.776509,0.015439,0.011989
1,33,9,5,0,0,1,,4,S,0,S,14,0.772809,0.01737,0.013424
1,34,9,7,0,0,1,,2,S,0,S,15,0.752377,0.03709,0.027905
1,35,4,1,0,0,1,,3,S,0,S,15,0.779596,0.015243,0.011883
1,36,8,9,0,0,1,,1,S,0,S,25,0.025506,0.780633,0.019911
1,37,4,8,0,0,1,,4,S,0,S,14,0.013646,0.775379,0.010581
1,38,2,3,0,0,1,,1,S,0,S,33,0.03729,0.766675,0.028589
1,39,8,6,0,0,0,,2,S,0,S,17,0.029351,0.768828,0.022566
1,40,3,8,0,0,1,,5,S,0,S,13,0.018128,0.764259,0.013855
1,41,5,2,0,0,1,,3,S,0,S,15,0.778333,0.018967,0.014763
1,42,2,4,0,0,1,,2,S,0,S,19,0.049146,0.750924,0.036905
1,43,5,7,0,0,1,,2,S,0,S,19,0.037544,0.762255,0.028618
1,44,2,9,0,0,1,,7,L,0,S,15,0.026839,0.765871,0.020555
1,45,2,5,0,0,1,,3,S,0,S,20,0.016084,0.789739,0.012702
1,46,1,9,0,0,1,,8,L,0,S,14,0.003236,0.792056,0.002563
1,47,6,3,0,0,1,,3,S,0,S,18,0.761571,0.036398,0.02772
1,48,8,7,0,0,1,,1,S,0,S,22,0.788763,0.017267,0.013619
1,49,7,6,0,0,0,,1,S,0,S,16,0.011868,0.788751,0.009361
1,50,6,5,0,0,1,,1,S,0,S,22,0.783359,0.022422,0.017564
1,51,4,3,0,0,0,,1,S,0,S,26,0.03711,0.764524,0.028371
1,52,5,6,0,0,1,,1,S,0,S,15,0.02946,0.763475,0.022492
1,53,7,1,0,0,1,,6,S,0,S,13,0.750289,0.029607,0.022214
1,54,8,1,0,0,1,,7,L,0,S,13,0.773023,0.012068,0.009329
1,55,8,5,0,0,1,,3,S,0,S,16,0.753484,0.037913,0.028566
1,56,7,9,0,0,1,,2,S,0,S,19,0.011043,0.795491,0.008785
1,57,1,3,0,0,1,,2,S,0,S,17,0.007286,0.796904,0.005806
1,58,4,9,0,0,1,,5,S,0,S,15,0.023937,0.768002,0.018384
1,59,5,8,0,0,1,,3,S,0,S,15,0.029484,0.761849,0.022462
1,60,4,7,0,0,1,,3,S,0,S,16,0.014925,0.782289,0.011675
1,61,9,8,0,0,1,,1,S,0,S,20,0.770715,0.03176,0.024478
1,62,1,7,0,0,1,,6,S,0,S,14,0.019092,0.770602,0.014713
1,63,8,3,0,0,1,,5,S,0,S,15,0.75202,0.036093,0.027143
1,64,2,7,0,0,1,,5,S,0,S,16,0.018646,0.779168,0.014529
1,65,9,3,0,0,1,,6,S,0,S,14,0.796825,0,0
1,66,6,8,0,0,1,,2,S,0,S,15,0.015474,0.779432,0.012061
1,67,9,2,0,0,1,,7,L,0,S,13,0.789433,0.001668,0.001317
1,68,1,5,0,0,1,,4,S,0,S,16,0.003876,0.798531,0.003095
1,69,3,7,0,0,1,,4,S,0,S,14,0.033127,0.751428,0.024892
1,70,5,4,0,0,1,,1,S,0,S,19,0.760049,0.042354,0.032191
1,71,3,4,0,0,1,,1,S,0,S,16,0.024774,0.774687,0.019192
1,72,2,8,0,0,1,,6,S,0,S,14,0.015355,0.774675,0.011895
2,1,7,6,0,0,1,,1,S,0,S,30,0.771013,0.031835,0.024545
2,2,4,8,0,0,1,,4,S,0,S,18,0.024279,0.775098,0.018819
2,3,7,9,0,0,1,,2,S,0,S,19,0.008474,0.793996,0.006729
2,4,1,6,0,0,1,,5,S,0,S,14,0.009614,0.781092,0.00751
2,5,4,5,0,0,1,,1,S,0,S,18,0.038212,0.757776,0.028956
2,6,2,6,0,0,1,,4,S,0,S,16,0.005172,0.797527,0.004124
2,7,2,5,0,0,1,,3,S,0,S,16,0.023958,0.775533,0.01858
2,8,8,1,0,0,1,,7,L,0,S,14,0.793269,0.002836,0.00225
2,9,1,9,0,0,1,,8,L,0,S,13,0.020485,0.758552,0.015539
2,10,8,9,0,0,1,,1,S,0,S,26,0.020294,0.785134,0.015933
2,11,9,8,0,0,1,,1,S,0,S,17,0.757487,0.039681,0.030058
2,12,6,2,0,0,1,,4,S,0,S,15,0.772862,0.021678,0.016754
2,13,9,4,0,0,1,,5,S,0,S,15,0.759578,0.034039,0.025855
2,14,8,3,0,0,1,,5,S,0,S,15,0.789983,0.010428,0.008238
2,15,4,1,0,0,1,,3,S,0,S,16,0.772763,0.023012,0.017783
2,16,5,4,0,0,1,,1,S,0,S,23,0.770991,0.03432,0.026461
2,17,2,3,0,0,1,,1,S,0,S,22,0.043584,0.762904,0.03325
2,18,9,6,0,0,1,,3,S,0,S,18,0.770006,0.030235,0.023281
2,19,8,7,0,0,1,,1,S,0,S,19,0.778185,0.026878,0.020916
2,20,3,5,0,0,1,,2,S,0,S,17,0.027058,0.769055,0.020809
2,21,7,1,0,0,1,,6,S,0,S,14,0.755114,0.030722,0.023198
2,22,4,2,0,0,1,,2,S,0,S,16,0.796052,0.003886,0.003094
2,23,9,1,0,0,1,,8,L,0,S,14,0.799496,0,0
2,24,6,7,0,0,1,,1,S,0,S,18,0.016367,0.789803,0.012927
2,25,5,9,0,0,1,,4,S,0,S,16,0.018273,0.776174,0.014183
2,26,1,8,0,0,1,,7,L,0,S,14,0.015642,0.774679,0.012118
2,27,7,3,0,0,1,,4,S,0,S,16,0.78223,0.01786,0.013971
2,28,3,2,0,0,1,,1,S,0,S,16,0.760018,0.031468,0.023916
2,29,5,6,0,0,1,,1,S,0,S,18,0.024184,0.775379,0.018752
2,30,7,4,0,0,1,,3,S,0,S,17,0.76829,0.030389,0.023348
2,31,3,9,0,0,1,,6,S,0,S,15,0.021156,0.766427,0.016215
2,32,1,3,0,0,1,,2,S,0,S,16,0.015758,0.785639,0.01238
2,33,1,4,0,0,1,,3,S,0,S,15,0.019157,0.776753,0.014881
2,34,3,4,0,0,1,,1,S,0,S,21,0.023441,0.780742,0.018301
2,35,7,8,0,0,0,,1,S,0,S,23,0.785032,0.021001,0.016487
2,36,2,7,0,0,1,,5,S,0,S,15,0.033415,0.760578,0.025415
2,37,7,5,0,0,1,,2,S,0,S,21,0.752824,0.046073,0.034685
2,38,2,9,0,0,1,,7,L,0,S,15,0,0.800345,0
2,39,6,8,0,0,1,,2,S,0,S,19,0.026609,0.777146,0.020679
2,40,9,2,0,0,1,,7,L,0,S,13,0.756132,0.025898,0.019583
2,41,6,5,0,0,0,,1,S,0,S,19,0.046969,0.751838,0.035313
2,42,5,1,0,0,1,,4,S,0,S,16,0.793527,0.008028,0.006371
2,43,3,7,0,0,1,,4,S,0,S,16,0.027959,0.766163,0.021421
2,44,7,2,0,0,1,,5,S,0,S,14,0.768935,0.019318,0.014854
2,45,9,7,0,0,1,,2,S,0,S,18,0.759545,0.040935,0.031092
2,46,8,2,0,0,1,,6,S,0,S,13,0.750183,0.029948,0.022467
2,47,5,8,0,0,1,,3,S,0,S,19,0.015587,0.789328,0.012304
2,48,6,9,0,0,1,,3,S,0,S,16,0.022027,0.772923,0.017025
2,49,1,2,0,0,1,,1,S,0,S,22,0.01713,0.789906,0.013531
2,50,8,4,0,0,1,,4,S,0,S,16,0.798528,0.00593,0.004736
2,51,8,6,0,0,1,,2,S,0,S,19,0.79108,0.014152,0.011196
2,52,6,1,0,0,1,,5,S,0,S,15,0.752454,0.038385,0.028883
2,53,2,4,0,0,1,,2,S,0,S,18,0.038432,0.763819,0.029355
2,54,2,1,0,0,1,,1,S,0,S,18,0.781735,0.023421,0.018309
2,55,5,2,0,0,1,,3,S,0,S,15,0.764655,0.026874,0.020549
2,56,6,4,0,0,1,,2,S,0,S,22,0.780547,0.027598,0.021541
2,57,5,7,0,0,1,,2,S,0,S,18,0.009028,0.797412,0.007199
2,58,1,7,0,0,1,,6,S,0,S,14,0.004736,0.790067,0.003742
2,59,6,3,0,0,1,,3,S,0,S,18,0.770433,0.032851,0.02531
2,60,2,8,0,0,1,,6,S,0,S,16,0.016876,0.784206,0.013234
2,61,1,5,0,0,1,,4,S,0,S,14,0.019214,0.770331,0.014801
2,62,8,5,0,0,1,,3,S,0,S,17,0.753102,0.042852,0.032272
2,63,9,3,0,0,1,,6,S,0,S,15,0.798717,0.004047,0.003232
2,64,4,3,0,0,1,,1,S,0,S,20,0.793525,0.013884,0.011017
2,65,5,3,0,0,1,,2,S,0,S,18,0.751611,0.046451,0.034913
2,66,4,9,0,0,1,,5,S,0,S,16,0.007061,0.788836,0.00557
2,67,3,1,0,0,1,,2,S,0,S,17,0.778005,0.020446,0.015907
2,68,4,7,0,0,1,,3,S,0,S,17,0.025334,0.773087,0.019586
2,69,3,8,0,0,1,,5,S,0,S,17,0.017616,0.78073,0.013754
2,70,9,5,0,0,1,,4,S,0,S,17,0.772499,0.02811,0.021715
2,71,3,6,0,0,1,,3,S,0,S,16,0.038025,0.750233,0.028527
2,72,4,6,0,0,1,,2,S,0,S,17,0.038326,0.753489,0.028878
3,1,3,2,0,0,1,,1,S,0,S,23,0.790601,0.014518,0.011478
3,2,5,6,0,0,0,,1,S,0,S,25,0.762221,0.038195,0.029113
3,3,1,8,0,0,1,,7,L,0,S,14,0.004332,0.788097,0.003414
3,4,7,9,0,0,1,,2,S,0,S,19,0.027508,0.770605,0.021198
3,5,5,3,0,0,1,,2,S,0,S,18,0.782908,0.017081,0.013373
3,6,5,1,0,0,1,,4,S,0,S,15,0.796402,0.001187,0.000946
3,7,7,2,0,0,1,,5,S,0,S,14,0.757263,0.027261,0.020644
3,8,2,7,0,0,1,,5,S,0,S,15,0,0.795894,0
3,9,4,2,0,0,1,,2,S,0,S,19,0.784443,0.020695,0.016234
3,10,8,3,0,0,1,,5,S,0,S,15,0.754876,0.032315,0.024393
3,11,6,7,0,0,1,,1,S,0,S,31,0.044337,0.756428,0.033538
3,12,8,1,0,0,1,,7,L,0,S,14,0.798117,0,0
3,13,6,3,0,0,1,,3,S,0,S,15,0.756439,0.032583,0.024647
3,14,8,5,0,0,1,,3,S,0,S,17,0.779252,0.016884,0.013157
3,15,7,5,0,0,1,,2,S,0,S,17,0.786237,0.010831,0.008515
3,16,5,7,0,0,1,,2,S,0,S,17,0.0407,0.750661,0.030552
3,17,9,7,0,0,1,,2,S,0,S,18,0.781186,0.017949,0.014021
3,18,9,5,0,0,1,,4,S,0,S,15,0.766828,0.021416,0.016423
3,19,2,8,0,0,1,,6,S,0,S,14,0.03237,0.750262,0.024286
3,20,6,4,0,0,1,,2,S,0,S,18,0.761324,0.036685,0.027929
3,21,1,3,0,0,1,,2,S,0,S,17,0.009735,0.790544,0.007696
3,22,9,4,0,0,1,,5,S,0,S,16,0.785223,0.012222,0.009597
3,23,6,5,0,0,1,,1,S,0,S,17,0.780243,0.017639,0.013763
3,24,9,2,0,0,1,,7,L,0,S,14,0.799168,0,0
3,25,8,2,0,0,1,,6,S,0,S,14,0.754363,0.029993,0.022625
3,26,2,5,0,0,1,,3,S,0,S,17,0.01072,0.786177,0.008428
3,27,2,3,0,0,1,,1,S,0,S,19,0.030318,0.766635,0.023243
3,28,3,8,0,0,1,,5,S,0,S,15,0.00423,0.791239,0.003347
3,29,4,1,0,0,1,,3,S,0,S,16,0.774803,0.023039,0.017851
3,30,1,5,0,0,1,,4,S,0,S,15,0.030334,0.756008,0.022933
3,31,1,9,0,0,1,,8,L,0,S,13,0.01882,0.761546,0.014332
3,32,4,6,0,0,1,,2,S,0,S,18,0.019204,0.783814,0.015052
3,33,1,6,0,0,1,,5,S,0,S,15,0.02147,0.769899,0.01653
3,34,9,3,0,0,1,,6,S,0,S,14,0.762793,0.02214,0.016888
3,35,4,7,0,0,1,,3,S,0,S,15,0.02698,0.764569,0.020628
3,36,3,4,0,0,1,,1,S,0,S,16,0.018291,0.776503,0.014203
3,37,8,6,0,0,1,,2,S,0,S,17,0.769493,0.026506,0.020396
3,38,9,6,0,0,1,,3,S,0,S,15,0.762864,0.026318,0.020077
3,39,6,2,0,0,1,,4,S,0,S,14,0.756118,0.030055,0.022725
3,40,7,8,0,0,0,,1,S,0,S,29,0.771948,0.030872,0.023832
3,41,5,2,0,0,1,,3,S,0,S,16,0.779419,0.017376,0.013543
3,42,7,3,0,0,1,,4,S,0,S,15,0.759144,0.028485,0.021625
3,43,4,5,0,0,1,,1,S,0,S,18,0.0402,0.754694,0.030339
3,44,1,4,0,0,1,,3,S,0,S,15,0.00306,0.794207,0.00243
3,45,9,1,0,0,1,,8,L,0,S,13,0.779532,0.005498,0.004286
3,46,6,9,0,0,1,,3,S,0,S,18,0.042088,0.753344,0.031707
3,47,7,4,0,0,1,,3,S,0,S,18,0.773892,0.024585,0.019026
3,48,8,4,0,0,1,,4,S,0,S,18,0.762059,0.034505,0.026295
3,49,4,3,0,0,0,,1,S,0,S,27,0.031584,0.773349,0.024426
3,50,7,1,0,0,1,,6,S,0,S,14,0.799965,0,0
3,51,2,4,0,0,1,,2,S,0,S,16,0.006885,0.79154,0.00545
3,52,5,8,0,0,1,,3,S,0,S,17,0.033656,0.761299,0.025622
3,53,3,6,0,0,1,,3,S,0,S,17,0.012089,0.78642,0.009507
3,54,6,1,0,0,1,,5,S,0,S,14,0.800053,0,0
3,55,3,7,0,0,1,,4,S,0,S,15,0.007569,0.785467,0.005945
3,56,2,9,0,0,1,,7,L,0,S,14,0.005718,0.784005,0.004483
3,57,3,9,0,0,1,,6,S,0,S,14,0.011678,0.775772,0.009059
3,58,3,5,0,0,1,,2,S,0,S,17,0.026537,0.765502,0.020314
3,59,5,4,0,0,0,,1,S,0,S,22,0.043304,0.755356,0.03271
3,60,7,6,0,0,1,,1,S,0,S,17,0.777409,0.019717,0.015328
3,61,1,2,0,0,1,,1,S,0,S,19,0.032205,0.767275,0.02471
3,62,8,9,0,0,1,,1,S,0,S,19,0.013364,0.78916,0.010546
3,63,9,8,0,0,1,,1,S,0,S,18,0.777377,0.022235,0.017285
3,64,4,8,0,0,1,,4,S,0,S,15,0.023147,0.771016,0.017847
3,65,5,9,0,0,1,,4,S,0,S,16,0.010123,0.787346,0.00797
3,66,1,7,0,0,1,,6,S,0,S,14,0.006866,0.783389,0.005379
3,67,3,1,0,0,1,,2,S,0,S,17,0.763837,0.030386,0.02321
3,68,2,1,0,0,1,,1,S,0,S,18,0.788758,0.01271,0.010025
3,69,4,9,0,0,1,,5,S,0,S,14,0.025822,0.761326,0.019659
3,70,8,7,0,0,1,,1,S,0,S,34,0.780652,0.023264,0.018161
3,71,2,6,0,0,1,,4,S,0,S,16,0.033457,0.756872,0.025323
3,72,6,8,0,0,1,,2,S,0,S,27,0.026407,0.780233,0.020604
4,1,2,1,0,0,1,,1,S,0,S,18,0.762767,0.033469,0.025529
4,2,6,7,0,0,1,,1,S,0,S,20,0.025178,0.782251,0.019695
4,3,1,6,0,0,1,,5,S,0,S,15,0.013595,0.778865,0.010589
4,4,4,7,0,0,1,,3,S,0,S,18,0.029088,0.7708,0.022421
4,5,9,4,0,0,1,,5,S,0,S,15,0.798237,0.003271,0.002611
4,6,5,8,0,0,1,,3,S,0,S,16,0.041739,0.752573,0.031412
4,7,5,1,0,0,1,,4,S,0,S,14,0.787648,0.006738,0.005307
4,8,9,5,0,0,1,,4,S,0,S,15,0.756486,0.036575,0.027669
4,9,9,1,0,0,1,,8,L,0,S,13,0.791591,0,0
4,10,4,5,0,0,1,,1,S,0,S,26,0.037432,0.766678,0.028698
4,11,5,3,0,0,1,,2,S,0,S,20,0.788677,0.017787,0.014028
4,12,9,2,0,0,1,,7,L,0,S,14,0.774589,0.01553,0.01203
4,13,8,2,0,0,1,,6,S,0,S,14,0.773485,0.014538,0.011245
4,14,1,3,0,0,1,,2,S,0,S,16,0.00947,0.787427,0.007457
4,15,1,5,0,0,1,,4,S,0,S,15,0.033142,0.756303,0.025065
4,16,7,5,0,0,1,,2,S,0,S,19,0.75924,0.040126,0.030465
4,17,7,2,0,0,1,,5,S,0,S,16,0.784419,0.011878,0.009317
4,18,8,5,0,0,1,,3,S,0,S,15,0.757036,0.034159,0.025859
4,19,2,3,0,0,1,,1,S,0,S,16,0.00148,0.797966,0.001181
4,20,1,2,0,0,1,,1,S,0,S,19,0.011929,0.78901,0.009412
4,21,8,7,0,0,1,,1,S,0,S,17,0.776531,0.023654,0.018368
4,22,4,8,0,0,1,,4,S,0,S,16,0.009934,0.789814,0.007846
4,23,3,6,0,0,1,,3,S,0,S,17,0.007144,0.794017,0.005673
4,24,4,6,0,0,1,,2,S,0,S,20,0.034438,0.7645,0.026328
4,25,6,9,0,0,1,,3,S,0,S,18,0.039472,0.760413,0.030015
4,26,7,6,0,0,1,,1,S,0,S,23,0.757284,0.041879,0.031714
4,27,3,8,0,0,1,,5,S,0,S,14,0.032188,0.752172,0.024211
4,28,2,4,0,0,1,,2,S,0,S,16,0.032316,0.760635,0.02458
4,29,8,3,0,0,1,,5,S,0,S,15,0.762972,0.027261,0.020799
4,30,1,7,0,0,1,,6,S,0,S,14,0.030148,0.754494,0.022747
4,31,2,7,0,0,1,,5,S,0,S,14,0.024792,0.761838,0.018887
4,32,9,7,0,0,1,,2,S,0,S,17,0.773168,0.028392,0.021952
4,33,8,4,0,0,1,,4,S,0,S,15,0.797608,0.001892,0.001509
4,34,9,8,0,0,1,,1,S,0,S,23,0.758535,0.045392,0.034432
4,35,7,3,0,0,1,,4,S,0,S,19,0.78796,0.014783,0.011648
4,36,2,5,0,0,1,,3,S,0,S,15,0.025694,0.766275,0.019689
4,37,8,1,0,0,1,,7,L,0,S,13,0.789962,0,0
4,38,5,2,0,0,1,,3,S,0,S,16,0.771462,0.024511,0.01891
4,39,6,1,0,0,1,,5,S,0,S,14,0.785123,0.008868,0.006962
4,40,8,9,0,0,0,,1,S,0,S,18,0.777492,0.023746,0.018462
4,41,3,4,0,0,1,,1,S,0,S,21,0.021043,0.783845,0.016494
4,42,7,4,0,0,1,,3,S,0,S,17,0.775693,0.023427,0.018172
4,43,4,9,0,0,1,,5,S,0,S,17,0.029681,0.766917,0.022763
4,44,1,4,0,0,1,,3,S,0,S,17,0.007047,0.795159,0.005604
4,45,7,8,0,0,1,,1,S,0,S,17,0.029884,0.767311,0.02293
4,46,6,5,0,0,1,,1,S,0,S,21,0.759296,0.044808,0.034022
4,47,6,4,0,0,1,,2,S,0,S,18,0.790283,0.016292,0.012875
4,48,3,7,0,0,1,,4,S,0,S,16,0.0113,0.788245,0.008907
4,49,9,6,0,0,1,,3,S,0,S,16,0.765241,0.030644,0.02345
4,50,4,3,0,0,1,,1,S,0,S,27,0.786063,0.019297,0.015169
4,51,2,9,0,0,1,,7,L,0,S,14,0.013938,0.775086,0.010803
4,52,7,9,0,0,1,,2,S,0,S,20,0.028513,0.773345,0.022051
4,53,5,7,0,0,1,,2,S,0,S,20,0.043961,0.758458,0.033343
4,54,3,2,0,0,1,,1,S,0,S,23,0.7787,0.02318,0.01805
4,55,9,3,0,0,1,,6,S,0,S,15,0.762865,0.029314,0.022363
4,56,1,9,0,0,1,,8,L,0,S,14,0.018764,0.768449,0.014419
4,57,5,6,0,0,1,,1,S,0,S,30,0.030172,0.776769,0.023437
4,58,3,9,0,0,1,,6,S,0,S,15,0.029574,0.760155,0.022481
4,59,2,6,0,0,1,,4,S,0,S,15,0.007393,0.787209,0.00582
4,60,5,4,0,0,1,,1,S,0,S,17,0.751822,0.044833,0.033706
4,61,4,1,0,0,1,,3,S,0,S,14,0.759842,0.025727,0.019549
4,62,8,6,0,0,1,,2,S,0,S,16,0.766708,0.027458,0.021052
4,63,4,2,0,0,1,,2,S,0,S,17,0.761004,0.032208,0.02451
4,64,7,1,0,0,1,,6,S,0,S,14,0.791844,0.001282,0.001015
4,65,6,3,0,0,1,,3,S,0,S,20,0.768659,0.03401,0.026142
4,66,6,2,0,0,1,,4,S,0,S,16,0.765557,0.029333,0.022456
4,67,1,8,0,0,1,,7,L,0,S,14,0,0.798861,0
4,68,5,9,0,0,1,,4,S,0,S,19,0.014214,0.793452,0.011278
4,69,2,8,0,0,1,,6,S,0,S,13,0.027572,0.751027,0.020707
4,70,3,5,0,0,1,,2,S,0,S,18,0.008775,0.79668,0.006991
4,71,3,1,0,0,1,,2,S,0,S,15,0.750489,0.036572,0.027447
4,72,6,8,0,0,1,,2,S,0,S,16,0.035774,0.76046,0.027205
5,1,2,3,0,0,0,,1,S,0,S,21,0.755496,0.046126,0.034848
5,2,4,7,0,0,1,,3,S,0,S,16,0.024931,0.773748,0.01929
5,3,4,6,0,0,1,,2,S,0,S,16,0.028835,0.768494,0.022159
5,4,3,1,0,0,1,,2,S,0,S,16,0.779338,0.019572,0.015253
5,5,1,3,0,0,1,,2,S,0,S,19,0.019803,0.783006,0.015506
5,6,9,7,0,0,1,,2,S,0,S,15,0.752518,0.038072,0.02865
5,7,3,8,0,0,1,,5,S,0,S,18,0.010868,0.796387,0.008655
5,8,6,1,0,0,1,,5,S,0,S,15,0.796279,0.004509,0.003591
5,9,7,4,0,0,1,,3,S,0,S,18,0.781563,0.019634,0.015345
5,10,1,8,0,0,1,,7,L,0,S,14,0.01347,0.776996,0.010466
5,11,9,3,0,0,1,,6,S,0,S,13,0.776456,0.009379,0.007282
5,12,7,1,0,0,1,,6,S,0,S,14,0.752657,0.032412,0.024395
5,13,7,2,0,0,1,,5,S,0,S,15,0.778693,0.014824,0.011544
5,14,4,3,0,0,1,,1,S,0,S,17,0.752031,0.042793,0.032182
5,15,5,7,0,0,1,,2,S,0,S,18,0.026056,0.777902,0.020269
5,16,1,4,0,0,1,,3,S,0,S,15,0.015463,0.77692,0.012014
5,17,5,4,0,0,1,,1,S,0,S,27,0.79058,0.017355,0.01372
5,18,7,5,0,0,1,,2,S,0,S,22,0.760596,0.041524,0.031583
5,19,9,2,0,0,1,,7,L,0,S,13,0.764281,0.016914,0.012927
5,20,7,9,0,0,1,,2,S,0,S,20,0.037571,0.763236,0.028675
5,21,5,9,0,0,1,,4,S,0,S,17,0.011703,0.791671,0.009265
5,22,2,7,0,0,1,,5,S,0,S,15,0.014564,0.784622,0.011427
5,23,8,6,0,0,1,,2,S,0,S,21,0.794351,0.016122,0.012806
5,24,2,8,0,0,1,,6,S,0,S,15,0.020295,0.776162,0.015752
5,25,6,3,0,0,1,,3,S,0,S,15,0.789796,0.010055,0.007942
5,26,4,8,0,0,1,,4,S,0,S,16,0.033338,0.761834,0.025398
5,27,3,7,0,0,1,,4,S,0,S,17,0.034998,0.765114,0.026777
5,28,2,6,0,0,1,,4,S,0,S,15,0.017203,0.780983,0.013435
5,29,8,7,0,0,1,,1,S,0,S,21,0.775295,0.031701,0.024578
5,30,8,2,0,0,1,,6,S,0,S,15,0.801033,0,0
5,31,6,9,0,0,1,,3,S,0,S,19,0.019902,0.787131,0.015665
5,32,1,7,0,0,1,,6,S,0,S,14,0.009455,0.783301,0.007406
5,33,5,6,0,0,1,,1,S,0,S,18,0.033286,0.768508,0.02558
5,34,7,6,0,0,1,,1,S,0,S,27,0.762888,0.04203,0.032064
5,35,3,4,0,0,1,,1,S,0,S,24,0.0447,0.756598,0.03382
5,36,9,5,0,0,1,,4,S,0,S,15,0.767655,0.025176,0.019327
5,37,5,2,0,0,1,,3,S,0,S,16,0.758503,0.033909,0.02572
5,38,8,9,0,0,1,,1,S,0,S,25,0.017687,0.792145,0.014011
5,39,2,1,0,0,1,,1,S,0,S,20,0.760323,0.040994,0.031169
5,40,6,8,0,0,1,,2,S,0,S,24,0.052306,0.751435,0.039304
5,41,1,6,0,0,1,,5,S,0,S,14,0.01128,0.780674,0.008806
5,42,6,2,0,0,1,,4,S,0,S,15,0.768801,0.024587,0.018903
5,43,9,6,0,0,1,,3,S,0,S,15,0.755726,0.035366,0.026727
5,44,5,1,0,0,1,,4,S,0,S,16,0.796194,0.005798,0.004616
5,45,3,6,0,0,1,,3,S,0,S,17,0.040809,0.757452,0.030911
5,46,4,9,0,0,1,,5,S,0,S,15,0.031717,0.759059,0.024075
5,47,2,4,0,0,1,,2,S,0,S,17,0.008394,0.795309,0.006676
5,48,1,2,0,0,1,,1,S,0,S,18,0.022184,0.775905,0.017213
5,49,1,9,0,0,1,,8,L,0,S,14,0,0.799481,0
5,50,9,1,0,0,1,,8,L,0,S,13,0.779617,0.006567,0.00512
5,51,8,3,0,0,1,,5,S,0,S,14,0.767347,0.022579,0.017326
5,52,3,9,0,0,1,,6,S,0,S,16,0.029312,0.767205,0.022489
5,53,9,8,0,0,1,,1,S,0,S,15,0.757531,0.033271,0.025204
5,54,8,1,0,0,1,,7,L,0,S,14,0.772616,0.018066,0.013958
5,55,6,5,0,0,1,,1,S,0,S,30,0.758044,0.047531,0.03603
5,56,5,3,0,0,1,,2,S,0,S,16,0.787008,0.013526,0.010645
5,57,2,9,0,0,1,,7,L,0,S,14,0.030434,0.757011,0.023039
5,58,2,5,0,0,1,,3,S,0,S,15,0.028595,0.765201,0.021881
5,59,3,2,0,0,1,,1,S,0,S,17,0.785303,0.015581,0.012236
5,60,6,4,0,0,1,,2,S,0,S,19,0.793681,0.013455,0.010679
5,61,8,4,0,0,1,,4,S,0,S,17,0.78392,0.017239,0.013514
5,62,8,5,0,0,1,,3,S,0,S,19,0.759477,0.041304,0.031369
5,63,3,5,0,0,1,,2,S,0,S,18,0.030696,0.771179,0.023672
5,64,6,7,0,0,1,,1,S,0,S,22,0.052009,0.752169,0.03912
5,65,5,8,0,0,1,,3,S,0,S,18,0.041548,0.757113,0.031457
5,66,1,5,0,0,1,,4,S,0,S,14,0.019023,0.769462,0.014638
5,67,7,3,0,0,1,,4,S,0,S,15,0.798142,0.001502,0.001199
5,68,4,1,0,0,1,,3,S,0,S,17,0.76858,0.029274,0.022499
5,69,4,5,0,0,1,,1,S,0,S,17,0.009769,0.794212,0.007759
5,70,9,4,0,0,1,,5,S,0,S,14,0.755809,0.028834,0.021793
5,71,4,2,0,0,1,,2,S,0,S,18,0.751793,0.042628,0.032048
5,72,7,8,0,0,0,,1,S,0,S,25,0.760743,0.042635,0.032435
6,1,4,2,0,0,1,,2,S,0,S,17,0.75982,0.037372,0.028396
6,2,9,4,0,0,1,,5,S,0,S,14,0.762562,0.02434,0.018561
6,3,5,7,0,0,1,,2,S,0,S,22,0.026482,0.778038,0.020604
6,4,2,1,0,0,1,,1,S,0,S,27,0.778657,0.027753,0.02161
6,5,6,9,0,0,1,,3,S,0,S,20,0.014866,0.791256,0.011763
6,6,2,3,0,0,1,,1,S,0,S,19,0.020863,0.780325,0.01628
6,7,1,8,0,0,1,,7,L,0,S,12,0,0.790514,0
6,8,2,7,0,0,1,,5,S,0,S,15,0.023958,0.769081,0.018426
6,9,8,1,0,0,1,,7,L,0,S,14,0.796368,0.001752,0.001395
6,10,9,6,0,0,1,,3,S,0,S,15,0.755642,0.032125,0.024275
6,11,9,1,0,0,1,,8,L,0,S,13,0.802722,0,0
6,12,5,4,0,0,0,,1,S,0,S,20,0.032847,0.767421,0.025208
6,13,5,6,0,0,1,,1,S,0,S,17,0.013323,0.785463,0.010465
6,14,6,1,0,0,1,,5,S,0,S,14,0.780485,0.011525,0.008995
6,15,2,8,0,0,1,,6,S,0,S,13,0,0.79512,0
6,16,1,6,0,0,1,,5,S,0,S,13,0,0.79832,0
6,17,7,5,0,0,1,,2,S,0,S,16,0.755726,0.03416,0.025815
6,18,3,5,0,0,1,,2,S,0,S,17,0.027707,0.769355,0.021316
6,19,6,5,0,0,1,,1,S,0,S,17,0.7584,0.034963,0.026516
6,20,8,5,0,0,1,,3,S,0,S,17,0.794853,0.009124,0.007252
6,21,7,8,0,0,1,,1,S,0,S,16,0.027474,0.766297,0.021053
6,22,7,2,0,0,1,,5,S,0,S,14,0.753271,0.031651,0.023841
6,23,6,8,0,0,1,,2,S,0,S,15,0.035434,0.753097,0.026685
6,24,2,5,0,0,1,,3,S,0,S,15,0.033082,0.753918,0.024941
6,25,4,3,0,0,1,,1,S,0,S,17,0.770416,0.027025,0.02082
6,26,4,7,0,0,1,,3,S,0,S,22,0.023362,0.784191,0.01832
6,27,8,9,0,0,1,,1,S,0,S,21,0.038503,0.766458,0.029511
6,28,3,7,0,0,1,,4,S,0,S,17,0.012981,0.791427,0.010274
6,29,6,4,0,0,1,,2,S,0,S,18,0.761323,0.036309,0.027643
6,30,7,4,0,0,1,,3,S,0,S,17,0.77409,0.02389,0.018493
6,31,7,6,0,0,1,,1,S,0,S,21,0.756605,0.040612,0.030727
6,32,3,6,0,0,1,,3,S,0,S,15,0.014466,0.780356,0.011289
6,33,6,2,0,0,1,,4,S,0,S,15,0.782298,0.01373,0.010741
6,34,1,2,0,0,1,,1,S,0,S,14,0.020596,0.766333,0.015784
6,35,3,8,0,0,1,,5,S,0,S,13,0.014802,0.769848,0.011395
6,36,5,3,0,0,1,,2,S,0,S,17,0.765177,0.029431,0.02252
6,37,6,7,0,0,0,,1,S,0,S,18,0.797824,0.008181,0.006527
6,38,3,4,0,0,1,,1,S,0,S,16,0.032799,0.762436,0.025007
6,39,1,7,0,0,1,,6,S,0,S,13,0.01336,0.769563,0.010281
6,40,1,3,0,0,1,,2,S,0,S,14,0.026862,0.755765,0.020301
6,41,8,2,0,0,1,,6,S,0,S,14,0.750696,0.036914,0.027711
6,42,7,9,0,0,1,,2,S,0,S,24,0.040219,0.760982,0.030606
6,43,7,3,0,0,1,,4,S,0,S,14,0.755353,0.028243,0.021334
6,44,8,7,0,0,1,,1,S,0,S,17,0.789143,0.016349,0.012902
6,45,3,1,0,0,1,,2,S,0,S,18,0.790445,0.015383,0.012159
6,46,4,9,0,0,1,,5,S,0,S,16,0.007509,0.794357,0.005965
6,47,3,9,0,0,1,,6,S,0,S,14,0.026584,0.76171,0.020249
6,48,5,9,0,0,1,,4,S,0,S,16,0.009229,0.790136,0.007292
6,49,7,1,0,0,1,,6,S,0,S,14,0.796667,0,0
6,50,8,4,0,0,1,,4,S,0,S,17,0.759565,0.038942,0.029579
6,51,2,4,0,0,1,,2,S,0,S,15,0.014201,0.780644,0.011086
6,52,4,5,0,0,1,,1,S,0,S,24,0.023486,0.781175,0.018346
6,53,4,8,0,0,1,,4,S,0,S,14,0.010571,0.781419,0.00826
6,54,9,3,0,0,1,,6,S,0,S,13,0.775398,0.008497,0.006588
6,55,1,4,0,0,1,,3,S,0,S,13,0.008771,0.774741,0.006795
6,56,3,2,0,0,1,,1,S,0,S,27,0.751916,0.050715,0.038133
6,57,8,3,0,0,1,,5,S,0,S,14,0.75326,0.033115,0.024944
6,58,4,6,0,0,1,,2,S,0,S,17,0.011285,0.790156,0.008917
6,59,5,8,0,0,1,,3,S,0,S,14,0.011789,0.777904,0.009171
6,60,9,2,0,0,1,,7,L,0,S,13,0.775199,0.010283,0.007971
6,61,5,2,0,0,1,,3,S,0,S,17,0.754538,0.039791,0.030024
6,62,1,9,0,0,1,,8,L,0,S,12,0.014627,0.758578,0.011096
6,63,6,3,0,0,1,,3,S,0,S,15,0.785043,0.009765,0.007666
6,64,9,7,0,0,1,,2,S,0,S,14,0.774465,0.015949,0.012352
6,65,2,9,0,0,1,,7,L,0,S,14,0,0.799495,0
6,66,8,6,0,0,1,,2,S,0,S,24,0.793913,0.015828,0.012566
6,67,2,6,0,0,1,,4,S,0,S,14,0.013895,0.774473,0.010762
6,68,9,8,0,0,1,,1,S,0,S,25,0.791376,0.015925,0.012603
6,69,4,1,0,0,1,,3,S,0,S,15,0.755645,0.035442,0.026782
6,70,5,1,0,0,1,,4,S,0,S,15,0.75133,0.037157,0.027917
6,71,9,5,0,0,1,,4,S,0,S,14,0.774024,0.013867,0.010733
6,72,1,5,0,0,1,,4,S,0,S,13,0.018082,0.76023,0.013747
7,1,7,8,0,0,1,,1,S,0,S,20,0.030867,0.774092,0.023894
7,2,2,5,0,0,1,,3,S,0,S,16,0.003166,0.799941,0.002533
7,3,5,3,0,0,1,,2,S,0,S,17,0.764137,0.030335,0.02318
7,4,4,7,0,0,1,,3,S,0,S,15,0.033164,0.756914,0.025102
7,5,4,3,0,0,1,,1,S,0,S,28,0.788817,0.018278,0.014418
7,6,5,7,0,0,1,,2,S,0,S,18,0.026188,0.772797,0.020238
7,7,6,2,0,0,1,,4,S,0,S,14,0.751028,0.036015,0.027048
7,8,8,2,0,0,1,,6,S,0,S,14,0.784727,0.008583,0.006736
7,9,4,8,0,0,1,,4,S,0,S,15,0.027121,0.765663,0.020766
7,10,2,6,0,0,1,,4,S,0,S,16,0.011455,0.785918,0.009003
7,11,3,6,0,0,1,,3,S,0,S,18,0.024539,0.770856,0.018916
7,12,6,9,0,0,1,,3,S,0,S,18,0.007957,0.796433,0.006337
7,13,2,1,0,0,1,,1,S,0,S,18,0.758086,0.038468,0.029162
7,14,1,4,0,0,1,,3,S,0,S,15,0.029854,0.757984,0.022629
7,15,9,4,0,0,1,,5,S,0,S,17,0.775845,0.024995,0.019392
7,16,7,3,0,0,1,,4,S,0,S,16,0.780743,0.017703,0.013822
7,17,8,5,0,0,1,,3,S,0,S,17,0.78504,0.015627,0.012268
7,18,2,7,0,0,1,,5,S,0,S,15,0.005478,0.792952,0.004344
7,19,2,9,0,0,1,,7,L,0,S,14,0.003282,0.789499,0.002591
7,20,9,8,0,0,1,,1,S,0,S,28,0.75947,0.046387,0.03523
7,21,2,3,0,0,1,,1,S,0,S,20,0.037147,0.762668,0.028331
7,22,7,4,0,0,1,,3,S,0,S,19,0.780342,0.023254,0.018146
7,23,9,6,0,0,1,,3,S,0,S,18,0.765063,0.033544,0.025664
7,24,9,2,0,0,1,,7,L,0,S,14,0.764569,0.027144,0.020754
7,25,3,2,0,0,1,,1,S,0,S,18,0.794467,0.010311,0.008191
7,26,5,6,0,0,1,,1,S,0,S,24,0.010928,0.793434,0.008671
7,27,6,3,0,0,1,,3,S,0,S,15,0.756835,0.032773,0.024804
7,28,6,1,0,0,1,,5,S,0,S,14,0.780426,0.010694,0.008346
7,29,8,4,0,0,1,,4,S,0,S,16,0.777015,0.018573,0.014432
7,30,4,2,0,0,1,,2,S,0,S,19,0.777534,0.027122,0.021088
7,31,5,9,0,0,1,,4,S,0,S,16,0.007911,0.789592,0.006246
7,32,5,1,0,0,1,,4,S,0,S,15,0.780717,0.012405,0.009685
7,33,4,1,0,0,1,,3,S,0,S,17,0.786723,0.01388,0.01092
7,34,7,5,0,0,1,,2,S,0,S,22,0.769572,0.035398,0.027242
7,35,7,1,0,0,1,,6,S,0,S,14,0.765444,0.022782,0.017439
7,36,9,5,0,0,1,,4,S,0,S,18,0.758367,0.041844,0.031733
7,37,8,9,0,0,1,,1,S,0,S,22,0.014236,0.790348,0.011251
7,38,9,3,0,0,1,,6,S,0,S,15,0.773657,0.021349,0.016517
7,39,3,1,0,0,1,,2,S,0,S,16,0.770993,0.022132,0.017063
7,40,4,9,0,0,1,,5,S,0,S,14,0.022173,0.76446,0.01695
7,41,8,1,0,0,1,,7,L,0,S,13,0.753669,0.024637,0.018569
7,42,5,2,0,0,1,,3,S,0,S,16,0.787022,0.013122,0.010327
7,43,9,7,0,0,1,,2,S,0,S,24,0.759136,0.045141,0.034268
7,44,6,5,0,0,1,,1,S,0,S,19,0.759989,0.04007,0.030453
7,45,9,1,0,0,1,,8,L,0,S,14,0.791692,0.003511,0.00278
7,46,8,7,0,0,1,,1,S,0,S,19,0.77496,0.025978,0.020132
7,47,6,7,0,0,1,,1,S,0,S,28,0.050128,0.751272,0.03766
7,48,2,8,0,0,1,,6,S,0,S,15,0.000663,0.800008,0.00053
7,49,3,5,0,0,1,,2,S,0,S,18,0.010114,0.792825,0.008019
7,50,1,9,0,0,1,,8,L,0,S,13,0.021113,0.757249,0.015988
7,51,3,9,0,0,1,,6,S,0,S,15,0.003724,0.790793,0.002945
7,52,3,7,0,0,1,,4,S,0,S,16,0.023657,0.770399,0.018225
7,53,3,8,0,0,1,,5,S,0,S,16,0.016303,0.780769,0.012729
7,54,4,5,0,0,1,,1,S,0,S,16,0.041959,0.750057,0.031472
7,55,7,9,0,0,1,,2,S,0,S,17,0.008693,0.794374,0.006905
7,56,6,4,0,0,1,,2,S,0,S,18,0.793887,0.010573,0.008393
7,57,8,6,0,0,1,,2,S,0,S,17,0.78593,0.012059,0.009477
7,58,7,2,0,0,1,,5,S,0,S,15,0.783663,0.015294,0.011985
7,59,1,3,0,0,1,,2,S,0,S,17,0.040085,0.751151,0.03011
7,60,2,4,0,0,1,,2,S,0,S,16,0.035027,0.757779,0.026543
7,61,5,4,0,0,1,,1,S,0,S,24,0.759806,0.03964,0.030118
7,62,1,2,0,0,1,,1,S,0,S,20,0.023165,0.781329,0.0181
7,63,6,8,0,0,1,,2,S,0,S,24,0.046115,0.756605,0.034891
7,64,8,3,0,0,1,,5,S,0,S,15,0.799519,0,0
7,65,1,5,0,0,1,,4,S,0,S,15,0.006713,0.789404,0.0053
7,66,7,6,0,0,1,,1,S,0,S,21,0.755084,0.04324,0.032649
7,67,1,6,0,0,1,,5,S,0,S,15,0.013263,0.777515,0.010312
7,68,3,4,0,0,1,,1,S,0,S,19,0.042586,0.75162,0.032008
7,69,1,7,0,0,1,,6,S,0,S,14,0.016589,0.77132,0.012796
7,70,4,6,0,0,1,,2,S,0,S,17,0.016647,0.781509,0.01301
7,71,5,8,0,0,1,,3,S,0,S,18,0.013219,0.790146,0.010445
7,72,1,8,0,0,1,,7,L,0,S,14,0.012677,0.777323,0.009854
8,1,9,5,0,0,1,,4,S,0,S,18,0.794982,0.011746,0.009338
8,2,3,5,0,0,1,,2,S,0,S,18,0.034567,0.766111,0.026482
8,3,6,2,0,0,1,,4,S,0,S,15,0.80087,0,0
8,4,8,9,0,0,1,,1,S,0,S,22,0.044298,0.757459,0.033554
8,5,9,3,0,0,1,,6,S,0,S,14,0.768867,0.021897,0.016836
8,6,2,1,0,0,1,,1,S,0,S,19,0.785198,0.019211,0.015085
8,7,1,9,0,0,1,,8,L,0,S,14,0.007854,0.78511,0.006166
8,8,4,6,0,0,1,,2,S,0,S,17,0.01059,0.788778,0.008353
8,9,4,1,0,0,1,,3,S,0,S,16,0.774589,0.021967,0.017016
8,10,8,3,0,0,1,,5,S,0,S,14,0.750631,0.034499,0.025896
8,11,3,4,0,0,1,,1,S,0,S,21,0.022623,0.783272,0.01772
8,12,8,2,0,0,1,,6,S,0,S,15,0.794516,0.004248,0.003375
8,13,1,2,0,0,1,,1,S,0,S,20,0.010402,0.79667,0.008287
8,14,4,2,0,0,1,,2,S,0,S,24,0.769153,0.034982,0.026907
8,15,7,8,0,0,1,,1,S,0,S,23,0.049942,0.751223,0.037518
8,16,9,4,0,0,1,,5,S,0,S,16,0.751985,0.040631,0.030554
8,17,7,2,0,0,1,,5,S,0,S,15,0.80041,0.00043,0.000344
8,18,4,8,0,0,1,,4,S,0,S,15,0.000177,0.799661,0.000142
8,19,2,9,0,0,1,,7,L,0,S,14,0,0.798051,0
8,20,1,4,0,0,1,,3,S,0,S,15,0.03653,0.750631,0.02742
8,21,3,8,0,0,1,,5,S,0,S,16,0.012319,0.78944,0.009725
8,22,5,7,0,0,1,,2,S,0,S,17,0.025422,0.77398,0.019676
8,23,6,7,0,0,0,,1,S,0,S,26,0.780048,0.026344,0.02055
8,24,2,4,0,0,1,,2,S,0,S,15,0.021415,0.771656,0.016525
8,25,2,3,0,0,1,,1,S,0,S,19,0.020695,0.78448,0.016235
8,26,1,6,0,0,1,,5,S,0,S,15,0.031906,0.754361,0.024069
8,27,2,8,0,0,1,,6,S,0,S,14,0,0.796715,0
8,28,4,7,0,0,1,,3,S,0,S,15,0.011999,0.783612,0.009403
8,29,5,9,0,0,1,,4,S,0,S,16,0.037616,0.757345,0.028488
8,30,7,6,0,0,1,,1,S,0,S,17,0.754704,0.038256,0.028872
8,31,5,8,0,0,1,,3,S,0,S,16,0.038437,0.755486,0.029038
8,32,6,1,0,0,1,,5,S,0,S,13,0.763485,0.019238,0.014688
8,33,5,2,0,0,1,,3,S,0,S,17,0.79884,0.006506,0.005197
8,34,9,8,0,0,1,,1,S,0,S,29,0.763228,0.042134,0.032158
8,35,1,3,0,0,1,,2,S,0,S,20,0.041479,0.757955,0.031439
8,36,8,5,0,0,1,,3,S,0,S,19,0.786759,0.017954,0.014126
8,37,2,6,0,0,1,,4,S,0,S,15,0.017476,0.774542,0.013536
8,38,1,5,0,0,1,,4,S,0,S,15,0.011626,0.78417,0.009116
8,39,8,1,0,0,1,,7,L,0,S,13,0.759141,0.022079,0.016761
8,40,3,6,0,0,1,,3,S,0,S,20,0.031114,0.769338,0.023937
8,41,7,4,0,0,1,,3,S,0,S,17,0.774895,0.024251,0.018792
8,42,2,5,0,0,1,,3,S,0,S,15,0,0.801421,0
8,43,4,5,0,0,1,,1,S,0,S,16,0.017088,0.781521,0.013355
8,44,1,7,0,0,1,,6,S,0,S,14,0.017578,0.77085,0.01355
8,45,6,9,0,0,1,,3,S,0,S,24,0.029283,0.77783,0.022777
8,46,5,1,0,0,1,,4,S,0,S,14,0.761417,0.026204,0.019952
8,47,9,2,0,0,1,,7,L,0,S,14,0.761824,0.027171,0.0207
8,48,6,4,0,0,1,,2,S,0,S,17,0.776717,0.022457,0.017443
8,49,8,7,0,0,1,,1,S,0,S,52,0.760088,0.04225,0.032114
8,50,9,6,0,0,1,,3,S,0,S,17,0.783431,0.016371,0.012825
8,51,8,4,0,0,1,,4,S,0,S,17,0.763302,0.032486,0.024796
8,52,6,8,0,0,1,,2,S,0,S,24,0.032,0.773581,0.024754
8,53,8,6,0,0,1,,2,S,0,S,18,0.789676,0.011427,0.009024
8,54,7,9,0,0,1,,2,S,0,S,23,0.047444,0.755247,0.035832
8,55,9,7,0,0,1,,2,S,0,S,22,0.777401,0.028531,0.02218
8,56,5,6,0,0,1,,1,S,0,S,24,0.032094,0.769701,0.024702
8,57,6,3,0,0,1,,3,S,0,S,14,0.756891,0.030178,0.022842
8,58,7,1,0,0,1,,6,S,0,S,13,0.763342,0.019646,0.014997
8,59,9,1,0,0,1,,8,L,0,S,13,0.771923,0.013709,0.010583
8,60,5,3,0,0,1,,2,S,0,S,16,0.764125,0.031877,0.024358
8,61,3,1,0,0,1,,2,S,0,S,15,0.795371,0.004202,0.003342
8,62,5,4,0,0,0,,1,S,0,S,28,0.028192,0.777808,0.021928
8,63,4,9,0,0,1,,5,S,0,S,15,0,0.801173,0
8,64,3,2,0,0,1,,1,S,0,S,17,0.757669,0.03963,0.030026
8,65,7,3,0,0,1,,4,S,0,S,14,0.756419,0.030866,0.023347
8,66,2,7,0,0,1,,5,S,0,S,14,0.007886,0.784848,0.00619
8,67,6,5,0,0,1,,1,S,0,S,18,0.759829,0.038623,0.029347
8,68,3,7,0,0,1,,4,S,0,S,16,0.030869,0.764895,0.023612
8,69,4,3,0,0,1,,1,S,0,S,22,0.7762,0.028829,0.022377
8,70,7,5,0,0,1,,2,S,0,S,18,0.756458,0.041653,0.031509
8,71,1,8,0,0,1,,7,L,0,S,14,0.008367,0.783724,0.006558
8,72,3,9,0,0,1,,6,S,0,S,16,0.011562,0.791165,0.009147
9,1,7,8,0,0,1,,1,S,0,S,26,0.031519,0.768258,0.024215
9,2,8,6,0,0,1,,2,S,0,S,18,0.765352,0.031619,0.024199
9,3,7,2,0,0,1,,5,S,0,S,15,0.782608,0.012167,0.009522
9,4,1,5,0,0,1,,4,S,0,S,14,0.004617,0.785088,0.003625
9,5,8,4,0,0,1,,4,S,0,S,14,0.79039,0.00267,0.00211
9,6,4,2,0,0,1,,2,S,0,S,17,0.775872,0.023394,0.018151
9,7,1,8,0,0,1,,7,L,0,S,13,0.01521,0.764802,0.011632
9,8,6,7,0,0,1,,1,S,0,S,17,0.032745,0.764488,0.025033
9,9,4,6,0,0,1,,2,S,0,S,17,0.02932,0.766375,0.02247
9,10,8,3,0,0,1,,5,S,0,S,14,0.791965,0.001999,0.001583
9,11,3,7,0,0,1,,4,S,0,S,14,0.002721,0.790347,0.00215
9,12,6,9,0,0,1,,3,S,0,S,18,0.040564,0.760112,0.030833
9,13,3,1,0,0,1,,2,S,0,S,18,0.77932,0.02285,0.017808
9,14,4,1,0,0,1,,3,S,0,S,15,0.784584,0.011693,0.009174
9,15,2,9,0,0,1,,7,L,0,S,13,0.03201,0.750079,0.02401
9,16,9,6,0,0,1,,3,S,0,S,18,0.768496,0.028933,0.022235
9,17,7,5,0,0,1,,2,S,0,S,19,0.782415,0.017323,0.013554
9,18,4,8,0,0,1,,4,S,0,S,17,0.017917,0.779486,0.013966
9,19,1,9,0,0,1,,8,L,0,S,13,0.003357,0.784879,0.002635
9,20,6,5,0,0,1,,1,S,0,S,20,0.758592,0.039851,0.030231
9,21,5,9,0,0,1,,4,S,0,S,16,0.007339,0.797573,0.005854
9,22,5,1,0,0,1,,4,S,0,S,15,0.781122,0.016248,0.012692
9,23,1,4,0,0,1,,3,S,0,S,16,0.028956,0.764245,0.02213
9,24,2,3,0,0,1,,1,S,0,S,20,0.027634,0.777863,0.021495
9,25,5,7,0,0,1,,2,S,0,S,15,0.02426,0.769229,0.018662
9,26,2,8,0,0,1,,6,S,0,S,14,0.011247,0.779411,0.008766
9,27,3,8,0,0,1,,5,S,0,S,14,0.031304,0.751332,0.02352
9,28,5,4,0,0,1,,1,S,0,S,16,0.750453,0.042394,0.031814
9,29,9,7,0,0,1,,2,S,0,S,30,0.754889,0.04486,0.033864
9,30,4,7,0,0,1,,3,S,0,S,15,0.033436,0.754913,0.025241
9,31,3,9,0,0,1,,6,S,0,S,14,0.013314,0.779488,0.010378
9,32,5,2,0,0,1,,3,S,0,S,17,0.764636,0.034279,0.026211
9,33,6,2,0,0,1,,4,S,0,S,15,0.768698,0.025387,0.019515
9,34,5,6,0,0,1,,1,S,0,S,17,0.01423,0.788062,0.011214
9,35,9,1,0,0,1,,8,L,0,S,13,0.773923,0.01094,0.008466
9,36,3,4,0,0,1,,1,S,0,S,38,0.018806,0.789247,0.014843
9,37,7,6,0,0,1,,1,S,0,S,30,0.793465,0.012783,0.010143
9,38,9,2,0,0,1,,7,L,0,S,14,0.779326,0.011595,0.009036
9,39,8,9,0,0,0,,1,S,0,S,21,0.77855,0.027067,0.021073
9,40,8,7,0,0,1,,1,S,0,S,36,0.768395,0.034419,0.026448
9,41,7,1,0,0,1,,6,S,0,S,14,0.79357,0.000203,0.000161
9,42,2,4,0,0,1,,2,S,0,S,20,0.027135,0.777657,0.021102
9,43,3,5,0,0,1,,2,S,0,S,16,0.002702,0.796774,0.002153
9,44,8,1,0,0,1,,7,L,0,S,13,0.773583,0.011361,0.008789
9,45,2,6,0,0,1,,4,S,0,S,14,0.015123,0.775622,0.01173
9,46,6,4,0,0,1,,2,S,0,S,15,0.786832,0.010622,0.008358
9,47,3,6,0,0,1,,3,S,0,S,15,0.000198,0.797821,0.000158
9,48,7,3,0,0,1,,4,S,0,S,15,0.800146,0,0
9,49,9,3,0,0,1,,6,S,0,S,14,0.792442,0.001461,0.001158
9,50,1,7,0,0,1,,6,S,0,S,13,0,0.791129,0
9,51,3,2,0,0,0,,1,S,0,S,22,0.019239,0.787823,0.015157
9,52,8,5,0,0,1,,3,S,0,S,16,0.760818,0.030282,0.023039
9,53,4,3,0,0,1,,1,S,0,S,16,0.761134,0.032684,0.024877
9,54,2,1,0,0,1,,1,S,0,S,20,0.75962,0.042401,0.032209
9,55,7,4,0,0,1,,3,S,0,S,15,0.798342,0,0
9,56,9,8,0,0,1,,1,S,0,S,19,0.786771,0.014504,0.011411
9,57,7,9,0,0,1,,2,S,0,S,20,0.032997,0.769088,0.025378
9,58,6,1,0,0,1,,5,S,0,S,14,0.78605,0.008224,0.006465
9,59,2,5,0,0,1,,3,S,0,S,15,0.010485,0.78522,0.008233
9,60,5,8,0,0,1,,3,S,0,S,16,0.040166,0.750811,0.030157
9,61,4,5,0,0,1,,1,S,0,S,20,0.040252,0.75593,0.030427
9,62,1,3,0,0,1,,2,S,0,S,16,0.028738,0.765316,0.021994
9,63,5,3,0,0,1,,2,S,0,S,16,0.752903,0.041109,0.030951
9,64,6,3,0,0,1,,3,S,0,S,15,0.788692,0.009745,0.007686
9,65,1,6,0,0,1,,5,S,0,S,13,0.01799,0.762328,0.013714
9,66,9,5,0,0,1,,4,S,0,S,16,0.762357,0.028889,0.022023
9,67,6,8,0,0,1,,2,S,0,S,21,0.023223,0.780304,0.018121
9,68,2,7,0,0,1,,5,S,0,S,13,0.022656,0.759507,0.017207
9,69,8,2,0,0,1,,6,S,0,S,14,0.778767,0.012199,0.0095
9,70,1,2,0,0,1,,1,S,0,S,16,0.007543,0.792438,0.005977
9,71,4,9,0,0,1,,5,S,0,S,16,0.018152,0.781455,0.014185
9,72,9,4,0,0,1,,5,S,0,S,14,0.790869,0.002131,0.001685
10,1,2,8,0,0,1,,6,S,0,S,14,0.033164,0.753981,0.025005
10,2,5,8,0,0,1,,3,S,0,S,20,0.047157,0.752858,0.035502
10,3,9,8,0,0,1,,1,S,0,S,27,0.778988,0.02871,0.022365
10,4,1,3,0,0,1,,2,S,0,S,15,0.016241,0.778823,0.012649
10,5,2,3,0,0,1,,1,S,0,S,21,0.015258,0.794083,0.012116
10,6,7,3,0,0,1,,4,S,0,S,15,0.757067,0.032862,0.024879
10,7,7,4,0,0,1,,3,S,0,S,17,0.762815,0.033937,0.025888
10,8,4,6,0,0,1,,2,S,0,S,19,0.041191,0.75536,0.031114
10,9,4,7,0,0,1,,3,S,0,S,18,0.045078,0.752012,0.033899
10,10,2,9,0,0,1,,7,L,0,S,13,0.012052,0.772598,0.009312
10,11,9,7,0,0,1,,2,S,0,S,22,0.760116,0.042784,0.032521
10,12,5,9,0,0,1,,4,S,0,S,15,0.026291,0.765003,0.020113
10,13,4,9,0,0,1,,5,S,0,S,15,0.001006,0.796874,0.000802
10,14,6,4,0,0,1,,2,S,0,S,20,0.772181,0.030546,0.023587
10,15,8,7,0,0,1,,1,S,0,S,29,0.785984,0.022774,0.0179
10,16,6,9,0,0,1,,3,S,0,S,15,0.002765,0.79369,0.002194
10,17,8,5,0,0,1,,3,S,0,S,18,0.75998,0.039585,0.030084
10,18,8,6,0,0,1,,2,S,0,S,23,0.757566,0.041937,0.03177
10,19,3,8,0,0,1,,5,S,0,S,16,0.021226,0.776919,0.016491
10,20,4,2,0,0,1,,2,S,0,S,14,0.759632,0.025244,0.019176
10,21,6,2,0,0,1,,4,S,0,S,14,0.759078,0.024944,0.018934
10,22,4,5,0,0,1,,1,S,0,S,33,0.02393,0.785997,0.018809
10,23,2,7,0,0,1,,5,S,0,S,15,0.0048,0.79575,0.00382
10,24,5,4,0,0,1,,1,S,0,S,18,0.793829,0.012512,0.009932
10,25,6,5,0,0,1,,1,S,0,S,33,0.778511,0.029094,0.02265
10,26,3,9,0,0,1,,6,S,0,S,14,0.008537,0.782345,0.006679
10,27,4,3,0,0,1,,1,S,0,S,17,0.797145,0.007393,0.005894
10,28,2,5,0,0,1,,3,S,0,S,16,0.009533,0.794349,0.007573
10,29,8,2,0,0,1,,6,S,0,S,14,0.796026,0,0
10,30,5,3,0,0,1,,2,S,0,S,16,0.799413,0.004041,0.00323
10,31,9,2,0,0,1,,7,L,0,S,13,0.75192,0.026469,0.019902
10,32,2,1,0,0,1,,1,S,0,S,19,0.771644,0.031187,0.024065
10,33,7,6,0,0,1,,1,S,0,S,28,0.78904,0.016667,0.013151
10,34,2,4,0,0,1,,2,S,0,S,17,0.011147,0.794055,0.008851
10,35,1,9,0,0,1,,8,L,0,S,12,0.007499,0.768417,0.005763
10,36,6,1,0,0,1,,5,S,0,S,15,0.783556,0.012054,0.009445
10,37,9,6,0,0,1,,3,S,0,S,21,0.782678,0.021626,0.016927
10,38,1,6,0,0,1,,5,S,0,S,13,0.016836,0.76423,0.012867
10,39,9,1,0,0,1,,8,L,0,S,14,0.786869,0.006924,0.005448
10,40,8,9,0,0,1,,1,S,0,S,16,0.007634,0.791758,0.006044
10,41,9,3,0,0,1,,6,S,0,S,15,0.784133,0.013143,0.010306
10,42,5,1,0,0,1,,4,S,0,S,14,0.763773,0.024773,0.018921
10,43,1,7,0,0,1,,6,S,0,S,13,0.011324,0.774185,0.008767
10,44,4,1,0,0,1,,3,S,0,S,15,0.783952,0.012479,0.009783
10,45,3,1,0,0,1,,2,S,0,S,16,0.778252,0.019685,0.01532
10,46,1,2,0,0,1,,1,S,0,S,19,0.016861,0.784314,0.013224
10,47,8,4,0,0,1,,4,S,0,S,17,0.782941,0.01889,0.01479
10,48,2,6,0,0,1,,4,S,0,S,15,0.014439,0.780583,0.011271
10,49,7,8,0,0,1,,1,S,0,S,22,0.030684,0.773134,0.023723
10,50,7,2,0,0,1,,5,S,0,S,14,0.788796,0.002143,0.00169
10,51,1,5,0,0,1,,4,S,0,S,14,0,0.801387,0
10,52,6,7,0,0,1,,1,S,0,S,19,0.013864,0.79188,0.010979
10,53,6,8,0,0,1,,2,S,0,S,18,0.023453,0.778108,0.018249
10,54,1,8,0,0,1,,7,L,0,S,13,0.006975,0.779745,0.005439
10,55,6,3,0,0,1,,3,S,0,S,17,0.797474,0.006354,0.005067
10,56,8,3,0,0,1,,5,S,0,S,15,0.769046,0.024358,0.018732
10,57,3,2,0,0,1,,1,S,0,S,15,0.767342,0.023004,0.017652
10,58,3,4,0,0,1,,1,S,0,S,22,0.031776,0.773105,0.024566
10,59,7,1,0,0,1,,6,S,0,S,14,0.767954,0.020236,0.01554
10,60,9,4,0,0,1,,5,S,0,S,16,0.758785,0.036217,0.027481
10,61,7,9,0,0,1,,2,S,0,S,15,0.036061,0.750522,0.027064
10,62,3,5,0,0,1,,2,S,0,S,19,0.011389,0.796913,0.009076
10,63,3,7,0,0,1,,4,S,0,S,16,0.034868,0.759711,0.02649
10,64,8,1,0,0,1,,7,L,0,S,14,0.776321,0.014545,0.011292
10,65,9,5,0,0,1,,4,S,0,S,18,0.797516,0.010301,0.008215
10,66,5,6,0,0,1,,1,S,0,S,26,0.037121,0.76537,0.028412
10,67,3,6,0,0,1,,3,S,0,S,17,0.015151,0.784579,0.011887
10,68,1,4,0,0,1,,3,S,0,S,14,0.012343,0.779357,0.009619
10,69,4,8,0,0,1,,4,S,0,S,18,0.019147,0.784548,0.015022
10,70,7,5,0,0,1,,2,S,0,S,19,0.775404,0.027777,0.021538
10,71,5,2,0,0,1,,3,S,0,S,14,0.785794,0.005721,0.004496
10,72,5,7,0,0,1,,2,S,0,S,22,0.043724,0.759047,0.033189
11,1,4,3,0,0,1,,1,S,0,S,23,0.756969,0.042292,0.032014
11,2,6,8,0,0,1,,2,S,0,S,22,0.041696,0.765583,0.031922
11,3,9,7,0,0,1,,2,S,0,S,20,0.756681,0.044302,0.033522
11,4,2,4,0,0,1,,2,S,0,S,17,0.036859,0.756627,0.027888
11,5,6,5,0,0,0,,1,S,0,S,23,0.049327,0.755205,0.037252
11,6,8,6,0,0,1,,2,S,0,S,16,0.76993,0.026328,0.020271
11,7,2,5,0,0,1,,3,S,0,S,16,0.003066,0.79978,0.002452
11,8,9,6,0,0,1,,3,S,0,S,20,0.790338,0.017236,0.013622
11,9,3,8,0,0,1,,5,S,0,S,15,0.026509,0.769419,0.020397
11,10,9,5,0,0,1,,4,S,0,S,22,0.782644,0.023996,0.01878
11,11,2,9,0,0,1,,7,L,0,S,14,0.02096,0.769198,0.016122
11,12,3,2,0,0,1,,1,S,0,S,19,0.775819,0.027713,0.0215
11,13,7,4,0,0,1,,3,S,0,S,17,0.759045,0.034252,0.025999
11,14,9,1,0,0,1,,8,L,0,S,14,0.757872,0.027766,0.021043
11,15,3,9,0,0,1,,6,S,0,S,14,0.015732,0.777887,0.012238
11,16,7,8,0,0,0,,1,S,0,S,22,0.776832,0.028735,0.022322
11,17,4,9,0,0,1,,5,S,0,S,15,0.003173,0.796681,0.002528
11,18,8,2,0,0,1,,6,S,0,S,13,0.754866,0.024523,0.018512
11,19,2,6,0,0,1,,4,S,0,S,16,0.01873,0.780626,0.014621
11,20,7,2,0,0,1,,5,S,0,S,14,0.763943,0.022784,0.017406
11,21,5,7,0,0,1,,2,S,0,S,21,0.035497,0.770363,0.027345
11,22,6,4,0,0,1,,2,S,0,S,19,0.775368,0.028047,0.021747
11,23,1,5,0,0,1,,4,S,0,S,14,0.012607,0.778674,0.009816
11,24,7,1,0,0,1,,6,S,0,S,14,0.758712,0.026271,0.019932
11,25,2,8,0,0,1,,6,S,0,S,15,0.034201,0.757511,0.025908
11,26,5,8,0,0,1,,3,S,0,S,19,0.048038,0.752716,0.036159
11,27,2,1,0,0,1,,1,S,0,S,19,0.774796,0.026196,0.020297
11,28,4,1,0,0,1,,3,S,0,S,17,0.755819,0.037967,0.028696
11,29,1,9,0,0,1,,8,L,0,S,13,0.014439,0.770584,0.011127
11,30,5,1,0,0,1,,4,S,0,S,15,0.765324,0.027094,0.020735
11,31,1,3,0,0,1,,2,S,0,S,16,0.031076,0.76119,0.023655
11,32,1,4,0,0,1,,3,S,0,S,15,0.012855,0.78043,0.010032
11,33,7,3,0,0,1,,4,S,0,S,15,0.75168,0.035268,0.02651
11,34,6,2,0,0,1,,4,S,0,S,15,0.795537,0.005384,0.004283
11,35,8,7,0,0,1,,1,S,0,S,16,0.759914,0.034336,0.026093
11,36,1,8,0,0,1,,7,L,0,S,14,0.009531,0.783813,0.007471
11,37,5,3,0,0,1,,2,S,0,S,17,0.776795,0.022986,0.017855
11,38,4,5,0,0,1,,1,S,0,S,16,0.033642,0.760514,0.025586
11,39,4,8,0,0,1,,4,S,0,S,16,0.027292,0.769895,0.021012
11,40,9,3,0,0,1,,6,S,0,S,16,0.79951,0.001741,0.001392
11,41,7,9,0,0,1,,2,S,0,S,19,0.010581,0.796469,0.008428
11,42,4,6,0,0,1,,2,S,0,S,17,0.018382,0.7835,0.014402
11,43,1,7,0,0,1,,6,S,0,S,14,0.01724,0.773542,0.013336
11,44,2,7,0,0,1,,5,S,0,S,16,0.011355,0.790207,0.008973
11,45,9,8,0,0,1,,1,S,0,S,23,0.7914,0.01841,0.01457
11,46,4,7,0,0,1,,3,S,0,S,17,0.00858,0.796073,0.006831
11,47,5,6,0,0,1,,1,S,0,S,22,0.045982,0.757698,0.03484
11,48,3,7,0,0,1,,4,S,0,S,15,0.039301,0.752711,0.029582
11,49,3,5,0,0,1,,2,S,0,S,15,0.031265,0.762091,0.023827
11,50,6,9,0,0,1,,3,S,0,S,17,0.014988,0.791934,0.011869
11,51,8,9,0,0,0,,1,S,0,S,22,0.770732,0.033198,0.025587
11,52,6,7,0,0,1,,1,S,0,S,30,0.032994,0.777985,0.025669
11,53,8,5,0,0,1,,3,S,0,S,17,0.791044,0.011275,0.008919
11,54,8,1,0,0,1,,7,L,0,S,13,0.750788,0.027106,0.020351
11,55,3,6,0,0,1,,3,S,0,S,16,0.009741,0.794032,0.007735
11,56,3,1,0,0,1,,2,S,0,S,19,0.754114,0.044335,0.033434
11,57,7,6,0,0,1,,1,S,0,S,19,0.755604,0.042972,0.03247
11,58,5,4,0,0,1,,1,S,0,S,21,0.760842,0.039735,0.030232
11,59,1,2,0,0,1,,1,S,0,S,19,0.045381,0.750684,0.034067
11,60,4,2,0,0,1,,2,S,0,S,17,0.768099,0.028912,0.022208
11,61,3,4,0,0,1,,1,S,0,S,17,0.023625,0.775616,0.018324
11,62,6,1,0,0,1,,5,S,0,S,15,0.789608,0.009512,0.007511
11,63,2,3,0,0,1,,1,S,0,S,23,0.017592,0.788235,0.013867
11,64,8,4,0,0,1,,4,S,0,S,15,0.760109,0.028225,0.021454
11,65,9,2,0,0,1,,7,L,0,S,14,0.763167,0.024225,0.018488
11,66,7,5,0,0,1,,2,S,0,S,21,0.760546,0.040109,0.030505
11,67,6,3,0,0,1,,3,S,0,S,16,0.766979,0.029903,0.022935
11,68,5,2,0,0,1,,3,S,0,S,15,0.772134,0.022336,0.017246
11,69,8,3,0,0,1,,5,S,0,S,14,0.763343,0.022366,0.017073
11,70,1,6,0,0,1,,5,S,0,S,14,0.021353,0.767988,0.016399
11,71,5,9,0,0,1,,4,S,0,S,16,0.026283,0.773047,0.020318
11,72,9,4,0,0,1,,5,S,0,S,17,0.754128,0.039058,0.029454
12,1,3,6,0,0,1,,3,S,0,S,16,0.021045,0.77091,0.016224
12,2,6,4,0,0,1,,2,S,0,S,23,0.774847,0.031416,0.024342
12,3,3,5,0,0,1,,2,S,0,S,18,0.010886,0.788962,0.008588
12,4,7,9,0,0,1,,2,S,0,S,21,0.020455,0.782794,0.016012
12,5,1,3,0,0,1,,2,S,0,S,16,0.027657,0.766606,0.021202
12,6,9,8,0,0,1,,1,S,0,S,28,0.786313,0.02086,0.016402
12,7,5,7,0,0,1,,2,S,0,S,22,0.027758,0.774457,0.021497
12,8,6,7,0,0,1,,1,S,0,S,20,0.042535,0.755893,0.032152
12,9,8,9,0,0,1,,1,S,0,S,18,0.029623,0.768266,0.022759
12,10,9,3,0,0,1,,6,S,0,S,15,0.776057,0.018066,0.01402
12,11,4,7,0,0,1,,3,S,0,S,18,0.006804,0.794179,0.005403
12,12,5,4,0,0,1,,1,S,0,S,21,0.770292,0.032888,0.025334
12,13,4,8,0,0,1,,4,S,0,S,16,0.012626,0.783217,0.009889
12,14,8,1,0,0,1,,7,L,0,S,14,0.778967,0.011177,0.008707
12,15,9,4,0,0,1,,5,S,0,S,16,0.755841,0.037923,0.028664
12,16,6,2,0,0,1,,4,S,0,S,15,0.789084,0.008901,0.007024
12,17,4,6,0,0,1,,2,S,0,S,18,0.028477,0.768112,0.021873
12,18,5,2,0,0,1,,3,S,0,S,15,0.795772,0.002642,0.002102
12,19,1,4,0,0,1,,3,S,0,S,15,0.009933,0.787101,0.007818
12,20,7,2,0,0,1,,5,S,0,S,14,0.786998,0.004541,0.003574
12,21,3,7,0,0,1,,4,S,0,S,16,0.009785,0.784087,0.007672
12,22,8,6,0,0,1,,2,S,0,S,22,0.79448,0.011652,0.009257
12,23,5,6,0,0,1,,1,S,0,S,26,0.014133,0.79406,0.011222
12,24,7,4,0,0,1,,3,S,0,S,17,0.777657,0.021012,0.01634
12,25,1,5,0,0,1,,4,S,0,S,15,0.02218,0.770566,0.017091
12,26,1,8,0,0,1,,7,L,0,S,14,0,0.801287,0
12,27,8,5,0,0,1,,3,S,0,S,18,0.789429,0.013009,0.01027
12,28,4,9,0,0,1,,5,S,0,S,15,0.030827,0.756908,0.023333
12,29,2,9,0,0,1,,7,L,0,S,14,0.030464,0.752716,0.02293
12,30,3,2,0,0,1,,1,S,0,S,18,0.778991,0.018725,0.014587
12,31,2,8,0,0,1,,6,S,0,S,15,0.007388,0.78683,0.005813
12,32,7,8,0,0,1,,1,S,0,S,25,0.022165,0.781464,0.017321
12,33,9,1,0,0,1,,8,L,0,S,13,0.756594,0.024637,0.01864
12,34,6,1,0,0,1,,5,S,0,S,14,0.753868,0.032424,0.024444
12,35,2,3,0,0,1,,1,S,0,S,22,0.016444,0.787573,0.012951
12,36,2,4,0,0,1,,2,S,0,S,17,0.028951,0.767267,0.022214
12,37,6,3,0,0,1,,3,S,0,S,17,0.755013,0.040251,0.03039
12,38,5,9,0,0,1,,4,S,0,S,17,0.015223,0.785826,0.011962
12,39,5,3,0,0,1,,2,S,0,S,17,0.773377,0.024661,0.019072
12,40,9,7,0,0,1,,2,S,0,S,18,0.754061,0.041125,0.03101
12,41,4,2,0,0,1,,2,S,0,S,16,0.783821,0.012851,0.010073
12,42,2,7,0,0,1,,5,S,0,S,16,0.014164,0.780737,0.011059
12,43,5,8,0,0,1,,3,S,0,S,18,0.009129,0.794694,0.007255
12,44,2,6,0,0,1,,4,S,0,S,16,0.026183,0.766618,0.020073
12,45,8,7,0,0,1,,1,S,0,S,25,0.790751,0.014338,0.011338
12,46,1,6,0,0,1,,5,S,0,S,14,0.026617,0.759274,0.020209
12,47,3,8,0,0,1,,5,S,0,S,15,0.004577,0.788292,0.003608
12,48,2,5,0,0,1,,3,S,0,S,18,0.020387,0.779328,0.015888
12,49,3,1,0,0,1,,2,S,0,S,17,0.770586,0.023937,0.018445
12,50,4,3,0,0,1,,1,S,0,S,21,0.782922,0.019368,0.015164
12,51,7,3,0,0,1,,4,S,0,S,15,0.758005,0.030119,0.02283
12,52,7,1,0,0,1,,6,S,0,S,14,0.798599,0,0
12,53,7,6,0,0,1,,1,S,0,S,18,0.751097,0.042402,0.031848
12,54,6,8,0,0,1,,2,S,0,S,17,0.026157,0.77263,0.020209
12,55,4,1,0,0,1,,3,S,0,S,15,0.75625,0.031577,0.02388
12,56,1,2,0,0,1,,1,S,0,S,23,0.043592,0.75689,0.032994
12,57,9,6,0,0,1,,3,S,0,S,18,0.790309,0.01352,0.010685
12,58,9,2,0,0,1,,7,L,0,S,14,0.798914,0,0
12,59,8,2,0,0,1,,6,S,0,S,14,0.765401,0.021431,0.016403
12,60,7,5,0,0,1,,2,S,0,S,16,0.75303,0.037426,0.028183
12,61,9,5,0,0,1,,4,S,0,S,16,0.777032,0.020689,0.016076
12,62,5,1,0,0,1,,4,S,0,S,14,0.76001,0.026673,0.020272
12,63,3,4,0,0,1,,1,S,0,S,17,0.021372,0.774563,0.016554
12,64,8,3,0,0,1,,5,S,0,S,16,0.768875,0.024952,0.019185
12,65,1,7,0,0,1,,6,S,0,S,14,0.02003,0.766664,0.015356
12,66,8,4,0,0,1,,4,S,0,S,18,0.751163,0.043927,0.032996
12,67,6,5,0,0,1,,1,S,0,S,20,0.754347,0.045362,0.034219
12,68,1,9,0,0,1,,8,L,0,S,13,0.021362,0.759863,0.016232
12,69,4,5,0,0,1,,1,S,0,S,23,0.02492,0.777766,0.019382
12,70,3,9,0,0,1,,6,S,0,S,14,0.027818,0.753984,0.020975
12,71,6,9,0,0,1,,3,S,0,S,16,0.0362,0.757759,0.027431
12,72,2,1,0,0,1,,1,S,0,S,17,0.787879,0.012168,0.009587
13,1,4,6,0,0,1,,2,S,0,S,21,0.040371,0.760398,0.030698
13,2,5,2,0,0,1,,3,S,0,S,14,0.772875,0.015648,0.012094
13,3,9,1,0,0,1,,8,L,0,S,14,0.8009,0,0
13,4,1,3,0,0,1,,2,S,0,S,16,0.012782,0.789356,0.01009
13,5,6,8,0,0,1,,2,S,0,S,20,0.011335,0.796282,0.009026
13,6,3,4,0,0,1,,1,S,0,S,18,0.024851,0.774157,0.019238
13,7,1,9,0,0,1,,8,L,0,S,13,0,0.791736,0
13,8,8,4,0,0,1,,4,S,0,S,16,0.776167,0.021939,0.017028
13,9,5,4,0,0,1,,1,S,0,S,24,0.795411,0.012772,0.010159
13,10,5,8,0,0,1,,3,S,0,S,19,0.014853,0.789479,0.011726
13,11,2,6,0,0,1,,4,S,0,S,15,0.028164,0.76483,0.021541
13,12,2,4,0,0,1,,2,S,0,S,16,0.00671,0.795902,0.005341
13,13,2,1,0,0,1,,1,S,0,S,18,0.783818,0.019123,0.014989
13,14,2,3,0,0,1,,1,S,0,S,21,0.026911,0.780023,0.020991
13,15,2,7,0,0,1,,5,S,0,S,15,0.00065,0.798093,0.000519
13,16,6,1,0,0,1,,5,S,0,S,14,0.772264,0.016921,0.013067
13,17,4,7,0,0,1,,3,S,0,S,18,0.025895,0.772691,0.020009
13,18,9,3,0,0,1,,6,S,0,S,15,0.791694,0.007865,0.006227
13,19,3,9,0,0,1,,6,S,0,S,15,0.00414,0.792914,0.003283
13,20,3,6,0,0,1,,3,S,0,S,17,0.031934,0.763107,0.024369
13,21,1,5,0,0,1,,4,S,0,S,14,0.005078,0.789648,0.00401
13,22,7,2,0,0,1,,5,S,0,S,14,0.791939,0.000214,0.000169
13,23,4,5,0,0,1,,1,S,0,S,22,0.020792,0.785402,0.01633
13,24,7,1,0,0,1,,6,S,0,S,14,0.781857,0.007846,0.006134
13,25,7,4,0,0,1,,3,S,0,S,19,0.766924,0.031819,0.024402
13,26,5,6,0,0,1,,1,S,0,S,27,0.041693,0.760045,0.031689
13,27,1,2,0,0,1,,1,S,0,S,23,0.018576,0.789362,0.014663
13,28,3,1,0,0,1,,2,S,0,S,16,0.788004,0.009364,0.007379
13,29,4,2,0,0,1,,2,S,0,S,14,0.760389,0.025785,0.019607
13,30,1,4,0,0,1,,3,S,0,S,14,0.011987,0.780797,0.009359
13,31,7,6,0,0,1,,1,S,0,S,21,0.786575,0.017766,0.013974
13,32,3,5,0,0,1,,2,S,0,S,17,0.036571,0.757042,0.027685
13,33,9,5,0,0,1,,4,S,0,S,18,0.755332,0.042382,0.032013
13,34,6,5,0,0,1,,1,S,0,S,24,0.778821,0.027149,0.021145
13,35,6,4,0,0,1,,2,S,0,S,21,0.771516,0.03189,0.024604
13,36,1,6,0,0,1,,5,S,0,S,14,0.003624,0.791655,0.002869
13,37,5,9,0,0,1,,4,S,0,S,16,0.033335,0.76031,0.025345
13,38,8,7,0,0,1,,1,S,0,S,18,0.759998,0.036818,0.027982
13,39,3,7,0,0,1,,4,S,0,S,16,0.020059,0.773332,0.015512
13,40,8,6,0,0,1,,2,S,0,S,16,0.751349,0.041375,0.031087
13,41,9,8,0,0,1,,1,S,0,S,27,0.759933,0.043644,0.033166
13,42,2,8,0,0,1,,6,S,0,S,14,0.030893,0.75611,0.023359
13,43,7,9,0,0,1,,2,S,0,S,18,0.008667,0.795202,0.006892
13,44,6,7,0,0,1,,1,S,0,S,20,0.038986,0.759363,0.029604
13,45,8,5,0,0,1,,3,S,0,S,16,0.755607,0.037942,0.028669
13,46,9,6,0,0,1,,3,S,0,S,19,0.794532,0.012593,0.010005
13,47,1,8,0,0,1,,7,L,0,S,13,0.019022,0.764979,0.014552
13,48,8,1,0,0,1,,7,L,0,S,13,0.772295,0.012382,0.009563
13,49,7,5,0,0,1,,2,S,0,S,20,0.75503,0.042062,0.031758
13,50,3,2,0,0,1,,1,S,0,S,15,0.756644,0.031014,0.023466
13,51,7,8,0,0,1,,1,S,0,S,22,0.037753,0.76212,0.028773
13,52,6,3,0,0,1,,3,S,0,S,16,0.795651,0.006941,0.005523
13,53,4,8,0,0,1,,4,S,0,S,18,0.010613,0.794132,0.008428
13,54,8,3,0,0,1,,5,S,0,S,14,0.77658,0.01565,0.012154
13,55,6,2,0,0,1,,4,S,0,S,14,0.78329,0.008545,0.006693
13,56,4,3,0,0,1,,1,S,0,S,16,0.751257,0.04142,0.031117
13,57,5,7,0,0,1,,2,S,0,S,19,0.035848,0.760781,0.027272
13,58,2,9,0,0,1,,7,L,0,S,14,0.001389,0.794979,0.001104
13,59,8,2,0,0,1,,6,S,0,S,13,0.780161,0.006515,0.005083
13,60,4,1,0,0,1,,3,S,0,S,15,0.798747,0,0
13,61,5,3,0,0,1,,2,S,0,S,16,0.777613,0.020172,0.015686
13,62,9,7,0,0,1,,2,S,0,S,24,0.77398,0.029993,0.023214
13,63,6,9,0,0,1,,3,S,0,S,17,0.011213,0.792469,0.008886
13,64,8,9,0,0,1,,1,S,0,S,28,0.029448,0.7782,0.022916
13,65,4,9,0,0,1,,5,S,0,S,16,0.012246,0.788019,0.00965
13,66,2,5,0,0,1,,3,S,0,S,15,0.030658,0.761482,0.023346
13,67,9,4,0,0,1,,5,S,0,S,18,0.79161,0.013702,0.010846
13,68,5,1,0,0,1,,4,S,0,S,14,0.76108,0.024578,0.018706
13,69,1,7,0,0,1,,6,S,0,S,13,0.022859,0.757996,0.017327
13,70,7,3,0,0,1,,4,S,0,S,15,0.763856,0.02708,0.020685
13,71,9,2,0,0,1,,7,L,0,S,13,0.756763,0.024362,0.018436
13,72,3,8,0,0,1,,5,S,0,S,16,0.011375,0.786549,0.008947
14,1,7,8,0,0,1,,1,S,0,S,19,0.04566,0.753526,0.034406
14,2,9,8,0,0,1,,1,S,0,S,17,0.772035,0.024609,0.018999
14,3,8,5,0,0,1,,3,S,0,S,15,0.766025,0.024727,0.018942
14,4,6,7,0,0,1,,1,S,0,S,24,0.031726,0.769171,0.024403
14,5,4,5,0,0,1,,1,S,0,S,22,0.024977,0.776886,0.019404
14,6,1,7,0,0,1,,6,S,0,S,14,0,0.796067,0
14,7,3,6,0,0,1,,3,S,0,S,18,0.012824,0.79109,0.010145
14,8,2,5,0,0,1,,3,S,0,S,16,0.032362,0.763283,0.024701
14,9,2,4,0,0,1,,2,S,0,S,16,0.014819,0.785955,0.011647
14,10,5,1,0,0,1,,4,S,0,S,15,0.77597,0.015911,0.012346
14,11,3,5,0,0,1,,2,S,0,S,20,0.028926,0.772448,0.022344
14,12,8,9,0,0,0,,1,S,0,S,18,0.761315,0.037657,0.028669
14,13,6,3,0,0,1,,3,S,0,S,15,0.750354,0.036143,0.02712
14,14,1,4,0,0,1,,3,S,0,S,14,0.017169,0.76956,0.013212
14,15,8,2,0,0,1,,6,S,0,S,14,0.771033,0.016605,0.012803
14,16,9,7,0,0,1,,2,S,0,S,16,0.754498,0.034199,0.025803
14,17,4,3,0,0,1,,1,S,0,S,18,0.782297,0.017041,0.013331
14,18,8,4,0,0,1,,4,S,0,S,16,0.799193,0.001885,0.001506
14,19,1,3,0,0,1,,2,S,0,S,16,0.024628,0.767513,0.018902
14,20,3,7,0,0,1,,4,S,0,S,17,0.010298,0.790181,0.008137
14,21,3,1,0,0,1,,2,S,0,S,16,0.7545,0.03548,0.02677
14,22,4,9,0,0,1,,5,S,0,S,16,0.01912,0.778497,0.014885
14,23,2,1,0,0,1,,1,S,0,S,20,0.779855,0.023838,0.01859
14,24,1,6,0,0,1,,5,S,0,S,14,0.007118,0.783337,0.005576
14,25,7,9,0,0,1,,2,S,0,S,18,0.043556,0.756267,0.03294
14,26,7,5,0,0,1,,2,S,0,S,19,0.773503,0.028694,0.022195
14,27,8,6,0,0,1,,2,S,0,S,16,0.777976,0.019082,0.014845
14,28,1,2,0,0,1,,1,S,0,S,16,0.00447,0.793177,0.003546
14,29,5,9,0,0,1,,4,S,0,S,17,0.043584,0.751962,0.032774
14,30,1,8,0,0,1,,7,L,0,S,13,0.02074,0.759255,0.015747
14,31,7,1,0,0,1,,6,S,0,S,15,0.796265,0.001559,0.001242
14,32,5,2,0,0,1,,3,S,0,S,17,0.788602,0.011782,0.009291
14,33,4,2,0,0,1,,2,S,0,S,19,0.771049,0.026985,0.020807
14,34,4,8,0,0,1,,4,S,0,S,16,0.035231,0.756206,0.026642
14,35,6,8,0,0,1,,2,S,0,S,20,0.031779,0.769395,0.02445
14,36,2,6,0,0,1,,4,S,0,S,15,0.03302,0.759575,0.025081
14,37,2,8,0,0,1,,6,S,0,S,14,0.032628,0.755146,0.024639
14,38,9,1,0,0,1,,8,L,0,S,13,0.764389,0.014652,0.0112
14,39,1,5,0,0,1,,4,S,0,S,14,0.026243,0.757346,0.019875
14,40,6,1,0,0,1,,5,S,0,S,15,0.795685,9.4E-05,7.5E-05
14,41,8,7,0,0,1,,1,S,0,S,17,0.781114,0.017078,0.01334
14,42,4,6,0,0,1,,2,S,0,S,18,0.042945,0.751054,0.032254
14,43,4,7,0,0,1,,3,S,0,S,17,0.031443,0.761389,0.02394
14,44,7,6,0,0,1,,1,S,0,S,24,0.777733,0.029065,0.022605
14,45,2,3,0,0,1,,1,S,0,S,23,0.022551,0.784875,0.0177
14,46,9,5,0,0,1,,4,S,0,S,15,0.778346,0.013754,0.010705
14,47,5,8,0,0,1,,3,S,0,S,18,0.034615,0.763816,0.026439
14,48,5,6,0,0,1,,1,S,0,S,25,0.024425,0.78168,0.019092
14,49,2,9,0,0,1,,7,L,0,S,14,0.02355,0.768479,0.018097
14,50,7,2,0,0,1,,5,S,0,S,16,0.772922,0.023488,0.018154
14,51,9,4,0,0,1,,5,S,0,S,15,0.76365,0.02536,0.019366
14,52,7,4,0,0,1,,3,S,0,S,20,0.752843,0.046339,0.034886
14,53,5,4,0,0,1,,1,S,0,S,24,0.764704,0.0372,0.028447
14,54,6,4,0,0,1,,2,S,0,S,20,0.77187,0.028963,0.022355
14,55,6,2,0,0,1,,4,S,0,S,16,0.774474,0.02021,0.015652
14,56,9,2,0,0,1,,7,L,0,S,14,0.778867,0.009258,0.007211
14,57,9,3,0,0,1,,6,S,0,S,14,0.792129,0,0
14,58,3,8,0,0,1,,5,S,0,S,16,0.018307,0.779721,0.014275
14,59,5,7,0,0,1,,2,S,0,S,20,0.026928,0.773695,0.020834
14,60,2,7,0,0,1,,5,S,0,S,15,0.013107,0.783128,0.010265
14,61,6,5,0,0,1,,1,S,0,S,19,0.783946,0.01817,0.014245
14,62,8,1,0,0,1,,7,L,0,S,13,0.758857,0.020098,0.015251
14,63,7,3,0,0,1,,4,S,0,S,16,0.799407,0.002793,0.002232
14,64,5,3,0,0,1,,2,S,0,S,16,0.771944,0.022881,0.017663
14,65,8,3,0,0,1,,5,S,0,S,14,0.78528,0.005806,0.004559
14,66,3,9,0,0,1,,6,S,0,S,16,0.004121,0.799333,0.003294
14,67,1,9,0,0,1,,8,L,0,S,13,0.014742,0.768687,0.011332
14,68,9,6,0,0,1,,3,S,0,S,16,0.794193,0.004888,0.003882
14,69,4,1,0,0,1,,3,S,0,S,16,0.769987,0.021991,0.016932
14,70,3,4,0,0,1,,1,S,0,S,19,0.01709,0.786518,0.013442
14,71,3,2,0,0,1,,1,S,0,S,20,0.768795,0.031246,0.024022
14,72,6,9,0,0,1,,3,S,0,S,19,0.023931,0.779833,0.018662
15,1,5,6,0,0,1,,1,S,0,S,21,0.048096,0.750666,0.036104
15,2,1,8,0,0,1,,7,L,0,S,13,0.029993,0.750344,0.022505
15,3,6,1,0,0,1,,5,S,0,S,14,0.802347,0,0
15,4,2,7,0,0,1,,5,S,0,S,13,0.020224,0.761525,0.015401
15,5,7,6,0,0,1,,1,S,0,S,15,0.753487,0.0363,0.027352
15,6,7,8,0,0,0,,1,S,0,S,19,0.789206,0.017628,0.013912
15,7,5,1,0,0,1,,4,S,0,S,14,0.75067,0.032942,0.024729
15,8,1,4,0,0,1,,3,S,0,S,15,0.024993,0.769994,0.019245
15,9,3,1,0,0,1,,2,S,0,S,15,0.791525,0.004472,0.00354
15,10,4,5,0,0,1,,1,S,0,S,20,0.011614,0.79048,0.009181
15,11,9,8,0,0,1,,1,S,0,S,16,0.754446,0.037627,0.028388
15,12,5,4,0,0,1,,1,S,0,S,27,0.784882,0.024989,0.019613
15,13,1,7,0,0,1,,6,S,0,S,13,0.018161,0.764981,0.013893
15,14,2,8,0,0,1,,6,S,0,S,14,0,0.800182,0
15,15,3,9,0,0,1,,6,S,0,S,15,0.000601,0.797607,0.000479
15,16,2,3,0,0,1,,1,S,0,S,16,0.023219,0.769794,0.017874
15,17,2,5,0,0,1,,3,S,0,S,14,0.025154,0.758087,0.019069
15,18,7,9,0,0,1,,2,S,0,S,22,0.04196,0.759519,0.031869
15,19,2,9,0,0,1,,7,L,0,S,13,0.006938,0.778463,0.005401
15,20,9,2,0,0,1,,7,L,0,S,14,0.782466,0.008811,0.006894
15,21,6,8,0,0,1,,2,S,0,S,20,0.015739,0.793021,0.012481
15,22,1,9,0,0,1,,8,L,0,S,13,0.005092,0.781607,0.00398
15,23,8,5,0,0,1,,3,S,0,S,17,0.776134,0.020714,0.016077
15,24,8,4,0,0,1,,4,S,0,S,15,0.775044,0.021269,0.016484
15,25,6,7,0,0,1,,1,S,0,S,18,0.016409,0.788366,0.012936
15,26,9,4,0,0,1,,5,S,0,S,14,0.773003,0.017343,0.013406
15,27,8,6,0,0,1,,2,S,0,S,16,0.790064,0.010241,0.008091
15,28,1,3,0,0,1,,2,S,0,S,16,0.018186,0.777058,0.014131
15,29,8,7,0,0,1,,1,S,0,S,25,0.786088,0.021728,0.01708
15,30,1,5,0,0,1,,4,S,0,S,14,0.02226,0.762658,0.016977
15,31,4,7,0,0,1,,3,S,0,S,16,0.015888,0.781842,0.012422
15,32,3,6,0,0,1,,3,S,0,S,20,0.036659,0.763054,0.027973
15,33,7,4,0,0,1,,3,S,0,S,15,0.786268,0.01292,0.010158
15,34,3,4,0,0,1,,1,S,0,S,26,0.027735,0.7802,0.021639
15,35,4,2,0,0,1,,2,S,0,S,19,0.755966,0.04182,0.031615
15,36,6,2,0,0,1,,4,S,0,S,16,0.752238,0.041399,0.031142
15,37,9,6,0,0,1,,3,S,0,S,15,0.79901,0,0
15,38,4,6,0,0,1,,2,S,0,S,28,0.02557,0.779517,0.019932
15,39,8,2,0,0,1,,6,S,0,S,15,0.789115,0.008964,0.007074
15,40,6,4,0,0,1,,2,S,0,S,17,0.772752,0.029022,0.022427
15,41,7,3,0,0,1,,4,S,0,S,15,0.79972,0,0
15,42,1,2,0,0,1,,1,S,0,S,16,0.006208,0.795924,0.004941
15,43,3,8,0,0,1,,5,S,0,S,16,0.015299,0.78413,0.011996
15,44,4,1,0,0,1,,3,S,0,S,14,0.762229,0.023027,0.017552
15,45,4,3,0,0,1,,1,S,0,S,19,0.777285,0.021822,0.016962
15,46,3,2,0,0,1,,1,S,0,S,23,0.752885,0.047316,0.035623
15,47,2,6,0,0,1,,4,S,0,S,15,0.01093,0.784565,0.008576
15,48,7,5,0,0,1,,2,S,0,S,17,0.79476,0.00648,0.00515
15,49,5,8,0,0,1,,3,S,0,S,16,0.025376,0.772321,0.019599
15,50,5,3,0,0,1,,2,S,0,S,20,0.756034,0.040822,0.030863
15,51,7,2,0,0,1,,5,S,0,S,15,0.799156,0.001527,0.00122
15,52,2,1,0,0,1,,1,S,0,S,19,0.759088,0.037629,0.028564
15,53,9,3,0,0,1,,6,S,0,S,14,0.781941,0.006628,0.005183
15,54,6,9,0,0,1,,3,S,0,S,16,0.035922,0.75793,0.027226
15,55,1,6,0,0,1,,5,S,0,S,15,0.007457,0.789792,0.005889
15,56,2,4,0,0,1,,2,S,0,S,15,0.029047,0.763995,0.022192
15,57,6,3,0,0,1,,3,S,0,S,16,0.758314,0.033711,0.025564
15,58,3,7,0,0,1,,4,S,0,S,15,0.025864,0.765809,0.019807
15,59,4,8,0,0,1,,4,S,0,S,17,0.012694,0.789683,0.010024
15,60,8,1,0,0,1,,7,L,0,S,13,0.785524,0.001544,0.001213
15,61,5,2,0,0,1,,3,S,0,S,21,0.760955,0.04085,0.031085
15,62,8,3,0,0,1,,5,S,0,S,15,0.790054,0.005528,0.004367
15,63,5,9,0,0,1,,4,S,0,S,15,0.006675,0.790777,0.005278
15,64,7,1,0,0,1,,6,S,0,S,13,0.79092,0,0
15,65,9,5,0,0,1,,4,S,0,S,15,0.758349,0.02785,0.02112
15,66,4,9,0,0,1,,5,S,0,S,15,0.020895,0.771054,0.016111
15,67,3,5,0,0,1,,2,S,0,S,18,0.016138,0.782788,0.012633
15,68,6,5,0,0,1,,1,S,0,S,23,0.768252,0.032957,0.02532
15,69,9,1,0,0,1,,8,L,0,S,12,0.752358,0.018525,0.013937
15,70,5,7,0,0,1,,2,S,0,S,15,0.033821,0.756554,0.025587
15,71,8,9,0,0,1,,1,S,0,S,21,0.018943,0.787036,0.014909
15,72,9,7,0,0,1,,2,S,0,S,18,0.794597,0.008926,0.007093
16,1,1,7,0,0,1,,6,S,0,S,12,0.012157,0.761671,0.009259
16,2,9,3,0,0,1,,6,S,0,S,16,0.768404,0.029348,0.022551
16,3,4,5,0,0,1,,1,S,0,S,19,0.03794,0.759276,0.028807
16,4,1,5,0,0,1,,4,S,0,S,13,0.013998,0.76957,0.010772
16,5,2,9,0,0,1,,7,L,0,S,14,0,0.79768,0
16,6,3,1,0,0,1,,2,S,0,S,15,0.776424,0.018661,0.014489
16,7,7,5,0,0,1,,2,S,0,S,20,0.771418,0.034966,0.026973
16,8,2,8,0,0,1,,6,S,0,S,14,0.020611,0.770872,0.015888
16,9,8,1,0,0,1,,7,L,0,S,13,0.789047,0.000512,0.000404
16,10,3,2,0,0,1,,1,S,0,S,15,0.782019,0.010861,0.008494
16,11,6,9,0,0,1,,3,S,0,S,17,0.029222,0.767073,0.022415
16,12,4,2,0,0,1,,2,S,0,S,15,0.788912,0.003827,0.00302
16,13,7,8,0,0,1,,1,S,0,S,23,0.036595,0.771641,0.028238
16,14,5,4,0,0,1,,1,S,0,S,17,0.760279,0.036058,0.027414
16,15,8,6,0,0,1,,2,S,0,S,17,0.796186,0.005266,0.004192
16,16,5,6,0,0,0,,1,S,0,S,23,0.767321,0.034302,0.02632
16,17,5,2,0,0,1,,3,S,0,S,14,0.801107,0,0
16,18,1,4,0,0,1,,3,S,0,S,14,0,0.800581,0
16,19,2,1,0,0,1,,1,S,0,S,19,0.794738,0.014073,0.011184
16,20,8,3,0,0,1,,5,S,0,S,15,0.799425,0,0
16,21,9,7,0,0,0,,2,S,0,S,17,0.034918,0.763037,0.026644
16,22,3,5,0,0,1,,2,S,0,S,18,0.037496,0.760702,0.028523
16,23,2,3,0,0,1,,1,S,0,S,16,0.031602,0.764739,0.024167
16,24,3,8,0,0,1,,5,S,0,S,16,0.039502,0.753119,0.02975
16,25,6,2,0,0,1,,4,S,0,S,14,0.776548,0.010937,0.008493
16,26,1,2,0,0,1,,1,S,0,S,18,0.008414,0.791911,0.006663
16,27,6,4,0,0,1,,2,S,0,S,19,0.754766,0.041572,0.031377
16,28,8,4,0,0,1,,4,S,0,S,15,0.777566,0.016564,0.012879
16,29,4,3,0,0,1,,1,S,0,S,22,0.75102,0.045868,0.034448
16,30,4,8,0,0,1,,4,S,0,S,17,0.02321,0.774397,0.017974
16,31,2,6,0,0,1,,4,S,0,S,14,0.033517,0.750676,0.025161
16,32,5,1,0,0,1,,4,S,0,S,14,0.799734,0,0
16,33,9,5,0,0,1,,4,S,0,S,19,0.783867,0.023067,0.018081
16,34,5,9,0,0,1,,4,S,0,S,19,0.022422,0.781543,0.017524
16,35,6,5,0,0,1,,1,S,0,S,27,0.78604,0.021238,0.016694
16,36,1,9,0,0,1,,8,L,0,S,13,0,0.805622,0
16,37,9,8,0,0,1,,1,S,0,S,29,0.791478,0.020587,0.016294
16,38,5,3,0,0,1,,2,S,0,S,16,0.754866,0.038487,0.029053
16,39,9,1,0,0,1,,8,L,0,S,13,0.752583,0.030181,0.022714
16,40,1,8,0,0,1,,7,L,0,S,13,0,0.789768,0
16,41,7,9,0,0,1,,2,S,0,S,18,0.033855,0.768677,0.026024
16,42,6,7,0,0,1,,1,S,0,S,16,0.022134,0.772454,0.017097
16,43,6,3,0,0,1,,3,S,0,S,18,0.780217,0.020709,0.016158
16,44,2,7,0,0,1,,5,S,0,S,13,0.020276,0.762648,0.015464
16,45,8,2,0,0,1,,6,S,0,S,13,0.788988,0,0
16,46,3,7,0,0,1,,4,S,0,S,15,0.006368,0.789831,0.00503
16,47,2,5,0,0,1,,3,S,0,S,15,0.011994,0.786868,0.009438
16,48,9,4,0,0,1,,5,S,0,S,17,0.776993,0.02437,0.018935
16,49,5,7,0,0,1,,2,S,0,S,17,0.027042,0.771149,0.020853
16,50,2,4,0,0,1,,2,S,0,S,16,0.007383,0.794951,0.005869
16,51,6,8,0,0,1,,2,S,0,S,20,0.01454,0.791591,0.01151
16,52,4,6,0,0,1,,2,S,0,S,18,0.020375,0.776297,0.015817
16,53,3,4,0,0,1,,1,S,0,S,22,0.028905,0.774256,0.02238
16,54,7,2,0,0,1,,5,S,0,S,14,0.800949,0,0
16,55,7,6,0,0,1,,1,S,0,S,26,0.759661,0.043752,0.033237
16,56,6,1,0,0,1,,5,S,0,S,14,0.774006,0.016178,0.012522
16,57,7,3,0,0,1,,4,S,0,S,17,0.796043,0.010607,0.008443
16,58,8,9,0,0,0,,1,S,0,S,20,0.794373,0.012145,0.009647
16,59,1,3,0,0,1,,2,S,0,S,14,0.004506,0.787597,0.003549
16,60,3,6,0,0,1,,3,S,0,S,17,0.031369,0.762697,0.023925
16,61,8,7,0,0,1,,1,S,0,S,28,0.7928,0.014979,0.011875
16,62,7,4,0,0,1,,3,S,0,S,18,0.796184,0.011665,0.009288
16,63,4,1,0,0,1,,3,S,0,S,15,0.78442,0.010724,0.008412
16,64,4,7,0,0,1,,3,S,0,S,15,0.017383,0.773412,0.013444
16,65,8,5,0,0,1,,3,S,0,S,16,0.790437,0.010443,0.008254
16,66,1,6,0,0,1,,5,S,0,S,13,0.006507,0.776442,0.005052
16,67,9,6,0,0,1,,3,S,0,S,22,0.786086,0.020491,0.016107
16,68,4,9,0,0,1,,5,S,0,S,16,0.009965,0.787337,0.007846
16,69,9,2,0,0,1,,7,L,0,S,13,0.754335,0.02564,0.019341
16,70,7,1,0,0,1,,6,S,0,S,14,0.799205,0.000271,0.000216
16,71,3,9,0,0,1,,6,S,0,S,15,0.032139,0.757459,0.024344
16,72,5,8,0,0,1,,3,S,0,S,27,0.051671,0.75058,0.038783
17,1,9,8,0,0,0,,1,S,0,S,34,0.036892,0.767616,0.028319
17,2,4,1,0,0,1,,3,S,0,S,14,0.802553,0,0
17,3,3,1,0,0,1,,2,S,0,S,14,0.785129,0.008228,0.00646
17,4,6,8,0,0,1,,2,S,0,S,18,0.04584,0.750159,0.034388
17,5,4,8,0,0,1,,4,S,0,S,17,0.026487,0.773587,0.02049
17,6,3,8,0,0,1,,5,S,0,S,16,0.030919,0.763828,0.023617
17,7,3,7,0,0,1,,4,S,0,S,18,0.010854,0.795994,0.00864
17,8,7,5,0,0,1,,2,S,0,S,16,0.786721,0.014528,0.01143
17,9,4,5,0,0,1,,1,S,0,S,22,0.026121,0.783812,0.020474
17,10,4,6,0,0,1,,2,S,0,S,19,0.039642,0.761956,0.030205
17,11,8,6,0,0,1,,2,S,0,S,22,0.770133,0.033974,0.026164
17,12,7,4,0,0,1,,3,S,0,S,15,0.76709,0.026389,0.020242
17,13,6,5,0,0,1,,1,S,0,S,24,0.787111,0.023302,0.018341
17,14,3,2,0,0,1,,1,S,0,S,22,0.785849,0.022896,0.017993
17,15,1,7,0,0,1,,6,S,0,S,14,0.023624,0.764432,0.018059
17,16,9,2,0,0,1,,7,L,0,S,16,0.794213,0.00902,0.007164
17,17,5,1,0,0,1,,4,S,0,S,14,0.801399,0,0
17,18,6,1,0,0,1,,5,S,0,S,13,0.763697,0.019771,0.015099
17,19,2,7,0,0,1,,5,S,0,S,16,0.012474,0.788331,0.009833
17,20,2,8,0,0,1,,6,S,0,S,15,0.017474,0.776459,0.013568
17,21,5,9,0,0,1,,4,S,0,S,15,0.021265,0.772316,0.016424
17,22,6,9,0,0,1,,3,S,0,S,16,0.007591,0.793924,0.006027
17,23,1,6,0,0,1,,5,S,0,S,14,0.025882,0.76076,0.01969
17,24,6,3,0,0,1,,3,S,0,S,18,0.768726,0.030464,0.023418
17,25,9,7,0,0,1,,2,S,0,S,20,0.795759,0.013199,0.010503
17,26,6,4,0,0,1,,2,S,0,S,19,0.753524,0.046526,0.035059
17,27,4,9,0,0,1,,5,S,0,S,15,0.018429,0.777419,0.014327
17,28,7,3,0,0,1,,4,S,0,S,15,0.782175,0.012233,0.009569
17,29,5,3,0,0,1,,2,S,0,S,20,0.7681,0.032714,0.025128
17,30,5,6,0,0,1,,1,S,0,S,20,0.012463,0.795558,0.009915
17,31,8,1,0,0,1,,7,L,0,S,13,0.777703,0.008737,0.006795
17,32,1,4,0,0,1,,3,S,0,S,15,0.022668,0.771133,0.01748
17,33,5,8,0,0,1,,3,S,0,S,17,0.031502,0.76567,0.02412
17,34,2,6,0,0,1,,4,S,0,S,16,0.016176,0.782874,0.012664
17,35,3,6,0,0,1,,3,S,0,S,18,0.017316,0.787123,0.01363
17,36,3,9,0,0,1,,6,S,0,S,15,0.001697,0.797686,0.001354
17,37,1,8,0,0,1,,7,L,0,S,14,0.004716,0.787308,0.003713
17,38,8,3,0,0,1,,5,S,0,S,17,0.782416,0.017501,0.013693
17,39,2,9,0,0,1,,7,L,0,S,14,0.007216,0.785047,0.005665
17,40,2,5,0,0,1,,3,S,0,S,16,0.039393,0.755248,0.029751
17,41,8,4,0,0,1,,4,S,0,S,18,0.794393,0.012202,0.009693
17,42,9,3,0,0,1,,6,S,0,S,16,0.769685,0.025675,0.019762
17,43,7,2,0,0,1,,5,S,0,S,15,0.80008,0.00076,0.000608
17,44,8,7,0,0,1,,1,S,0,S,23,0.789531,0.019449,0.015356
17,45,8,5,0,0,1,,3,S,0,S,19,0.762181,0.039767,0.030309
17,46,4,2,0,0,1,,2,S,0,S,19,0.780524,0.026015,0.020305
17,47,6,2,0,0,1,,4,S,0,S,17,0.760399,0.038125,0.02899
17,48,1,9,0,0,1,,8,L,0,S,13,0.008697,0.775912,0.006748
17,49,2,3,0,0,1,,1,S,0,S,19,0.021992,0.779759,0.017148
17,50,7,6,0,0,1,,1,S,0,S,16,0.750599,0.041271,0.030978
17,51,7,8,0,0,0,,1,S,0,S,18,0.759352,0.037481,0.028462
17,52,4,3,0,0,1,,1,S,0,S,20,0.761604,0.039176,0.029837
17,53,1,3,0,0,1,,2,S,0,S,16,0.007994,0.790386,0.006318
17,54,4,7,0,0,1,,3,S,0,S,19,0.029481,0.775536,0.022863
17,55,9,6,0,0,1,,3,S,0,S,19,0.759051,0.040919,0.03106
17,56,5,4,0,0,1,,1,S,0,S,24,0.794749,0.016022,0.012734
17,57,9,5,0,0,1,,4,S,0,S,18,0.785149,0.020538,0.016126
17,58,8,9,0,0,1,,1,S,0,S,16,0.040113,0.751789,0.030157
17,59,2,4,0,0,1,,2,S,0,S,17,0.044505,0.750926,0.03342
17,60,3,5,0,0,1,,2,S,0,S,19,0.029626,0.775326,0.02297
17,61,3,4,0,0,1,,1,S,0,S,22,0.047867,0.754499,0.036115
17,62,1,2,0,0,1,,1,S,0,S,16,0.017982,0.781001,0.014044
17,63,8,2,0,0,1,,6,S,0,S,16,0.762805,0.033412,0.025487
17,64,9,1,0,0,1,,8,L,0,S,13,0.788635,0.000723,0.00057
17,65,1,5,0,0,1,,4,S,0,S,15,0.002327,0.797923,0.001856
17,66,7,1,0,0,1,,6,S,0,S,12,0.754442,0.019185,0.014474
17,67,5,2,0,0,1,,3,S,0,S,19,0.78409,0.021903,0.017174
17,68,5,7,0,0,1,,2,S,0,S,19,0.038117,0.763081,0.029087
17,69,2,1,0,0,1,,1,S,0,S,15,0.793976,0.00441,0.003501
17,70,9,4,0,0,1,,5,S,0,S,17,0.791909,0.012891,0.010209
17,71,7,9,0,0,1,,2,S,0,S,22,0.029416,0.773975,0.022767
17,72,6,7,0,0,1,,1,S,0,S,23,0.022563,0.786347,0.017743
18,1,1,8,0,0,1,,7,L,0,S,13,0.018613,0.763271,0.014207
18,2,2,4,0,0,1,,2,S,0,S,19,0.039605,0.760189,0.030108
18,3,9,7,0,0,1,,2,S,0,S,18,0.784695,0.020924,0.016419
18,4,7,9,0,0,1,,2,S,0,S,16,0.015894,0.784219,0.012464
18,5,7,5,0,0,1,,2,S,0,S,22,0.773598,0.03045,0.023556
18,6,4,2,0,0,1,,2,S,0,S,16,0.776982,0.018218,0.014155
18,7,5,3,0,0,1,,2,S,0,S,20,0.772245,0.026716,0.020631
18,8,4,1,0,0,1,,3,S,0,S,14,0.795006,0,0
18,9,9,5,0,0,1,,4,S,0,S,17,0.787502,0.014295,0.011257
18,10,6,5,0,0,1,,1,S,0,S,22,0.763336,0.036006,0.027485
18,11,8,3,0,0,1,,5,S,0,S,16,0.795617,0.004997,0.003976
18,12,6,3,0,0,1,,3,S,0,S,18,0.797215,0.005827,0.004645
18,13,3,8,0,0,1,,5,S,0,S,15,0.029693,0.758972,0.022536
18,14,6,8,0,0,1,,2,S,0,S,17,0.022982,0.77297,0.017764
18,15,6,9,0,0,1,,3,S,0,S,16,0.018544,0.77789,0.014425
18,16,4,3,0,0,1,,1,S,0,S,20,0.75779,0.040639,0.030796
18,17,3,9,0,0,1,,6,S,0,S,15,0.004533,0.793283,0.003596
18,18,6,2,0,0,1,,4,S,0,S,15,0.772107,0.017938,0.01385
18,19,6,4,0,0,1,,2,S,0,S,18,0.756134,0.040816,0.030862
18,20,8,9,0,0,1,,1,S,0,S,18,0.026896,0.774,0.020817
18,21,4,6,0,0,1,,2,S,0,S,20,0.030272,0.771119,0.023343
18,22,1,4,0,0,1,,3,S,0,S,15,0.023172,0.77232,0.017896
18,23,3,2,0,0,1,,1,S,0,S,16,0.752643,0.036672,0.027601
18,24,2,7,0,0,1,,5,S,0,S,16,0.030664,0.765308,0.023467
18,25,8,1,0,0,1,,7,L,0,S,13,0.793482,0,0
18,26,5,8,0,0,1,,3,S,0,S,16,0.014771,0.779617,0.011515
18,27,1,3,0,0,1,,2,S,0,S,16,0.006665,0.794168,0.005293
18,28,7,8,0,0,1,,1,S,0,S,17,0.019819,0.780046,0.01546
18,29,3,5,0,0,1,,2,S,0,S,19,0.043742,0.751991,0.032893
18,30,9,1,0,0,1,,8,L,0,S,13,0.800729,0,0
18,31,5,9,0,0,1,,4,S,0,S,15,0.021309,0.769539,0.016398
18,32,7,1,0,0,1,,6,S,0,S,13,0.767989,0.016473,0.012651
18,33,3,4,0,0,1,,1,S,0,S,27,0.016493,0.793513,0.013087
18,34,2,3,0,0,1,,1,S,0,S,22,0.019691,0.784652,0.01545
18,35,7,2,0,0,1,,5,S,0,S,15,0.777957,0.015653,0.012177
18,36,5,1,0,0,1,,4,S,0,S,14,0.793161,0,0
18,37,9,8,0,0,0,,1,S,0,S,23,0.023104,0.782456,0.018078
18,38,2,1,0,0,1,,1,S,0,S,14,0.757602,0.02794,0.021168
18,39,3,7,0,0,1,,4,S,0,S,18,0.009347,0.797358,0.007453
18,40,5,6,0,0,1,,1,S,0,S,21,0.018611,0.783501,0.014582
18,41,2,9,0,0,1,,7,L,0,S,14,0.018677,0.769965,0.014381
18,42,9,2,0,0,1,,7,L,0,S,14,0.782774,0.008162,0.006389
18,43,8,5,0,0,1,,3,S,0,S,17,0.758789,0.036093,0.027387
18,44,1,9,0,0,1,,8,L,0,S,13,0.005704,0.782044,0.004461
18,45,2,6,0,0,1,,4,S,0,S,17,0.022621,0.775113,0.017534
18,46,4,8,0,0,1,,4,S,0,S,16,0.007597,0.791592,0.006014
18,47,6,7,0,0,1,,1,S,0,S,24,0.039155,0.764057,0.029917
18,48,8,2,0,0,1,,6,S,0,S,14,0.771581,0.016017,0.012358
18,49,8,7,0,0,1,,1,S,0,S,19,0.789611,0.01741,0.013747
18,50,1,2,0,0,1,,1,S,0,S,19,0.043995,0.751468,0.033061
18,51,2,8,0,0,1,,6,S,0,S,15,0.003393,0.792697,0.00269
18,52,1,7,0,0,1,,6,S,0,S,14,0.016456,0.776368,0.012776
18,53,9,3,0,0,1,,6,S,0,S,15,0.763555,0.027966,0.021354
18,54,8,6,0,0,1,,2,S,0,S,18,0.787125,0.015553,0.012242
18,55,4,7,0,0,1,,3,S,0,S,18,0.041758,0.757219,0.03162
18,56,9,6,0,0,1,,3,S,0,S,17,0.771391,0.027202,0.020984
18,57,5,4,0,0,1,,1,S,0,S,23,0.791753,0.015206,0.01204
18,58,7,4,0,0,1,,3,S,0,S,18,0.763869,0.037212,0.028425
18,59,7,6,0,0,1,,1,S,0,S,24,0.759144,0.042892,0.032561
18,60,8,4,0,0,1,,4,S,0,S,16,0.77681,0.022089,0.017159
18,61,9,4,0,0,1,,5,S,0,S,16,0.796874,0.007045,0.005614
18,62,5,2,0,0,1,,3,S,0,S,16,0.776975,0.015998,0.01243
18,63,3,6,0,0,1,,3,S,0,S,19,0.017898,0.784859,0.014048
18,64,1,6,0,0,1,,5,S,0,S,14,0.029694,0.756149,0.022453
18,65,4,9,0,0,1,,5,S,0,S,15,0.015481,0.779815,0.012072
18,66,3,1,0,0,1,,2,S,0,S,14,0.783809,0.008018,0.006284
18,67,4,5,0,0,1,,1,S,0,S,21,0.034588,0.766325,0.026505
18,68,7,3,0,0,1,,4,S,0,S,17,0.756993,0.038426,0.029088
18,69,5,7,0,0,1,,2,S,0,S,19,0.02098,0.782,0.016407
18,70,2,5,0,0,1,,3,S,0,S,17,0.036901,0.75668,0.027922
18,71,1,5,0,0,1,,4,S,0,S,15,0,0.799627,0
18,72,6,1,0,0,1,,5,S,0,S,13,0.763391,0.017927,0.013685
19,1,1,9,0,0,1,,8,L,0,S,13,0,0.789067,0
19,2,2,8,0,0,1,,6,S,0,S,15,0.023069,0.76958,0.017753
19,3,7,2,0,0,1,,5,S,0,S,15,0.783945,0.012215,0.009576
19,4,7,1,0,0,1,,6,S,0,S,15,0.79823,0.000791,0.000632
19,5,1,4,0,0,1,,3,S,0,S,15,0.015109,0.779888,0.011783
19,6,4,8,0,0,1,,4,S,0,S,15,0.039735,0.750467,0.02982
19,7,3,6,0,0,1,,3,S,0,S,17,0.005377,0.798726,0.004295
19,8,6,3,0,0,1,,3,S,0,S,16,0.794506,0.006298,0.005004
19,9,6,2,0,0,1,,4,S,0,S,15,0.774042,0.018829,0.014574
19,10,2,1,0,0,1,,1,S,0,S,19,0.763292,0.033825,0.025819
19,11,2,7,0,0,1,,5,S,0,S,15,0.004024,0.792663,0.00319
19,12,5,8,0,0,1,,3,S,0,S,24,0.044076,0.758507,0.033432
19,13,7,5,0,0,1,,2,S,0,S,20,0.78642,0.021535,0.016936
19,14,3,9,0,0,1,,6,S,0,S,14,0.005435,0.786116,0.004272
19,15,9,8,0,0,1,,1,S,0,S,19,0.795487,0.012576,0.010004
19,16,8,9,0,0,1,,1,S,0,S,18,0.039853,0.756961,0.030167
19,17,3,5,0,0,1,,2,S,0,S,18,0.032454,0.766355,0.024872
19,18,2,3,0,0,1,,1,S,0,S,32,0.019473,0.786991,0.015325
19,19,7,8,0,0,1,,1,S,0,S,23,0.031257,0.775539,0.024241
19,20,5,1,0,0,1,,4,S,0,S,15,0.799269,0,0
19,21,9,4,0,0,1,,5,S,0,S,17,0.795985,0.008444,0.006722
19,22,1,2,0,0,1,,1,S,0,S,21,0.023039,0.780593,0.017984
19,23,2,9,0,0,1,,7,L,0,S,13,0.020319,0.760781,0.015458
19,24,8,5,0,0,1,,3,S,0,S,16,0.79478,0.007487,0.00595
19,25,8,2,0,0,1,,6,S,0,S,14,0.797613,0,0
19,26,3,8,0,0,1,,5,S,0,S,16,0.031494,0.761792,0.023992
19,27,4,2,0,0,1,,2,S,0,S,19,0.785505,0.018549,0.01457
19,28,2,6,0,0,1,,4,S,0,S,15,0.029692,0.762039,0.022627
19,29,7,3,0,0,1,,4,S,0,S,15,0.756186,0.03444,0.026043
19,30,5,3,0,0,1,,2,S,0,S,15,0.758344,0.031794,0.024111
19,31,9,5,0,0,1,,4,S,0,S,16,0.757541,0.038067,0.028837
19,32,1,8,0,0,1,,7,L,0,S,14,0.021767,0.767428,0.016705
19,33,9,1,0,0,1,,8,L,0,S,14,0.792466,0.001591,0.001261
19,34,9,2,0,0,1,,7,L,0,S,14,0.782136,0.009812,0.007674
19,35,9,7,0,0,1,,2,S,0,S,21,0.756024,0.044481,0.033629
19,36,8,6,0,0,1,,2,S,0,S,17,0.78762,0.015479,0.012191
19,37,9,6,0,0,1,,3,S,0,S,18,0.776749,0.02714,0.021081
19,38,7,9,0,0,1,,2,S,0,S,15,0.025245,0.768564,0.019402
19,39,8,7,0,0,1,,1,S,0,S,19,0.791602,0.013075,0.01035
19,40,6,7,0,0,1,,1,S,0,S,19,0.019213,0.784263,0.015068
19,41,4,7,0,0,1,,3,S,0,S,15,0.017409,0.777749,0.01354
19,42,9,3,0,0,1,,6,S,0,S,14,0.763101,0.025067,0.019129
19,43,3,2,0,0,1,,1,S,0,S,18,0.794317,0.007787,0.006185
19,44,7,6,0,0,0,,1,S,0,S,27,0.022643,0.78834,0.01785
19,45,4,6,0,0,1,,2,S,0,S,16,0.011134,0.791843,0.008816
19,46,2,4,0,0,1,,2,S,0,S,16,0.029544,0.763859,0.022567
19,47,5,4,0,0,1,,1,S,0,S,20,0.778509,0.025163,0.01959
19,48,1,3,0,0,1,,2,S,0,S,18,0.039092,0.75768,0.029619
19,49,3,4,0,0,1,,1,S,0,S,18,0.02686,0.771404,0.02072
19,50,5,6,0,0,1,,1,S,0,S,36,0.031052,0.776972,0.024127
19,51,6,9,0,0,1,,3,S,0,S,15,0.020369,0.773427,0.015754
19,52,2,5,0,0,1,,3,S,0,S,16,0.03222,0.762394,0.024564
19,53,8,3,0,0,1,,5,S,0,S,14,0.781257,0.009927,0.007755
19,54,6,5,0,0,1,,1,S,0,S,21,0.789998,0.018127,0.014321
19,55,1,7,0,0,1,,6,S,0,S,14,0.007721,0.784322,0.006056
19,56,7,4,0,0,1,,3,S,0,S,20,0.762124,0.0393,0.029951
19,57,1,6,0,0,1,,5,S,0,S,14,0.026453,0.762292,0.020165
19,58,6,8,0,0,1,,2,S,0,S,22,0.014662,0.7941,0.011643
19,59,5,7,0,0,1,,2,S,0,S,20,0.0169,0.788476,0.013325
19,60,3,1,0,0,1,,2,S,0,S,17,0.779296,0.017818,0.013885
19,61,6,4,0,0,1,,2,S,0,S,21,0.759605,0.040765,0.030965
19,62,4,5,0,0,1,,1,S,0,S,17,0.021786,0.780941,0.017014
19,63,8,1,0,0,1,,7,L,0,S,13,0.753564,0.02514,0.018944
19,64,5,9,0,0,1,,4,S,0,S,15,0.029648,0.761652,0.022581
19,65,4,9,0,0,1,,5,S,0,S,13,0.028225,0.752508,0.02124
19,66,8,4,0,0,1,,4,S,0,S,16,0.786084,0.012855,0.010105
19,67,5,2,0,0,1,,3,S,0,S,15,0.785323,0.010207,0.008016
19,68,3,7,0,0,1,,4,S,0,S,16,0.004436,0.794883,0.003526
19,69,6,1,0,0,1,,5,S,0,S,15,0.78918,0.006785,0.005354
19,70,1,5,0,0,1,,4,S,0,S,15,0.016546,0.779891,0.012904
19,71,4,1,0,0,1,,3,S,0,S,18,0.784792,0.017591,0.013805
19,72,4,3,0,0,1,,1,S,0,S,22,0.787851,0.019506,0.015368
20,1,2,7,0,0,1,,5,S,0,S,14,0.012845,0.777466,0.009986
20,2,4,5,0,0,1,,1,S,0,S,18,0.032154,0.763266,0.024542
20,3,1,9,0,0,1,,8,L,0,S,13,0.023589,0.757353,0.017865
20,4,2,9,0,0,1,,7,L,0,S,14,0.030898,0.753301,0.023275
20,5,8,2,0,0,1,,6,S,0,S,15,0.778206,0.01364,0.010615
20,6,7,1,0,0,1,,6,S,0,S,14,0.776899,0.012574,0.009769
20,7,3,6,0,0,1,,3,S,0,S,17,0.046614,0.751143,0.035014
20,8,6,1,0,0,1,,5,S,0,S,15,0.800411,0,0
20,9,9,3,0,0,1,,6,S,0,S,14,0.78406,0.010895,0.008543
20,10,7,8,0,0,1,,1,S,0,S,17,0.006539,0.7961,0.005205
20,11,8,7,0,0,0,,1,S,0,S,18,0.012385,0.791429,0.009802
20,12,1,8,0,0,1,,7,L,0,S,13,0.0064,0.780461,0.004995
20,13,1,6,0,0,1,,5,S,0,S,14,0.013733,0.780458,0.010718
20,14,3,5,0,0,1,,2,S,0,S,20,0.033596,0.767905,0.025798
20,15,7,5,0,0,1,,2,S,0,S,19,0.751097,0.044046,0.033083
20,16,5,7,0,0,1,,2,S,0,S,17,0.006118,0.798151,0.004883
20,17,4,7,0,0,1,,3,S,0,S,15,0.000753,0.79644,0.0006
20,18,6,7,0,0,1,,1,S,0,S,16,0.020626,0.774117,0.015967
20,19,2,3,0,0,1,,1,S,0,S,20,0.047072,0.752844,0.035438
20,20,2,4,0,0,1,,2,S,0,S,21,0.01326,0.794258,0.010532
20,21,5,8,0,0,1,,3,S,0,S,16,0.02699,0.768758,0.020749
20,22,5,6,0,0,1,,1,S,0,S,26,0.025242,0.785205,0.01982
20,23,6,8,0,0,1,,2,S,0,S,16,0.008142,0.78988,0.006431
20,24,8,5,0,0,1,,3,S,0,S,18,0.756767,0.038766,0.029337
20,25,8,6,0,0,1,,2,S,0,S,21,0.759881,0.043181,0.032812
20,26,6,4,0,0,1,,2,S,0,S,17,0.761486,0.033329,0.025379
20,27,4,1,0,0,1,,3,S,0,S,16,0.783019,0.013332,0.010439
20,28,9,1,0,0,1,,8,L,0,S,13,0.788207,0.000596,0.00047
20,29,1,5,0,0,1,,4,S,0,S,15,0.001217,0.797197,0.00097
20,30,4,2,0,0,1,,2,S,0,S,19,0.778699,0.019279,0.015012
20,31,5,9,0,0,1,,4,S,0,S,18,0.018408,0.784053,0.014433
20,32,2,8,0,0,1,,6,S,0,S,14,0.006405,0.785672,0.005032
20,33,4,6,0,0,1,,2,S,0,S,17,0.007027,0.797656,0.005605
20,34,3,4,0,0,0,,1,S,0,S,19,0.753827,0.045572,0.034353
20,35,8,3,0,0,1,,5,S,0,S,16,0.796326,0.006758,0.005381
20,36,1,3,0,0,1,,2,S,0,S,16,0.021039,0.779129,0.016392
20,37,3,9,0,0,1,,6,S,0,S,16,0.00858,0.792624,0.0068
20,38,6,2,0,0,1,,4,S,0,S,16,0.769649,0.021361,0.01644
20,39,8,1,0,0,1,,7,L,0,S,14,0.787988,0.004433,0.003494
20,40,1,7,0,0,1,,6,S,0,S,13,0.011012,0.774542,0.008529
20,41,3,7,0,0,1,,4,S,0,S,15,0.017759,0.777876,0.013814
20,42,6,3,0,0,1,,3,S,0,S,17,0.765564,0.0315,0.024115
20,43,7,2,0,0,1,,5,S,0,S,15,0.761939,0.025794,0.019654
20,44,5,1,0,0,1,,4,S,0,S,14,0.770829,0.018185,0.014018
20,45,5,4,0,0,1,,1,S,0,S,16,0.756599,0.037293,0.028216
20,46,7,9,0,0,1,,2,S,0,S,19,0.009333,0.79553,0.007425
20,47,9,2,0,0,1,,7,L,0,S,14,0.799726,0,0
20,48,3,2,0,0,1,,1,S,0,S,17,0.762325,0.032273,0.024602
20,49,8,4,0,0,1,,4,S,0,S,16,0.792859,0.008215,0.006513
20,50,9,5,0,0,1,,4,S,0,S,15,0.770152,0.022777,0.017542
20,51,4,8,0,0,1,,4,S,0,S,14,0.028612,0.755298,0.021611
20,52,5,3,0,0,1,,2,S,0,S,16,0.760287,0.03575,0.02718
20,53,7,6,0,0,1,,1,S,0,S,26,0.788956,0.021028,0.01659
20,54,9,6,0,0,1,,3,S,0,S,16,0.789373,0.014084,0.011117
20,55,5,2,0,0,1,,3,S,0,S,15,0.751708,0.034701,0.026085
20,56,6,9,0,0,1,,3,S,0,S,17,0.023076,0.773062,0.017839
20,57,9,8,0,0,1,,1,S,0,S,23,0.780723,0.025852,0.020183
20,58,9,4,0,0,1,,5,S,0,S,14,0.781243,0.011889,0.009289
20,59,1,4,0,0,1,,3,S,0,S,16,0.022489,0.77562,0.017443
20,60,8,9,0,0,1,,1,S,0,S,20,0.015644,0.789286,0.012348
20,61,9,7,0,0,1,,2,S,0,S,21,0.790357,0.017367,0.013726
20,62,2,5,0,0,1,,3,S,0,S,17,0.004685,0.797579,0.003737
20,63,1,2,0,0,1,,1,S,0,S,18,0.011219,0.790267,0.008866
20,64,4,9,0,0,1,,5,S,0,S,15,0.023091,0.767031,0.017712
20,65,2,6,0,0,1,,4,S,0,S,15,0.03639,0.755152,0.02748
20,66,7,4,0,0,1,,3,S,0,S,16,0.771557,0.024536,0.018931
20,67,7,3,0,0,1,,4,S,0,S,16,0.775175,0.023015,0.017841
20,68,3,8,0,0,1,,5,S,0,S,15,0.008503,0.78956,0.006714
20,69,6,5,0,0,1,,1,S,0,S,25,0.75473,0.042808,0.032308
20,70,2,1,0,0,1,,1,S,0,S,17,0.776228,0.021926,0.01702
20,71,4,3,0,0,1,,1,S,0,S,24,0.773373,0.031407,0.02429
20,72,3,1,0,0,1,,2,S,0,S,15,0.77186,0.021845,0.016861
21,1,3,6,0,0,1,,3,S,0,S,18,0.037438,0.759963,0.028451
21,2,2,1,0,0,1,,1,S,0,S,25,0.793494,0.016385,0.013001
21,3,6,8,0,0,1,,2,S,0,S,18,0.02085,0.780757,0.016279
21,4,7,1,0,0,1,,6,S,0,S,13,0.750319,0.027681,0.020769
21,5,3,5,0,0,1,,2,S,0,S,17,0.008298,0.796186,0.006606
21,6,6,7,0,0,1,,1,S,0,S,26,0.044009,0.757764,0.033349
21,7,9,2,0,0,1,,7,L,0,S,15,0.791398,0.006074,0.004807
21,8,3,8,0,0,1,,5,S,0,S,15,0.01315,0.781214,0.010273
21,9,4,3,0,0,1,,1,S,0,S,17,0.788052,0.014233,0.011216
21,10,9,3,0,0,1,,6,S,0,S,14,0.792609,0.00208,0.001649
21,11,7,4,0,0,1,,3,S,0,S,15,0.799924,0.000458,0.000366
21,12,4,5,0,0,1,,1,S,0,S,17,0.02305,0.778693,0.017949
21,13,8,3,0,0,1,,5,S,0,S,14,0.75556,0.031518,0.023813
21,14,3,7,0,0,1,,4,S,0,S,16,0.029888,0.763818,0.022829
21,15,5,6,0,0,0,,1,S,0,S,26,0.758804,0.044252,0.033579
21,16,2,3,0,0,0,,1,S,0,S,26,0.755667,0.048711,0.036809
21,17,9,7,0,0,1,,2,S,0,S,18,0.76708,0.032121,0.024639
21,18,4,2,0,0,1,,2,S,0,S,22,0.789079,0.017613,0.013898
21,19,5,4,0,0,1,,1,S,0,S,18,0.765645,0.034787,0.026634
21,20,5,8,0,0,1,,3,S,0,S,16,0.031925,0.762245,0.024334
21,21,8,4,0,0,1,,4,S,0,S,16,0.769283,0.028685,0.022067
21,22,6,4,0,0,1,,2,S,0,S,16,0.752781,0.040488,0.030479
21,23,8,6,0,0,1,,2,S,0,S,18,0.761988,0.037849,0.028841
21,24,7,3,0,0,1,,4,S,0,S,13,0.751216,0.028362,0.021306
21,25,4,8,0,0,1,,4,S,0,S,15,0.020894,0.772303,0.016136
21,26,2,9,0,0,1,,7,L,0,S,13,0.027185,0.754378,0.020508
21,27,8,2,0,0,1,,6,S,0,S,16,0.785467,0.014502,0.011391
21,28,3,4,0,0,1,,1,S,0,S,26,0.045893,0.755959,0.034693
21,29,8,7,0,0,1,,1,S,0,S,28,0.775276,0.031457,0.024388
21,30,1,8,0,0,1,,7,L,0,S,12,0.018836,0.753106,0.014186
21,31,5,1,0,0,1,,4,S,0,S,15,0.759049,0.030597,0.023224
21,32,3,2,0,0,1,,1,S,0,S,25,0.794789,0.012889,0.010244
21,33,6,3,0,0,1,,3,S,0,S,15,0.797354,0.001949,0.001554
21,34,7,5,0,0,1,,2,S,0,S,17,0.796992,0.008175,0.006516
21,35,6,2,0,0,1,,4,S,0,S,16,0.770893,0.024847,0.019154
21,36,9,8,0,0,0,,1,S,0,S,35,0.031468,0.773626,0.024344
21,37,1,4,0,0,1,,3,S,0,S,14,0.006536,0.786163,0.005139
21,38,6,1,0,0,1,,5,S,0,S,15,0.796893,0.000891,0.00071
21,39,1,2,0,0,1,,1,S,0,S,14,0.015214,0.773133,0.011762
21,40,2,6,0,0,1,,4,S,0,S,15,0.03941,0.752394,0.029652
21,41,9,6,0,0,1,,3,S,0,S,16,0.771037,0.0257,0.019816
21,42,4,9,0,0,1,,5,S,0,S,15,0.002379,0.795488,0.001892
21,43,8,9,0,0,1,,1,S,0,S,17,0.025531,0.773539,0.019749
21,44,7,2,0,0,1,,5,S,0,S,14,0.757083,0.02847,0.021554
21,45,8,1,0,0,1,,7,L,0,S,14,0.7552,0.030356,0.022925
21,46,9,5,0,0,1,,4,S,0,S,17,0.757208,0.040002,0.03029
21,47,9,1,0,0,1,,8,L,0,S,14,0.791699,0.001432,0.001133
21,48,9,4,0,0,1,,5,S,0,S,15,0.781583,0.015111,0.01181
21,49,2,4,0,0,1,,2,S,0,S,17,0.02637,0.776649,0.020481
21,50,6,9,0,0,1,,3,S,0,S,17,0.014677,0.785865,0.011534
21,51,7,8,0,0,0,,1,S,0,S,22,0.789534,0.016825,0.013284
21,52,1,6,0,0,1,,5,S,0,S,13,0.019963,0.761397,0.0152
21,53,3,1,0,0,1,,2,S,0,S,17,0.767012,0.028362,0.021754
21,54,5,3,0,0,1,,2,S,0,S,15,0.758705,0.032364,0.024555
21,55,4,1,0,0,1,,3,S,0,S,17,0.78996,0.011173,0.008826
21,56,5,9,0,0,1,,4,S,0,S,16,0.004941,0.796011,0.003933
21,57,6,5,0,0,1,,1,S,0,S,25,0.788612,0.021025,0.016581
21,58,1,7,0,0,1,,6,S,0,S,13,0.001302,0.785466,0.001023
21,59,5,7,0,0,1,,2,S,0,S,19,0.024709,0.778363,0.019232
21,60,2,5,0,0,1,,3,S,0,S,15,0.007552,0.794558,0.006
21,61,2,8,0,0,1,,6,S,0,S,14,0.003059,0.793093,0.002426
21,62,8,5,0,0,1,,3,S,0,S,22,0.769104,0.037017,0.02847
21,63,5,2,0,0,1,,3,S,0,S,18,0.797017,0.008308,0.006622
21,64,4,7,0,0,1,,3,S,0,S,17,0.006609,0.797227,0.005269
21,65,1,3,0,0,1,,2,S,0,S,15,0.023613,0.767898,0.018133
21,66,1,5,0,0,1,,4,S,0,S,13,0.004968,0.782511,0.003888
21,67,7,9,0,0,1,,2,S,0,S,26,0.043341,0.756996,0.032809
21,68,7,6,0,0,1,,1,S,0,S,16,0.797765,0.004342,0.003464
21,69,4,6,0,0,1,,2,S,0,S,19,0.028191,0.774408,0.021832
21,70,3,9,0,0,1,,6,S,0,S,14,0.031684,0.75157,0.023813
21,71,2,7,0,0,1,,5,S,0,S,14,0.036107,0.750633,0.027103
21,72,1,9,0,0,1,,8,L,0,S,12,0.011749,0.762163,0.008954
22,1,3,4,0,0,1,,1,S,0,S,20,0.023192,0.780688,0.018106
22,2,6,2,0,0,1,,4,S,0,S,16,0.797555,0.006769,0.005399
22,3,4,6,0,0,1,,2,S,0,S,16,0.028651,0.764267,0.021897
22,4,1,8,0,0,1,,7,L,0,S,14,0.014938,0.772685,0.011542
22,5,8,5,0,0,1,,3,S,0,S,16,0.799055,0.003114,0.002488
22,6,5,6,0,0,1,,1,S,0,S,26,0.02653,0.778959,0.020666
22,7,2,6,0,0,1,,4,S,0,S,15,0.030144,0.759888,0.022906
22,8,4,5,0,0,1,,1,S,0,S,19,0.024809,0.777867,0.019298
22,9,5,2,0,0,1,,3,S,0,S,15,0.773772,0.021557,0.01668
22,10,6,3,0,0,1,,3,S,0,S,17,0.755018,0.041389,0.031249
22,11,3,5,0,0,1,,2,S,0,S,17,0.029759,0.766978,0.022825
22,12,7,9,0,0,1,,2,S,0,S,17,0.014462,0.791294,0.011444
22,13,9,8,0,0,1,,1,S,0,S,19,0.784064,0.019287,0.015122
22,14,6,9,0,0,1,,3,S,0,S,17,0.023361,0.780592,0.018235
22,15,9,4,0,0,1,,5,S,0,S,15,0.799186,0.001968,0.001573
22,16,4,2,0,0,1,,2,S,0,S,19,0.786339,0.018404,0.014472
22,17,1,9,0,0,1,,8,L,0,S,14,0,0.797099,0
22,18,3,8,0,0,1,,5,S,0,S,15,0.015529,0.77636,0.012056
22,19,6,1,0,0,1,,5,S,0,S,14,0.795206,0,0
22,20,9,7,0,0,1,,2,S,0,S,25,0.751566,0.050309,0.037811
22,21,1,3,0,0,1,,2,S,0,S,17,0.005885,0.796501,0.004687
22,22,7,4,0,0,1,,3,S,0,S,17,0.753929,0.043211,0.032578
22,23,1,2,0,0,1,,1,S,0,S,19,0.033,0.76739,0.025324
22,24,7,6,0,0,0,,1,S,0,S,20,0.011602,0.795675,0.009232
22,25,2,8,0,0,1,,6,S,0,S,15,0.013451,0.781192,0.010508
22,26,5,9,0,0,1,,4,S,0,S,18,0.035868,0.765663,0.027463
22,27,3,2,0,0,1,,1,S,0,S,23,0.778167,0.026647,0.020736
22,28,5,1,0,0,1,,4,S,0,S,13,0.75467,0.024037,0.01814
22,29,8,2,0,0,1,,6,S,0,S,14,0.781887,0.010346,0.00809
22,30,6,7,0,0,1,,1,S,0,S,16,0.040759,0.753792,0.030724
22,31,5,4,0,0,1,,1,S,0,S,16,0.762444,0.033532,0.025567
22,32,3,7,0,0,1,,4,S,0,S,14,0.022495,0.764642,0.017201
22,33,2,7,0,0,1,,5,S,0,S,14,0.020807,0.768945,0.016
22,34,4,9,0,0,1,,5,S,0,S,15,0.016833,0.779479,0.013121
22,35,9,5,0,0,1,,4,S,0,S,15,0.753284,0.037309,0.028104
22,36,7,3,0,0,1,,4,S,0,S,18,0.78724,0.017196,0.013537
22,37,3,6,0,0,1,,3,S,0,S,15,0.032348,0.754803,0.024416
22,38,5,7,0,0,1,,2,S,0,S,17,0.044425,0.750735,0.033351
22,39,2,4,0,0,1,,2,S,0,S,20,0.017997,0.789533,0.014209
22,40,2,9,0,0,1,,7,L,0,S,14,0.028665,0.760388,0.021797
22,41,8,6,0,0,1,,2,S,0,S,18,0.789322,0.012689,0.010016
22,42,9,6,0,0,1,,3,S,0,S,18,0.79499,0.009578,0.007615
22,43,8,3,0,0,1,,5,S,0,S,15,0.78831,0.007994,0.006302
22,44,1,7,0,0,1,,6,S,0,S,14,0,0.802967,0
22,45,7,5,0,0,1,,2,S,0,S,21,0.779427,0.027223,0.021218
22,46,5,3,0,0,1,,2,S,0,S,16,0.751313,0.040901,0.030729
22,47,7,8,0,0,1,,1,S,0,S,18,0.028655,0.771379,0.022104
22,48,6,4,0,0,1,,2,S,0,S,17,0.769043,0.031694,0.024374
22,49,1,6,0,0,1,,5,S,0,S,14,0.026908,0.757232,0.020376
22,50,4,3,0,0,0,,1,S,0,S,26,0.031255,0.772625,0.024149
22,51,2,1,0,0,1,,1,S,0,S,15,0.753047,0.034018,0.025617
22,52,9,1,0,0,1,,8,L,0,S,13,0.792133,0,0
22,53,9,3,0,0,1,,6,S,0,S,15,0.792087,0.006315,0.005002
22,54,3,1,0,0,1,,2,S,0,S,16,0.798434,0,0
22,55,8,9,0,0,0,,1,S,0,S,21,0.750742,0.049457,0.03713
22,56,7,2,0,0,1,,5,S,0,S,16,0.788581,0.013494,0.010641
22,57,7,1,0,0,1,,6,S,0,S,14,0.790489,0.002256,0.001783
22,58,4,7,0,0,1,,3,S,0,S,15,0.007292,0.790051,0.005761
22,59,5,8,0,0,1,,3,S,0,S,21,0.018065,0.787338,0.014223
22,60,1,4,0,0,1,,3,S,0,S,17,0.010192,0.792717,0.008079
22,61,4,1,0,0,1,,3,S,0,S,15,0.784743,0.00855,0.00671
22,62,3,9,0,0,1,,6,S,0,S,14,0.030381,0.756022,0.022968
22,63,1,5,0,0,1,,4,S,0,S,15,0.034857,0.754118,0.026286
22,64,2,5,0,0,1,,3,S,0,S,17,0.02659,0.773302,0.020562
22,65,2,3,0,0,1,,1,S,0,S,19,0.041247,0.757402,0.031241
22,66,4,8,0,0,1,,4,S,0,S,16,0.006948,0.791785,0.005501
22,67,9,2,0,0,1,,7,L,0,S,14,0.785193,0.009009,0.007073
22,68,8,4,0,0,1,,4,S,0,S,15,0.795502,0.003599,0.002863
22,69,8,7,0,0,1,,1,S,0,S,26,0.774689,0.030444,0.023585
22,70,6,8,0,0,1,,2,S,0,S,18,0.042307,0.754602,0.031925
22,71,6,5,0,0,1,,1,S,0,S,20,0.770646,0.033944,0.026159
22,72,8,1,0,0,1,,7,L,0,S,13,0.789326,0,0
23,1,3,1,0,0,1,,2,S,0,S,15,0.763688,0.025101,0.019169
23,2,3,7,0,0,1,,4,S,0,S,16,0.018423,0.779352,0.014358
23,3,9,2,0,0,1,,7,L,0,S,15,0.786642,0.010655,0.008381
23,4,6,2,0,0,1,,4,S,0,S,17,0.776841,0.023706,0.018416
23,5,8,1,0,0,1,,7,L,0,S,13,0.755766,0.02401,0.018146
23,6,6,7,0,0,1,,1,S,0,S,18,0.01808,0.788052,0.014248
23,7,6,8,0,0,1,,2,S,0,S,15,0.031581,0.759933,0.024
23,8,1,6,0,0,1,,5,S,0,S,15,0.020317,0.774805,0.015742
23,9,6,5,0,0,1,,1,S,0,S,24,0.793639,0.016011,0.012707
23,10,1,3,0,0,1,,2,S,0,S,17,0.038074,0.758003,0.028861
23,11,3,9,0,0,1,,6,S,0,S,14,0.028232,0.754609,0.021304
23,12,8,4,0,0,1,,4,S,0,S,17,0.76438,0.034587,0.026438
23,13,9,4,0,0,1,,5,S,0,S,17,0.792202,0.0131,0.010378
23,14,2,8,0,0,1,,6,S,0,S,14,0.030279,0.757438,0.022934
23,15,3,8,0,0,1,,5,S,0,S,14,0.030879,0.752404,0.023234
23,16,4,5,0,0,1,,1,S,0,S,22,0.013519,0.794024,0.010735
23,17,8,2,0,0,1,,6,S,0,S,15,0.772068,0.021486,0.016589
23,18,2,3,0,0,1,,1,S,0,S,24,0.036806,0.769283,0.028314
23,19,8,7,0,0,1,,1,S,0,S,25,0.774333,0.032552,0.025206
23,20,1,4,0,0,1,,3,S,0,S,16,0.022932,0.776396,0.017804
23,21,9,5,0,0,1,,4,S,0,S,16,0.750584,0.041783,0.031361
23,22,5,1,0,0,1,,4,S,0,S,14,0.783166,0.006367,0.004986
23,23,1,7,0,0,1,,6,S,0,S,15,0.002211,0.798759,0.001766
23,24,9,6,0,0,1,,3,S,0,S,19,0.780997,0.023973,0.018723
23,25,8,6,0,0,1,,2,S,0,S,20,0.769338,0.033644,0.025884
23,26,3,6,0,0,1,,3,S,0,S,17,0.011691,0.789774,0.009234
23,27,5,8,0,0,1,,3,S,0,S,16,0.032481,0.759,0.024653
23,28,4,8,0,0,1,,4,S,0,S,15,0.007404,0.789333,0.005845
23,29,5,4,0,0,1,,1,S,0,S,20,0.794124,0.01271,0.010093
23,30,9,3,0,0,1,,6,S,0,S,16,0.792696,0.009025,0.007154
23,31,2,6,0,0,1,,4,S,0,S,17,0.011951,0.793847,0.009487
23,32,6,3,0,0,1,,3,S,0,S,19,0.762263,0.038553,0.029387
23,33,9,8,0,0,0,,1,S,0,S,18,0.036722,0.761907,0.027979
23,34,7,6,0,0,1,,1,S,0,S,17,0.795277,0.009737,0.007743
23,35,5,2,0,0,1,,3,S,0,S,16,0.774175,0.020799,0.016102
23,36,7,4,0,0,1,,3,S,0,S,15,0.758163,0.034641,0.026264
23,37,5,6,0,0,1,,1,S,0,S,27,0.022274,0.783802,0.017458
23,38,6,9,0,0,1,,3,S,0,S,15,0.027709,0.763631,0.02116
23,39,4,9,0,0,1,,5,S,0,S,15,0.004496,0.791833,0.00356
23,40,4,1,0,0,1,,3,S,0,S,15,0.786812,0.008435,0.006637
23,41,6,4,0,0,1,,2,S,0,S,27,0.77538,0.033289,0.025812
23,42,5,7,0,0,1,,2,S,0,S,20,0.047035,0.750641,0.035306
23,43,4,3,0,0,1,,1,S,0,S,25,0.768743,0.035,0.026906
23,44,1,9,0,0,1,,8,L,0,S,14,0,0.799801,0
23,45,1,8,0,0,1,,7,L,0,S,14,0,0.79861,0
23,46,4,7,0,0,1,,3,S,0,S,16,0.040976,0.752186,0.030822
23,47,8,9,0,0,1,,1,S,0,S,17,0.037913,0.756112,0.028666
23,48,3,2,0,0,1,,1,S,0,S,21,0.788895,0.015686,0.012375
23,49,1,2,0,0,1,,1,S,0,S,20,0.034179,0.767508,0.026233
23,50,7,9,0,0,1,,2,S,0,S,23,0.021993,0.783792,0.017238
23,51,3,5,0,0,1,,2,S,0,S,19,0.039004,0.757651,0.029551
23,52,6,1,0,0,1,,5,S,0,S,14,0.765728,0.022259,0.017044
23,53,9,7,0,0,1,,2,S,0,S,21,0.756977,0.045531,0.034466
23,54,2,4,0,0,1,,2,S,0,S,19,0.018721,0.790236,0.014794
23,55,7,1,0,0,1,,6,S,0,S,13,0.786946,0.000941,0.00074
23,56,2,9,0,0,1,,7,L,0,S,14,0.027546,0.759744,0.020928
23,57,2,7,0,0,1,,5,S,0,S,16,0.018283,0.78388,0.014332
23,58,3,4,0,0,1,,1,S,0,S,19,0.015408,0.789804,0.012169
23,59,7,3,0,0,1,,4,S,0,S,15,0.791523,0.007157,0.005665
23,60,5,9,0,0,1,,4,S,0,S,16,0.027213,0.764431,0.020802
23,61,7,8,0,0,1,,1,S,0,S,24,0.043551,0.758683,0.033042
23,62,2,5,0,0,1,,3,S,0,S,19,0.043909,0.756234,0.033205
23,63,7,2,0,0,1,,5,S,0,S,14,0.772953,0.017495,0.013523
23,64,8,5,0,0,1,,3,S,0,S,17,0.773973,0.025157,0.019471
23,65,4,6,0,0,1,,2,S,0,S,17,0.041347,0.753816,0.031168
23,66,2,1,0,0,1,,1,S,0,S,15,0.775927,0.018962,0.014713
23,67,9,1,0,0,1,,8,L,0,S,13,0.764338,0.018012,0.013767
23,68,4,2,0,0,1,,2,S,0,S,19,0.787192,0.016896,0.0133
23,69,7,5,0,0,1,,2,S,0,S,15,0.762119,0.029804,0.022714
23,70,5,3,0,0,1,,2,S,0,S,17,0.753572,0.03941,0.029698
23,71,8,3,0,0,1,,5,S,0,S,16,0.773274,0.023765,0.018377
23,72,1,5,0,0,1,,4,S,0,S,16,0.033597,0.760475,0.02555
24,1,6,1,0,0,1,,5,S,0,S,13,0.786187,0.002018,0.001586
24,2,8,3,0,0,1,,5,S,0,S,14,0.77593,0.013806,0.010712
24,3,6,7,0,0,1,,1,S,0,S,18,0.029276,0.772164,0.022606
24,4,7,8,0,0,0,,1,S,0,S,22,0.764031,0.036574,0.027944
24,5,6,4,0,0,1,,2,S,0,S,18,0.771983,0.027728,0.021406
24,6,5,1,0,0,1,,4,S,0,S,14,0.78674,0.005986,0.004709
24,7,4,2,0,0,1,,2,S,0,S,21,0.766174,0.03865,0.029613
24,8,3,5,0,0,1,,2,S,0,S,19,0.014695,0.789874,0.011607
24,9,2,3,0,0,1,,1,S,0,S,24,0.024388,0.778681,0.01899
24,10,3,2,0,0,1,,1,S,0,S,17,0.76768,0.03097,0.023775
24,11,1,4,0,0,1,,3,S,0,S,16,0.037107,0.753843,0.027973
24,12,3,6,0,0,1,,3,S,0,S,16,0.007251,0.79145,0.005739
24,13,2,6,0,0,1,,4,S,0,S,14,0.021212,0.764943,0.016226
24,14,4,8,0,0,1,,4,S,0,S,14,0.009686,0.782109,0.007576
24,15,1,7,0,0,1,,6,S,0,S,14,0.013652,0.777412,0.010614
24,16,7,5,0,0,1,,2,S,0,S,15,0.759426,0.03125,0.023732
24,17,5,2,0,0,1,,3,S,0,S,19,0.775875,0.029273,0.022712
24,18,1,3,0,0,1,,2,S,0,S,20,0.033607,0.766735,0.025767
24,19,5,4,0,0,0,,1,S,0,S,20,0.024087,0.778627,0.018755
24,20,5,9,0,0,1,,4,S,0,S,13,0.004372,0.782932,0.003423
24,21,8,5,0,0,1,,3,S,0,S,16,0.762682,0.032446,0.024746
24,22,5,8,0,0,1,,3,S,0,S,14,0.020812,0.767722,0.015978
24,23,2,5,0,0,1,,3,S,0,S,16,0.005655,0.795054,0.004496
24,24,3,7,0,0,1,,4,S,0,S,16,0.016531,0.780628,0.012905
24,25,8,2,0,0,1,,6,S,0,S,14,0.788951,0.006602,0.005208
24,26,9,8,0,0,0,,1,S,0,S,20,0.024712,0.77929,0.019258
24,27,4,1,0,0,1,,3,S,0,S,14,0.772542,0.016822,0.012995
24,28,1,8,0,0,1,,7,L,0,S,13,0.024516,0.755664,0.018526
24,29,2,9,0,0,1,,7,L,0,S,13,0,0.799076,0
24,30,7,6,0,0,1,,1,S,0,S,18,0.771489,0.027226,0.021005
24,31,1,2,0,0,1,,1,S,0,S,21,0.032973,0.772775,0.02548
24,32,6,5,0,0,1,,1,S,0,S,24,0.784707,0.024006,0.018838
24,33,6,8,0,0,1,,2,S,0,S,16,0.022518,0.774813,0.017447
24,34,9,5,0,0,1,,4,S,0,S,17,0.789439,0.014228,0.011232
24,35,3,9,0,0,1,,6,S,0,S,13,0.018479,0.76232,0.014087
24,36,2,7,0,0,1,,5,S,0,S,14,0.026684,0.758762,0.020247
24,37,4,7,0,0,1,,3,S,0,S,15,0.004893,0.793937,0.003885
24,38,2,8,0,0,1,,6,S,0,S,14,0,0.793886,0
24,39,4,9,0,0,1,,5,S,0,S,13,0,0.792036,0
24,40,5,3,0,0,1,,2,S,0,S,20,0.77294,0.029156,0.022536
24,41,7,3,0,0,1,,4,S,0,S,14,0.798408,0,0
24,42,3,8,0,0,1,,5,S,0,S,15,0.008267,0.786736,0.006504
24,43,8,9,0,0,1,,1,S,0,S,15,0.035183,0.753732,0.026518
24,44,6,9,0,0,1,,3,S,0,S,14,0.008659,0.784213,0.00679
24,45,5,7,0,0,1,,2,S,0,S,15,0.01983,0.774877,0.015366
24,46,2,1,0,0,1,,1,S,0,S,15,0.800842,0,0
24,47,4,3,0,0,1,,1,S,0,S,23,0.75927,0.041578,0.031569
24,48,7,2,0,0,1,,5,S,0,S,13,0.756827,0.025463,0.019271
24,49,9,6,0,0,1,,3,S,0,S,25,0.790984,0.017323,0.013702
24,50,3,1,0,0,1,,2,S,0,S,13,0.750737,0.026895,0.020191
24,51,4,6,0,0,1,,2,S,0,S,15,0,0.800851,0
24,52,6,2,0,0,1,,4,S,0,S,15,0.764344,0.030465,0.023286
24,53,7,1,0,0,1,,6,S,0,S,12,0.777342,0.001119,0.000869
24,54,1,6,0,0,1,,5,S,0,S,14,0.008801,0.782777,0.006889
24,55,1,5,0,0,1,,4,S,0,S,15,0.022094,0.772123,0.017059
24,56,9,4,0,0,1,,5,S,0,S,15,0.754258,0.034468,0.025997
24,57,9,3,0,0,1,,6,S,0,S,14,0.766737,0.02144,0.016439
24,58,8,7,0,0,1,,1,S,0,S,20,0.777206,0.026503,0.020598
24,59,8,6,0,0,1,,2,S,0,S,21,0.761756,0.038624,0.029422
24,60,8,4,0,0,1,,4,S,0,S,15,0.76855,0.022795,0.017519
24,61,9,2,0,0,1,,7,L,0,S,14,0.780337,0.013837,0.010797
24,62,4,5,0,0,1,,1,S,0,S,16,0.029076,0.767427,0.022313
24,63,9,1,0,0,1,,8,L,0,S,12,0.761391,0.013992,0.010653
24,64,9,7,0,0,1,,2,S,0,S,22,0.782571,0.024122,0.018877
24,65,7,9,0,0,1,,2,S,0,S,16,0.039569,0.750982,0.029715
24,66,2,4,0,0,1,,2,S,0,S,17,0.031705,0.761771,0.024152
24,67,1,9,0,0,1,,8,L,0,S,12,0.019255,0.753943,0.014517
24,68,3,4,0,0,1,,1,S,0,S,35,0.043292,0.75544,0.032704
24,69,5,6,0,0,1,,1,S,0,S,15,0.012691,0.783062,0.009938
24,70,7,4,0,0,1,,3,S,0,S,15,0.800868,0,0
24,71,6,3,0,0,1,,3,S,0,S,16,0.795595,0.005831,0.004639
24,72,8,1,0,0,1,,7,L,0,S,12,0.765657,0.010328,0.007908
25,1,3,2,0,0,1,,1,S,0,S,18,0.756956,0.040776,0.030866
25,2,4,3,0,0,1,,1,S,0,S,18,0.779497,0.024705,0.019258
25,3,9,1,0,0,1,,8,L,0,S,13,0.760099,0.022123,0.016816
25,4,5,4,0,0,1,,1,S,0,S,22,0.781662,0.022249,0.017391
25,5,8,2,0,0,1,,6,S,0,S,14,0.77197,0.016495,0.012734
25,6,1,2,0,0,1,,1,S,0,S,19,0.033165,0.765497,0.025388
25,7,6,3,0,0,1,,3,S,0,S,17,0.756997,0.040506,0.030663
25,8,7,6,0,0,1,,1,S,0,S,20,0.790684,0.014241,0.01126
25,9,7,5,0,0,1,,2,S,0,S,18,0.753393,0.040508,0.030518
25,10,3,9,0,0,1,,6,S,0,S,14,0.020302,0.770214,0.015637
25,11,2,8,0,0,1,,6,S,0,S,14,0.015759,0.771166,0.012153
25,12,1,9,0,0,1,,8,L,0,S,13,0.012337,0.771784,0.009521
25,13,5,6,0,0,1,,1,S,0,S,20,0.033328,0.766919,0.02556
25,14,4,9,0,0,1,,5,S,0,S,15,0.026373,0.76771,0.020247
25,15,2,6,0,0,1,,4,S,0,S,15,0.013811,0.780611,0.010781
25,16,2,4,0,0,1,,2,S,0,S,16,0.025863,0.768206,0.019868
25,17,7,9,0,0,1,,2,S,0,S,16,0.034314,0.757098,0.025979
25,18,8,6,0,0,1,,2,S,0,S,16,0.754054,0.038412,0.028965
25,19,6,8,0,0,1,,2,S,0,S,19,0.018839,0.78554,0.014799
25,20,7,4,0,0,1,,3,S,0,S,17,0.785543,0.014232,0.01118
25,21,5,2,0,0,1,,3,S,0,S,17,0.773124,0.023272,0.017992
25,22,5,7,0,0,1,,2,S,0,S,16,0.031992,0.761384,0.024358
25,23,1,5,0,0,1,,4,S,0,S,15,0.029378,0.760348,0.022337
25,24,9,5,0,0,1,,4,S,0,S,16,0.760767,0.034195,0.026014
25,25,9,6,0,0,1,,3,S,0,S,17,0.783176,0.019898,0.015584
25,26,3,5,0,0,1,,2,S,0,S,19,0.020931,0.783868,0.016407
25,27,1,6,0,0,1,,5,S,0,S,15,0.014422,0.780974,0.011263
25,28,5,3,0,0,1,,2,S,0,S,20,0.752904,0.044601,0.033581
25,29,2,3,0,0,1,,1,S,0,S,16,0.036205,0.755739,0.027362
25,30,2,7,0,0,1,,5,S,0,S,14,0.006039,0.786352,0.004748
25,31,8,4,0,0,1,,4,S,0,S,15,0.770079,0.022528,0.017348
25,32,4,5,0,0,0,,1,S,0,S,23,0.788376,0.020076,0.015827
25,33,9,7,0,0,1,,2,S,0,S,23,0.756555,0.047184,0.035698
25,34,5,9,0,0,1,,4,S,0,S,15,0.006797,0.788978,0.005363
25,35,4,2,0,0,1,,2,S,0,S,16,0.780603,0.018458,0.014408
25,36,6,1,0,0,1,,5,S,0,S,14,0.764711,0.023516,0.017983
25,37,1,7,0,0,1,,6,S,0,S,14,0.006343,0.787045,0.004992
25,38,4,7,0,0,1,,3,S,0,S,17,0.033165,0.766945,0.025436
25,39,6,5,0,0,1,,1,S,0,S,21,0.783788,0.022575,0.017694
25,40,4,6,0,0,1,,2,S,0,S,28,0.046722,0.757867,0.035409
25,41,6,9,0,0,1,,3,S,0,S,15,0.036371,0.754508,0.027442
25,42,6,4,0,0,1,,2,S,0,S,18,0.780855,0.022702,0.017727
25,43,7,3,0,0,1,,4,S,0,S,16,0.754174,0.037267,0.028106
25,44,2,1,0,0,1,,1,S,0,S,21,0.792995,0.011485,0.009108
25,45,3,8,0,0,1,,5,S,0,S,16,0.013465,0.786102,0.010585
25,46,4,1,0,0,1,,3,S,0,S,14,0.756482,0.030074,0.022751
25,47,8,9,0,0,1,,1,S,0,S,19,0.033639,0.766107,0.025771
25,48,9,3,0,0,1,,6,S,0,S,15,0.770879,0.02451,0.018894
25,49,1,4,0,0,1,,3,S,0,S,16,0.027053,0.767894,0.020774
25,50,8,7,0,0,1,,1,S,0,S,21,0.787019,0.019534,0.015374
25,51,8,5,0,0,1,,3,S,0,S,16,0.776882,0.019493,0.015144
25,52,9,4,0,0,1,,5,S,0,S,15,0.758858,0.033263,0.025242
25,53,7,8,0,0,1,,1,S,0,S,22,0.038911,0.758771,0.029525
25,54,8,1,0,0,1,,7,L,0,S,13,0.764157,0.017251,0.013183
25,55,7,2,0,0,1,,5,S,0,S,15,0.769474,0.021045,0.016194
25,56,6,2,0,0,1,,4,S,0,S,16,0.794069,0.007598,0.006033
25,57,2,9,0,0,1,,7,L,0,S,13,0.012144,0.770977,0.009363
25,58,9,8,0,0,1,,1,S,0,S,21,0.789435,0.017546,0.013851
25,59,1,8,0,0,1,,7,L,0,S,14,0.016111,0.771828,0.012435
25,60,5,8,0,0,1,,3,S,0,S,17,0.018555,0.778534,0.014446
25,61,7,1,0,0,1,,6,S,0,S,14,0.779218,0.009628,0.007502
25,62,5,1,0,0,1,,4,S,0,S,15,0.774047,0.017361,0.013438
25,63,3,6,0,0,1,,3,S,0,S,18,0.015968,0.789954,0.012614
25,64,4,8,0,0,1,,4,S,0,S,18,0.028682,0.77196,0.022141
25,65,3,4,0,0,1,,1,S,0,S,24,0.015766,0.794596,0.012528
25,66,2,5,0,0,1,,3,S,0,S,15,0.0286,0.760164,0.02174
25,67,1,3,0,0,1,,2,S,0,S,16,0.037619,0.755159,0.028408
25,68,8,3,0,0,1,,5,S,0,S,15,0.78102,0.014617,0.011416
25,69,6,7,0,0,1,,1,S,0,S,18,0.016927,0.789187,0.013359
25,70,3,7,0,0,1,,4,S,0,S,15,0.032846,0.760207,0.02497
25,71,9,2,0,0,1,,7,L,0,S,14,0.7654,0.023448,0.017947
25,72,3,1,0,0,1,,2,S,0,S,16,0.797108,0.00497,0.003962
26,1,3,9,0,0,1,,6,S,0,S,15,0.004457,0.795387,0.003545
26,2,6,1,0,0,1,,5,S,0,S,15,0.763415,0.025509,0.019474
26,3,9,7,0,0,1,,2,S,0,S,21,0.757936,0.042007,0.031839
26,4,4,9,0,0,1,,5,S,0,S,16,0.01307,0.788717,0.010309
26,5,3,2,0,0,1,,1,S,0,S,22,0.792987,0.015152,0.012015
26,6,9,5,0,0,1,,4,S,0,S,17,0.756511,0.035966,0.027209
26,7,6,8,0,0,1,,2,S,0,S,20,0.012705,0.794267,0.010091
26,8,2,8,0,0,1,,6,S,0,S,14,0.035132,0.750685,0.026373
26,9,7,9,0,0,1,,2,S,0,S,18,0.015653,0.789455,0.012357
26,10,2,9,0,0,1,,7,L,0,S,14,0,0.799917,0
26,11,7,3,0,0,1,,4,S,0,S,15,0.797418,0.000425,0.000339
26,12,9,4,0,0,1,,5,S,0,S,16,0.763996,0.030953,0.023648
26,13,9,3,0,0,1,,6,S,0,S,14,0.768086,0.018973,0.014573
26,14,1,8,0,0,1,,7,L,0,S,13,0.011764,0.773001,0.009093
26,15,4,7,0,0,1,,3,S,0,S,18,0.02461,0.777674,0.019139
26,16,1,9,0,0,1,,8,L,0,S,13,0,0.804008,0
26,17,7,4,0,0,1,,3,S,0,S,17,0.762972,0.034512,0.026332
26,18,4,3,0,0,1,,1,S,0,S,16,0.794484,0.006021,0.004784
26,19,5,4,0,0,1,,1,S,0,S,19,0.785376,0.019508,0.015321
26,20,4,5,0,0,1,,1,S,0,S,26,0.030424,0.772683,0.023508
26,21,8,9,0,0,0,,1,S,0,S,19,0.779578,0.024996,0.019486
26,22,3,6,0,0,1,,3,S,0,S,16,0.029543,0.762283,0.02252
26,23,6,3,0,0,1,,3,S,0,S,15,0.758533,0.030094,0.022827
26,24,6,7,0,0,1,,1,S,0,S,19,0.024611,0.777714,0.01914
26,25,8,7,0,0,1,,1,S,0,S,16,0.762559,0.032165,0.024527
26,26,9,6,0,0,1,,3,S,0,S,21,0.789806,0.013646,0.010778
26,27,5,9,0,0,1,,4,S,0,S,17,0.008329,0.796413,0.006633
26,28,5,3,0,0,1,,2,S,0,S,15,0.771713,0.020234,0.015615
26,29,8,1,0,0,1,,7,L,0,S,13,0.767427,0.014433,0.011076
26,30,2,6,0,0,1,,4,S,0,S,15,0.000954,0.79614,0.00076
26,31,2,7,0,0,1,,5,S,0,S,14,0.030086,0.756775,0.022768
26,32,5,2,0,0,1,,3,S,0,S,16,0.75927,0.034401,0.02612
26,33,5,8,0,0,1,,3,S,0,S,21,0.022478,0.783398,0.017609
26,34,1,6,0,0,1,,5,S,0,S,13,0.013177,0.767666,0.010115
26,35,7,5,0,0,1,,2,S,0,S,19,0.77754,0.022758,0.017695
26,36,7,2,0,0,1,,5,S,0,S,16,0.79724,0.004775,0.003807
26,37,2,3,0,0,1,,1,S,0,S,36,0.043358,0.758255,0.032877
26,38,7,8,0,0,0,,1,S,0,S,30,0.764664,0.039623,0.030298
26,39,4,6,0,0,1,,2,S,0,S,19,0.008188,0.796268,0.00652
26,40,8,6,0,0,1,,2,S,0,S,16,0.765483,0.027192,0.020815
26,41,6,5,0,0,1,,1,S,0,S,25,0.77313,0.028612,0.022121
26,42,2,1,0,0,1,,1,S,0,S,26,0.774626,0.028847,0.022346
26,43,1,7,0,0,1,,6,S,0,S,13,0.008895,0.77635,0.006905
26,44,3,8,0,0,1,,5,S,0,S,16,0.027476,0.768886,0.021126
26,45,3,5,0,0,1,,2,S,0,S,18,0.029099,0.768097,0.022351
26,46,8,4,0,0,1,,4,S,0,S,14,0.752771,0.033335,0.025094
26,47,5,7,0,0,1,,2,S,0,S,20,0.024661,0.779267,0.019217
26,48,9,8,0,0,1,,1,S,0,S,20,0.762814,0.037856,0.028877
26,49,9,2,0,0,1,,7,L,0,S,15,0.777849,0.01669,0.012982
26,50,1,4,0,0,1,,3,S,0,S,14,0.00802,0.784558,0.006293
26,51,5,6,0,0,1,,1,S,0,S,21,0.022834,0.778749,0.017782
26,52,3,7,0,0,1,,4,S,0,S,16,0.018777,0.779473,0.014637
26,53,4,8,0,0,1,,4,S,0,S,18,0.042436,0.755683,0.032068
26,54,6,9,0,0,1,,3,S,0,S,16,0.030341,0.7653,0.02322
26,55,3,4,0,0,1,,1,S,0,S,20,0.026028,0.7787,0.020268
26,56,3,1,0,0,1,,2,S,0,S,17,0.766379,0.028812,0.022081
26,57,8,2,0,0,1,,6,S,0,S,14,0.791216,0.00326,0.00258
26,58,8,3,0,0,1,,5,S,0,S,13,0.765681,0.016469,0.01261
26,59,1,2,0,0,1,,1,S,0,S,15,0.004503,0.793168,0.003572
26,60,1,5,0,0,1,,4,S,0,S,14,0,0.795161,0
26,61,8,5,0,0,1,,3,S,0,S,15,0.772762,0.018988,0.014673
26,62,7,1,0,0,1,,6,S,0,S,15,0.800748,0,0
26,63,7,6,0,0,1,,1,S,0,S,36,0.786058,0.019025,0.014954
26,64,9,1,0,0,1,,8,L,0,S,14,0.770919,0.016041,0.012367
26,65,2,4,0,0,1,,2,S,0,S,16,0.024832,0.773227,0.0192
