ANN,trial,N1,N2,P1,P2,Succ.,,Ndist,Ndist,Pdist,Pdist,rt,a1,a2,x_acc
1,1,2,6,0,0,1,,4,S,0,S,14,0.015127,0.776318,0.011743
1,2,2,1,0,0,1,,1,S,0,S,15,0.791251,0.007117,0.005631
1,3,5,1,0,0,1,,4,S,0,S,14,0.802039,0,0
1,4,3,4,0,0,1,,1,S,0,S,16,0.021142,0.779012,0.01647
1,5,6,8,0,0,1,,2,S,0,S,15,0.012145,0.783471,0.009515
1,6,5,4,0,0,1,,1,S,0,S,19,0.769184,0.034849,0.026806
1,7,6,5,0,0,1,,1,S,0,S,22,0.78422,0.021493,0.016855
1,8,3,5,0,0,1,,2,S,0,S,16,0.020122,0.776673,0.015628
1,9,9,3,0,0,1,,6,S,0,S,13,0.751428,0.028436,0.021367
1,10,8,7,0,0,1,,1,S,0,S,21,0.776657,0.026303,0.020428
1,11,4,6,0,0,1,,2,S,0,S,14,0.018178,0.770871,0.014013
1,12,9,7,0,0,1,,2,S,0,S,15,0.755072,0.034807,0.026282
1,13,6,9,0,0,1,,3,S,0,S,17,0.006705,0.797715,0.005349
1,14,1,7,0,0,1,,6,S,0,S,14,0.009279,0.783056,0.007266
1,15,6,7,0,0,1,,1,S,0,S,18,0.024413,0.776457,0.018956
1,16,3,2,0,0,1,,1,S,0,S,25,0.792533,0.017933,0.014213
1,17,3,1,0,0,1,,2,S,0,S,16,0.762749,0.032103,0.024486
1,18,8,1,0,0,1,,7,L,0,S,13,0.783905,0.00367,0.002877
1,19,4,9,0,0,1,,5,S,0,S,15,0.01753,0.776029,0.013604
1,20,4,5,0,0,1,,1,S,0,S,19,0.033454,0.764755,0.025584
1,21,4,3,0,0,1,,1,S,0,S,32,0.780825,0.024224,0.018915
1,22,9,8,0,0,1,,1,S,0,S,20,0.772036,0.030497,0.023545
1,23,4,1,0,0,1,,3,S,0,S,15,0.791603,0.005677,0.004494
1,24,1,8,0,0,1,,7,L,0,S,13,0.001774,0.786399,0.001395
1,25,9,2,0,0,1,,7,L,0,S,13,0.79533,0,0
1,26,2,5,0,0,1,,3,S,0,S,19,0.020928,0.782224,0.016371
1,27,8,6,0,0,0,,2,S,0,S,18,0.025609,0.775618,0.019863
1,28,8,4,0,0,1,,4,S,0,S,16,0.778369,0.021185,0.01649
1,29,7,6,0,0,0,,1,S,0,S,16,0.03352,0.761075,0.025511
1,30,1,3,0,0,1,,2,S,0,S,16,0.034919,0.758733,0.026494
1,31,6,1,0,0,1,,5,S,0,S,14,0.791095,0.003612,0.002858
1,32,1,6,0,0,1,,5,S,0,S,13,0.006927,0.781106,0.005411
1,33,4,2,0,0,1,,2,S,0,S,17,0.77141,0.027715,0.02138
1,34,9,4,0,0,1,,5,S,0,S,14,0.785135,0.010269,0.008063
1,35,8,9,0,0,1,,1,S,0,S,25,0.045129,0.755913,0.034114
1,36,1,5,0,0,1,,4,S,0,S,15,0.026299,0.765891,0.020142
1,37,7,5,0,0,1,,2,S,0,S,18,0.78639,0.016105,0.012665
1,38,7,1,0,0,1,,6,S,0,S,13,0.763982,0.01907,0.014569
1,39,6,4,0,0,1,,2,S,0,S,21,0.778447,0.028769,0.022395
1,40,2,4,0,0,1,,2,S,0,S,19,0.026851,0.778649,0.020908
1,41,2,3,0,0,1,,1,S,0,S,29,0.029218,0.776258,0.02268
1,42,5,2,0,0,1,,3,S,0,S,15,0.785306,0.013297,0.010443
1,43,1,4,0,0,1,,3,S,0,S,15,0.026874,0.768735,0.020659
1,44,1,2,0,0,1,,1,S,0,S,21,0.034813,0.770704,0.02683
1,45,9,5,0,0,1,,4,S,0,S,14,0.776227,0.014552,0.011296
1,46,6,2,0,0,1,,4,S,0,S,15,0.767408,0.026927,0.020664
1,47,3,9,0,0,1,,6,S,0,S,14,0.008336,0.784354,0.006538
1,48,7,2,0,0,1,,5,S,0,S,14,0.757919,0.02995,0.0227
1,49,7,8,0,0,1,,1,S,0,S,16,0.016369,0.781234,0.012788
1,50,3,6,0,0,1,,3,S,0,S,13,0.019412,0.763869,0.014828
1,51,9,6,0,0,1,,3,S,0,S,19,0.795156,0.012548,0.009977
1,52,9,1,0,0,1,,8,L,0,S,12,0.773827,0.005858,0.004533
1,53,7,3,0,0,1,,4,S,0,S,16,0.77143,0.024207,0.018674
1,54,3,7,0,0,1,,4,S,0,S,14,0.027296,0.758762,0.020711
1,55,8,5,0,0,1,,3,S,0,S,16,0.76486,0.028888,0.022096
1,56,7,9,0,0,1,,2,S,0,S,19,0.018024,0.786554,0.014177
1,57,5,8,0,0,1,,3,S,0,S,15,0.024697,0.76775,0.018961
1,58,5,9,0,0,1,,4,S,0,S,17,0.030151,0.768548,0.023172
1,59,4,8,0,0,1,,4,S,0,S,14,0.010219,0.779631,0.007967
1,60,4,7,0,0,1,,3,S,0,S,16,0.0107,0.787433,0.008426
1,61,5,6,0,0,1,,1,S,0,S,15,0.038031,0.752278,0.02861
1,62,8,3,0,0,1,,5,S,0,S,15,0.7698,0.022222,0.017106
1,63,1,9,0,0,1,,8,L,0,S,13,0.02893,0.751543,0.021742
1,64,5,7,0,0,1,,2,S,0,S,19,0.027205,0.774973,0.021083
1,65,2,7,0,0,1,,5,S,0,S,16,0.005741,0.795292,0.004565
1,66,8,2,0,0,1,,6,S,0,S,14,0.787389,0.006909,0.00544
1,67,7,4,0,0,1,,3,S,0,S,17,0.756311,0.041209,0.031167
1,68,2,8,0,0,1,,6,S,0,S,14,0.007336,0.784843,0.005758
1,69,6,3,0,0,1,,3,S,0,S,18,0.784638,0.017943,0.014078
1,70,2,9,0,0,1,,7,L,0,S,15,0.013526,0.782704,0.010587
1,71,3,8,0,0,1,,5,S,0,S,13,0.013563,0.770047,0.010444
1,72,5,3,0,0,1,,2,S,0,S,17,0.773905,0.025172,0.019481
2,1,7,1,0,0,1,,6,S,0,S,14,0.777863,0.010714,0.008334
2,2,4,6,0,0,1,,2,S,0,S,21,0.025126,0.781605,0.019639
2,3,6,3,0,0,1,,3,S,0,S,14,0.758773,0.026608,0.020189
2,4,5,2,0,0,1,,3,S,0,S,14,0.751713,0.032187,0.024195
2,5,3,1,0,0,1,,2,S,0,S,16,0.798099,0,0
2,6,5,4,0,0,1,,1,S,0,S,19,0.750912,0.047255,0.035484
2,7,4,9,0,0,1,,5,S,0,S,16,0.031814,0.762593,0.024261
2,8,1,7,0,0,1,,6,S,0,S,13,0,0.790223,0
2,9,8,9,0,0,1,,1,S,0,S,23,0.025481,0.780769,0.019895
2,10,8,7,0,0,0,,1,S,0,S,23,0.012273,0.795579,0.009764
2,11,3,5,0,0,1,,2,S,0,S,18,0.03026,0.769091,0.023273
2,12,6,2,0,0,1,,4,S,0,S,14,0.773905,0.013518,0.010462
2,13,3,8,0,0,1,,5,S,0,S,14,0.012196,0.776083,0.009465
2,14,9,5,0,0,1,,4,S,0,S,16,0.757699,0.037251,0.028225
2,15,2,8,0,0,1,,6,S,0,S,13,0,0.788854,0
2,16,7,4,0,0,1,,3,S,0,S,18,0.773246,0.02818,0.02179
2,17,1,2,0,0,1,,1,S,0,S,18,0.01587,0.783527,0.012434
2,18,5,3,0,0,1,,2,S,0,S,15,0.784803,0.012062,0.009466
2,19,5,1,0,0,1,,4,S,0,S,14,0.763047,0.022121,0.016879
2,20,9,4,0,0,1,,5,S,0,S,16,0.797389,0.004991,0.00398
2,21,8,4,0,0,1,,4,S,0,S,16,0.777975,0.020269,0.015768
2,22,5,8,0,0,1,,3,S,0,S,15,0.015314,0.779634,0.011939
2,23,5,7,0,0,1,,2,S,0,S,17,0.011086,0.791167,0.008771
2,24,1,5,0,0,1,,4,S,0,S,14,0,0.797468,0
2,25,9,1,0,0,1,,8,L,0,S,13,0.765098,0.015324,0.011724
2,26,6,8,0,0,1,,2,S,0,S,16,0.011018,0.786412,0.008665
2,27,4,2,0,0,1,,2,S,0,S,15,0.789698,0.006011,0.004747
2,28,7,6,0,0,1,,1,S,0,S,24,0.776057,0.031514,0.024457
2,29,9,8,0,0,0,,1,S,0,S,18,0.010155,0.793961,0.008062
2,30,8,3,0,0,1,,5,S,0,S,14,0.790833,0.003329,0.002633
2,31,6,1,0,0,1,,5,S,0,S,14,0.782939,0.005262,0.00412
2,32,7,2,0,0,1,,5,S,0,S,14,0.76804,0.019609,0.01506
2,33,1,8,0,0,1,,7,L,0,S,12,0.012101,0.761701,0.009217
2,34,1,4,0,0,1,,3,S,0,S,14,0.014321,0.775096,0.0111
2,35,2,5,0,0,1,,3,S,0,S,15,0.004196,0.795443,0.003338
2,36,6,4,0,0,1,,2,S,0,S,17,0.752432,0.04102,0.030865
2,37,7,8,0,0,1,,1,S,0,S,15,0.032514,0.757335,0.024624
2,38,6,9,0,0,1,,3,S,0,S,18,0.039419,0.756415,0.029817
2,39,8,1,0,0,1,,7,L,0,S,13,0.75694,0.021444,0.016232
2,40,3,6,0,0,1,,3,S,0,S,17,0.032758,0.764054,0.025029
2,41,6,7,0,0,1,,1,S,0,S,18,0.036842,0.758125,0.027931
2,42,8,2,0,0,1,,6,S,0,S,14,0.802635,0,0
2,43,1,3,0,0,1,,2,S,0,S,17,0.009981,0.791177,0.007897
2,44,4,5,0,0,1,,1,S,0,S,25,0.043294,0.760491,0.032924
2,45,3,9,0,0,1,,6,S,0,S,15,0.020132,0.771836,0.015539
2,46,3,4,0,0,1,,1,S,0,S,21,0.017691,0.786949,0.013922
2,47,9,6,0,0,1,,3,S,0,S,17,0.775489,0.025744,0.019964
2,48,2,7,0,0,1,,5,S,0,S,13,0.024811,0.75438,0.018717
2,49,4,1,0,0,1,,3,S,0,S,14,0.750565,0.030951,0.023231
2,50,1,9,0,0,1,,8,L,0,S,13,0,0.791525,0
2,51,3,2,0,0,1,,1,S,0,S,16,0.780406,0.014422,0.011255
2,52,6,5,0,0,1,,1,S,0,S,19,0.763891,0.036142,0.027608
2,53,4,3,0,0,1,,1,S,0,S,15,0.769423,0.023333,0.017953
2,54,7,5,0,0,1,,2,S,0,S,20,0.754295,0.046659,0.035195
2,55,7,9,0,0,1,,2,S,0,S,18,0.009145,0.796934,0.007288
2,56,4,7,0,0,1,,3,S,0,S,16,0.030849,0.762341,0.023518
2,57,5,9,0,0,1,,4,S,0,S,17,0.012225,0.791191,0.009672
2,58,9,2,0,0,1,,7,L,0,S,13,0.758115,0.021889,0.016594
2,59,3,7,0,0,1,,4,S,0,S,15,0.019746,0.770909,0.015222
2,60,2,9,0,0,1,,7,L,0,S,13,0.024921,0.755573,0.018829
2,61,8,6,0,0,1,,2,S,0,S,18,0.790311,0.015626,0.012349
2,62,4,8,0,0,1,,4,S,0,S,15,0.006134,0.790555,0.004849
2,63,2,4,0,0,1,,2,S,0,S,15,0.028667,0.762693,0.021864
2,64,2,1,0,0,1,,1,S,0,S,21,0.771748,0.027365,0.021119
2,65,9,3,0,0,1,,6,S,0,S,14,0.800161,0,0
2,66,9,7,0,0,0,,2,S,0,S,32,0.041977,0.759899,0.031898
2,67,7,3,0,0,1,,4,S,0,S,14,0.751561,0.033776,0.025384
2,68,2,3,0,0,1,,1,S,0,S,22,0.038706,0.762599,0.029517
2,69,2,6,0,0,1,,4,S,0,S,14,0.028345,0.759581,0.021531
2,70,8,5,0,0,1,,3,S,0,S,17,0.780401,0.021648,0.016894
2,71,1,6,0,0,1,,5,S,0,S,13,0.025664,0.755083,0.019379
2,72,5,6,0,0,1,,1,S,0,S,23,0.051755,0.750503,0.038842
3,1,8,4,0,0,1,,4,S,0,S,16,0.787665,0.012687,0.009993
3,2,6,3,0,0,1,,3,S,0,S,16,0.783734,0.015636,0.012254
3,3,8,7,0,0,1,,1,S,0,S,17,0.781268,0.017992,0.014056
3,4,5,6,0,0,1,,1,S,0,S,19,0.03897,0.75656,0.029483
3,5,8,1,0,0,1,,7,L,0,S,13,0.785764,0.001522,0.001196
3,6,7,1,0,0,1,,6,S,0,S,13,0.777206,0.007534,0.005856
3,7,9,7,0,0,1,,2,S,0,S,19,0.790698,0.011313,0.008945
3,8,9,1,0,0,1,,8,L,0,S,13,0.765481,0.015258,0.01168
3,9,9,3,0,0,1,,6,S,0,S,14,0.752066,0.031592,0.023759
3,10,2,8,0,0,1,,6,S,0,S,15,0,0.799958,0
3,11,2,1,0,0,1,,1,S,0,S,18,0.796517,0.005316,0.004234
3,12,8,3,0,0,1,,5,S,0,S,14,0.781998,0.010337,0.008084
3,13,3,2,0,0,1,,1,S,0,S,18,0.765141,0.033908,0.025944
3,14,7,5,0,0,1,,2,S,0,S,17,0.792734,0.010404,0.008248
3,15,3,9,0,0,1,,6,S,0,S,14,0.015817,0.774758,0.012254
3,16,5,7,0,0,1,,2,S,0,S,22,0.022867,0.778323,0.017798
3,17,3,4,0,0,1,,1,S,0,S,19,0.026733,0.776611,0.020761
3,18,2,5,0,0,1,,3,S,0,S,15,0.024423,0.766065,0.01871
3,19,4,2,0,0,1,,2,S,0,S,19,0.789208,0.012416,0.009799
3,20,8,5,0,0,1,,3,S,0,S,16,0.770776,0.02609,0.020109
3,21,3,8,0,0,1,,5,S,0,S,16,0.040817,0.751299,0.030666
3,22,1,4,0,0,1,,3,S,0,S,14,0.006357,0.784268,0.004986
3,23,8,2,0,0,1,,6,S,0,S,14,0.778956,0.012297,0.009579
3,24,3,5,0,0,1,,2,S,0,S,18,0.031548,0.769139,0.024265
3,25,5,9,0,0,1,,4,S,0,S,15,0.018504,0.773327,0.01431
3,26,1,9,0,0,1,,8,L,0,S,12,0.015191,0.75712,0.011502
3,27,1,8,0,0,1,,7,L,0,S,13,0.019241,0.760255,0.014628
3,28,6,5,0,0,1,,1,S,0,S,32,0.750787,0.051028,0.038311
3,29,4,3,0,0,1,,1,S,0,S,18,0.752904,0.040352,0.030381
3,30,6,1,0,0,1,,5,S,0,S,14,0.779872,0.01085,0.008462
3,31,9,4,0,0,1,,5,S,0,S,17,0.778635,0.020092,0.015645
3,32,8,6,0,0,1,,2,S,0,S,18,0.787403,0.015582,0.01227
3,33,5,2,0,0,1,,3,S,0,S,16,0.770497,0.02344,0.01806
3,34,5,1,0,0,1,,4,S,0,S,14,0.77409,0.013332,0.01032
3,35,6,4,0,0,1,,2,S,0,S,23,0.773874,0.0313,0.024222
3,36,2,6,0,0,1,,4,S,0,S,14,0.031793,0.750006,0.023845
3,37,1,3,0,0,1,,2,S,0,S,16,0.004841,0.794056,0.003844
3,38,3,7,0,0,1,,4,S,0,S,17,0.032992,0.762499,0.025157
3,39,9,5,0,0,1,,4,S,0,S,17,0.753786,0.039746,0.02996
3,40,6,7,0,0,1,,1,S,0,S,22,0.027159,0.775959,0.021074
3,41,1,5,0,0,1,,4,S,0,S,14,0.00013,0.792547,0.000103
3,42,2,7,0,0,1,,5,S,0,S,15,0.011115,0.780798,0.008678
3,43,9,8,0,0,1,,1,S,0,S,20,0.773072,0.027613,0.021346
3,44,1,6,0,0,1,,5,S,0,S,13,0.018437,0.760795,0.014027
3,45,7,3,0,0,1,,4,S,0,S,14,0.769395,0.019536,0.015031
3,46,7,6,0,0,1,,1,S,0,S,19,0.788751,0.015129,0.011933
3,47,4,7,0,0,1,,3,S,0,S,17,0.031601,0.759739,0.024008
3,48,9,2,0,0,1,,7,L,0,S,15,0.799728,0,0
3,49,1,2,0,0,1,,1,S,0,S,16,0.002529,0.796476,0.002015
3,50,6,2,0,0,1,,4,S,0,S,16,0.778462,0.019356,0.015068
3,51,2,4,0,0,1,,2,S,0,S,15,0.035337,0.751751,0.026564
3,52,5,8,0,0,1,,3,S,0,S,20,0.010674,0.793931,0.008475
3,53,5,3,0,0,1,,2,S,0,S,16,0.775908,0.019638,0.015238
3,54,6,8,0,0,1,,2,S,0,S,20,0.011371,0.795939,0.009051
3,55,3,1,0,0,1,,2,S,0,S,15,0.785646,0.010241,0.008046
3,56,7,4,0,0,1,,3,S,0,S,16,0.763882,0.030802,0.023529
3,57,4,6,0,0,1,,2,S,0,S,16,0.037169,0.7509,0.02791
3,58,5,4,0,0,1,,1,S,0,S,24,0.790587,0.015736,0.012441
3,59,2,3,0,0,1,,1,S,0,S,20,0.032334,0.766805,0.024794
3,60,6,9,0,0,1,,3,S,0,S,15,0.017577,0.777176,0.013661
3,61,3,6,0,0,1,,3,S,0,S,16,0.037882,0.754464,0.028581
3,62,7,8,0,0,0,,1,S,0,S,18,0.751449,0.043919,0.033003
3,63,7,9,0,0,1,,2,S,0,S,18,0.01634,0.786409,0.01285
3,64,4,5,0,0,1,,1,S,0,S,18,0.028586,0.768329,0.021964
3,65,9,6,0,0,1,,3,S,0,S,20,0.758058,0.039009,0.029571
3,66,4,9,0,0,1,,5,S,0,S,14,0.016378,0.769989,0.012611
3,67,4,8,0,0,1,,4,S,0,S,17,0.004249,0.796267,0.003383
3,68,8,9,0,0,1,,1,S,0,S,19,0.014293,0.791187,0.011309
3,69,4,1,0,0,1,,3,S,0,S,15,0.773605,0.016344,0.012644
3,70,7,2,0,0,1,,5,S,0,S,14,0.766129,0.021651,0.016588
3,71,1,7,0,0,1,,6,S,0,S,14,0,0.800127,0
3,72,2,9,0,0,1,,7,L,0,S,13,0.011361,0.771067,0.00876
4,1,9,5,0,0,1,,4,S,0,S,16,0.792841,0.010228,0.008109
4,2,1,5,0,0,1,,4,S,0,S,15,0.001633,0.796819,0.001301
4,3,6,3,0,0,1,,3,S,0,S,16,0.759904,0.030521,0.023193
4,4,6,4,0,0,1,,2,S,0,S,20,0.781451,0.019395,0.015156
4,5,9,7,0,0,1,,2,S,0,S,17,0.758827,0.036971,0.028055
4,6,2,5,0,0,1,,3,S,0,S,16,0.00754,0.797894,0.006016
4,7,3,1,0,0,1,,2,S,0,S,14,0.772048,0.015303,0.011815
4,8,9,4,0,0,1,,5,S,0,S,15,0.769043,0.022035,0.016946
4,9,1,4,0,0,1,,3,S,0,S,15,0.029277,0.756078,0.022135
4,10,8,9,0,0,1,,1,S,0,S,17,0.040379,0.755391,0.030502
4,11,5,9,0,0,1,,4,S,0,S,17,0.009069,0.790595,0.00717
4,12,5,6,0,0,1,,1,S,0,S,25,0.021506,0.780205,0.016779
4,13,9,6,0,0,1,,3,S,0,S,17,0.783083,0.016848,0.013193
4,14,7,5,0,0,1,,2,S,0,S,20,0.792263,0.016872,0.013367
4,15,1,2,0,0,1,,1,S,0,S,18,0.026802,0.76759,0.020573
4,16,3,7,0,0,1,,4,S,0,S,16,0.031933,0.759517,0.024254
4,17,2,3,0,0,1,,1,S,0,S,22,0.022488,0.782794,0.017604
4,18,2,4,0,0,1,,2,S,0,S,17,0.013175,0.788414,0.010388
4,19,4,7,0,0,1,,3,S,0,S,18,0.030574,0.770315,0.023552
4,20,4,2,0,0,1,,2,S,0,S,16,0.762968,0.030528,0.023292
4,21,1,7,0,0,1,,6,S,0,S,14,0.011662,0.776498,0.009056
4,22,8,6,0,0,1,,2,S,0,S,23,0.784057,0.021879,0.017154
4,23,8,3,0,0,1,,5,S,0,S,15,0.767468,0.023714,0.0182
4,24,7,6,0,0,1,,1,S,0,S,30,0.789051,0.018438,0.014548
4,25,3,2,0,0,1,,1,S,0,S,18,0.753482,0.038536,0.029036
4,26,4,8,0,0,1,,4,S,0,S,15,0.016551,0.780318,0.012915
4,27,2,1,0,0,1,,1,S,0,S,15,0.778707,0.017226,0.013414
4,28,7,8,0,0,1,,1,S,0,S,16,0.023078,0.774817,0.017881
4,29,6,9,0,0,1,,3,S,0,S,16,0.021422,0.774194,0.016585
4,30,5,1,0,0,1,,4,S,0,S,13,0.766413,0.014048,0.010767
4,31,1,6,0,0,1,,5,S,0,S,14,0.020042,0.764322,0.015318
4,32,5,8,0,0,1,,3,S,0,S,16,0.01474,0.781443,0.011519
4,33,4,3,0,0,1,,1,S,0,S,17,0.789859,0.011541,0.009116
4,34,2,6,0,0,1,,4,S,0,S,15,0.018243,0.776626,0.014168
4,35,4,5,0,0,1,,1,S,0,S,24,0.01945,0.792428,0.015413
4,36,7,3,0,0,1,,4,S,0,S,15,0.752576,0.034898,0.026263
4,37,8,5,0,0,1,,3,S,0,S,19,0.795033,0.014057,0.011176
4,38,6,5,0,0,1,,1,S,0,S,26,0.767239,0.037516,0.028783
4,39,5,4,0,0,1,,1,S,0,S,19,0.792647,0.007981,0.006326
4,40,5,7,0,0,1,,2,S,0,S,21,0.043965,0.75169,0.033048
4,41,9,8,0,0,0,,1,S,0,S,21,0.030023,0.77439,0.023249
4,42,6,7,0,0,1,,1,S,0,S,19,0.039168,0.757864,0.029684
4,43,3,8,0,0,1,,5,S,0,S,14,0.023186,0.763003,0.017691
4,44,8,7,0,0,1,,1,S,0,S,32,0.759217,0.044003,0.033408
4,45,7,2,0,0,1,,5,S,0,S,15,0.767532,0.023364,0.017933
4,46,4,6,0,0,1,,2,S,0,S,19,0.030694,0.770416,0.023647
4,47,8,2,0,0,1,,6,S,0,S,15,0.781011,0.013231,0.010334
4,48,6,2,0,0,1,,4,S,0,S,16,0.778729,0.015884,0.01237
4,49,9,1,0,0,1,,8,L,0,S,12,0.758416,0.016049,0.012172
4,50,7,4,0,0,1,,3,S,0,S,18,0.786254,0.015266,0.012003
4,51,6,8,0,0,1,,2,S,0,S,15,0.031953,0.757576,0.024207
4,52,3,6,0,0,1,,3,S,0,S,17,0.014918,0.782691,0.011676
4,53,2,7,0,0,1,,5,S,0,S,15,0.006993,0.792253,0.00554
4,54,2,8,0,0,1,,6,S,0,S,13,0.024686,0.758509,0.018725
4,55,9,2,0,0,1,,7,L,0,S,14,0.785563,0.005602,0.0044
4,56,5,3,0,0,1,,2,S,0,S,16,0.780308,0.013103,0.010225
4,57,4,1,0,0,1,,3,S,0,S,13,0.755468,0.025675,0.019397
4,58,6,1,0,0,1,,5,S,0,S,13,0.759813,0.020347,0.01546
4,59,7,9,0,0,1,,2,S,0,S,17,0.020351,0.78039,0.015882
4,60,4,9,0,0,1,,5,S,0,S,15,0.039089,0.750663,0.029343
4,61,2,9,0,0,1,,7,L,0,S,14,0.000841,0.795601,0.000669
4,62,1,8,0,0,1,,7,L,0,S,13,0.004724,0.780171,0.003686
4,63,1,3,0,0,1,,2,S,0,S,17,0.038191,0.750953,0.02868
4,64,3,4,0,0,1,,1,S,0,S,21,0.029182,0.768899,0.022438
4,65,8,1,0,0,1,,7,L,0,S,13,0.784943,0.003022,0.002372
4,66,3,5,0,0,1,,2,S,0,S,18,0.029666,0.770315,0.022852
4,67,1,9,0,0,1,,8,L,0,S,13,0.014641,0.766401,0.011221
4,68,7,1,0,0,1,,6,S,0,S,13,0.778255,0.007813,0.00608
4,69,3,9,0,0,1,,6,S,0,S,15,0.004106,0.791902,0.003251
4,70,5,2,0,0,1,,3,S,0,S,16,0.796264,0.000667,0.000531
4,71,8,4,0,0,1,,4,S,0,S,17,0.767137,0.02909,0.022316
4,72,9,3,0,0,1,,6,S,0,S,14,0.776432,0.012585,0.009771
5,1,4,5,0,0,1,,1,S,0,S,31,0.024459,0.783042,0.019152
5,2,2,3,0,0,1,,1,S,0,S,15,0.012643,0.780848,0.009873
5,3,6,1,0,0,1,,5,S,0,S,13,0.771943,0.012092,0.009335
5,4,7,2,0,0,1,,5,S,0,S,14,0.791048,0.004354,0.003444
5,5,6,4,0,0,1,,2,S,0,S,17,0.781697,0.018915,0.014786
5,6,3,5,0,0,1,,2,S,0,S,20,0.018915,0.786432,0.014876
5,7,7,4,0,0,1,,3,S,0,S,18,0.75015,0.048362,0.036278
5,8,7,1,0,0,1,,6,S,0,S,13,0.757323,0.025483,0.019299
5,9,4,1,0,0,1,,3,S,0,S,14,0.770052,0.018686,0.014389
5,10,9,3,0,0,1,,6,S,0,S,16,0.792963,0.005915,0.00469
5,11,4,8,0,0,1,,4,S,0,S,17,0.032808,0.766487,0.025147
5,12,8,5,0,0,1,,3,S,0,S,16,0.78134,0.015612,0.012198
5,13,8,6,0,0,1,,2,S,0,S,18,0.7921,0.009028,0.007151
5,14,3,9,0,0,1,,6,S,0,S,15,0.014866,0.778956,0.01158
5,15,6,7,0,0,1,,1,S,0,S,23,0.02636,0.777418,0.020493
5,16,1,3,0,0,1,,2,S,0,S,15,0.029148,0.757455,0.022078
5,17,3,6,0,0,1,,3,S,0,S,17,0.024154,0.7729,0.018669
5,18,9,5,0,0,1,,4,S,0,S,17,0.762613,0.034303,0.02616
5,19,8,2,0,0,1,,6,S,0,S,13,0.767048,0.01419,0.010884
5,20,3,8,0,0,1,,5,S,0,S,16,0.023148,0.775617,0.017954
5,21,8,9,0,0,1,,1,S,0,S,26,0.034053,0.766454,0.0261
5,22,9,4,0,0,1,,5,S,0,S,17,0.7514,0.043099,0.032385
5,23,4,7,0,0,1,,3,S,0,S,16,0.02898,0.76485,0.022165
5,24,6,3,0,0,1,,3,S,0,S,15,0.759954,0.028476,0.02164
5,25,1,2,0,0,1,,1,S,0,S,22,0.017983,0.785719,0.014129
5,26,2,9,0,0,1,,7,L,0,S,13,0,0.792187,0
5,27,6,9,0,0,1,,3,S,0,S,20,0.023919,0.778429,0.018619
5,28,6,5,0,0,1,,1,S,0,S,17,0.79068,0.011807,0.009336
5,29,8,3,0,0,1,,5,S,0,S,15,0.784683,0.007989,0.006269
5,30,5,4,0,0,1,,1,S,0,S,20,0.775441,0.02831,0.021952
5,31,3,7,0,0,1,,4,S,0,S,15,0.031205,0.757938,0.023652
5,32,7,9,0,0,1,,2,S,0,S,17,0.038825,0.758304,0.029442
5,33,2,5,0,0,1,,3,S,0,S,14,0.012272,0.779374,0.009564
5,34,9,8,0,0,1,,1,S,0,S,30,0.778783,0.029801,0.023209
5,35,3,1,0,0,1,,2,S,0,S,15,0.793295,0.004232,0.003358
5,36,2,7,0,0,1,,5,S,0,S,13,0.003513,0.783135,0.002751
5,37,9,1,0,0,1,,8,L,0,S,13,0.76458,0.017941,0.013717
5,38,2,8,0,0,1,,6,S,0,S,13,0.013637,0.772886,0.01054
5,39,4,3,0,0,1,,1,S,0,S,19,0.795478,0.008486,0.00675
5,40,7,5,0,0,1,,2,S,0,S,18,0.765985,0.03584,0.027453
5,41,4,2,0,0,1,,2,S,0,S,15,0.795317,0.002459,0.001956
5,42,5,2,0,0,1,,3,S,0,S,14,0.775781,0.01423,0.01104
5,43,1,8,0,0,1,,7,L,0,S,13,0.022444,0.759431,0.017045
5,44,7,6,0,0,1,,1,S,0,S,26,0.790639,0.018839,0.014895
5,45,1,4,0,0,1,,3,S,0,S,14,0.021341,0.765635,0.016339
5,46,5,6,0,0,1,,1,S,0,S,24,0.042799,0.757336,0.032413
5,47,1,6,0,0,1,,5,S,0,S,14,0.000535,0.790844,0.000423
5,48,7,8,0,0,1,,1,S,0,S,21,0.050204,0.754041,0.037856
5,49,2,1,0,0,0,,1,S,0,S,25,0.013266,0.795414,0.010552
5,50,1,9,0,0,1,,8,L,0,S,13,0.004086,0.780519,0.003189
5,51,3,2,0,0,1,,1,S,0,S,15,0.761805,0.028279,0.021543
5,52,5,7,0,0,1,,2,S,0,S,18,0.013481,0.789772,0.010647
5,53,5,3,0,0,1,,2,S,0,S,17,0.78943,0.010984,0.008671
5,54,6,2,0,0,1,,4,S,0,S,13,0.754208,0.025111,0.018939
5,55,1,7,0,0,1,,6,S,0,S,13,0.011483,0.770765,0.00885
5,56,6,8,0,0,0,,2,S,0,S,22,0.769435,0.035487,0.027305
5,57,2,4,0,0,1,,2,S,0,S,14,0.009578,0.78287,0.007499
5,58,1,5,0,0,1,,4,S,0,S,14,0.02433,0.761731,0.018533
5,59,8,7,0,0,1,,1,S,0,S,23,0.767402,0.032732,0.025118
5,60,8,4,0,0,1,,4,S,0,S,16,0.774524,0.020943,0.016221
5,61,2,6,0,0,1,,4,S,0,S,13,0.026365,0.7523,0.019834
5,62,9,7,0,0,0,,2,S,0,S,20,0.042898,0.755083,0.032391
5,63,5,1,0,0,1,,4,S,0,S,14,0.79713,0,0
5,64,9,6,0,0,1,,3,S,0,S,21,0.786137,0.018338,0.014416
5,65,4,6,0,0,1,,2,S,0,S,19,0.017838,0.784686,0.013998
5,66,5,9,0,0,1,,4,S,0,S,17,0.016765,0.783539,0.013136
5,67,8,1,0,0,1,,7,L,0,S,13,0.783106,0.002455,0.001923
5,68,9,2,0,0,1,,7,L,0,S,14,0.799244,0,0
5,69,4,9,0,0,1,,5,S,0,S,16,0.007685,0.791956,0.006086
5,70,3,4,0,0,1,,1,S,0,S,19,0.03842,0.760756,0.029228
5,71,5,8,0,0,1,,3,S,0,S,20,0.015966,0.792994,0.012661
5,72,7,3,0,0,1,,4,S,0,S,16,0.771635,0.024961,0.019261
6,1,4,2,0,0,1,,2,S,0,S,17,0.77733,0.021932,0.017049
6,2,8,9,0,0,1,,1,S,0,S,25,0.04665,0.75109,0.035038
6,3,2,6,0,0,1,,4,S,0,S,15,0.019633,0.777124,0.015258
6,4,3,6,0,0,1,,3,S,0,S,16,0.007801,0.793588,0.006191
6,5,7,9,0,0,1,,2,S,0,S,17,0.020668,0.780921,0.01614
6,6,6,4,0,0,1,,2,S,0,S,18,0.794538,0.009004,0.007154
6,7,8,2,0,0,1,,6,S,0,S,14,0.797882,0,0
6,8,2,4,0,0,1,,2,S,0,S,15,0.025739,0.76721,0.019748
6,9,6,3,0,0,1,,3,S,0,S,15,0.752055,0.03652,0.027465
6,10,7,1,0,0,1,,6,S,0,S,14,0.759117,0.029874,0.022678
6,11,9,7,0,0,1,,2,S,0,S,21,0.770278,0.034852,0.026846
6,12,8,6,0,0,1,,2,S,0,S,17,0.776425,0.022799,0.017702
6,13,5,9,0,0,1,,4,S,0,S,17,0.024675,0.77438,0.019108
6,14,6,5,0,0,1,,1,S,0,S,15,0.77211,0.021612,0.016687
6,15,4,5,0,0,1,,1,S,0,S,36,0.03999,0.763549,0.030534
6,16,7,8,0,0,1,,1,S,0,S,16,0.040973,0.751037,0.030772
6,17,1,8,0,0,1,,7,L,0,S,13,0.00811,0.77493,0.006285
6,18,7,3,0,0,1,,4,S,0,S,17,0.771063,0.029677,0.022883
6,19,7,4,0,0,1,,3,S,0,S,23,0.765906,0.038509,0.029494
6,20,9,8,0,0,0,,1,S,0,S,24,0.033939,0.769849,0.026128
6,21,8,7,0,0,1,,1,S,0,S,23,0.762932,0.038274,0.0292
6,22,8,5,0,0,1,,3,S,0,S,15,0.78819,0.008459,0.006667
6,23,8,3,0,0,1,,5,S,0,S,15,0.770539,0.021558,0.016611
6,24,3,4,0,0,1,,1,S,0,S,16,0.015153,0.782143,0.011852
6,25,1,7,0,0,1,,6,S,0,S,13,0.019466,0.762399,0.014841
6,26,6,1,0,0,1,,5,S,0,S,14,0.794401,0.000255,0.000202
6,27,1,5,0,0,1,,4,S,0,S,16,0.006535,0.794635,0.005193
6,28,2,1,0,0,1,,1,S,0,S,20,0.761939,0.040286,0.030696
6,29,2,7,0,0,1,,5,S,0,S,14,0.011105,0.78241,0.008689
6,30,7,5,0,0,1,,2,S,0,S,16,0.754269,0.041223,0.031093
6,31,9,5,0,0,1,,4,S,0,S,14,0.751939,0.035471,0.026672
6,32,3,5,0,0,1,,2,S,0,S,19,0.04318,0.755054,0.032603
6,33,4,9,0,0,1,,5,S,0,S,15,0.00452,0.791609,0.003578
6,34,9,3,0,0,1,,6,S,0,S,15,0.787317,0.011377,0.008958
6,35,3,8,0,0,1,,5,S,0,S,14,0.010406,0.778527,0.008102
6,36,6,8,0,0,1,,2,S,0,S,20,0.015844,0.786927,0.012468
6,37,5,8,0,0,1,,3,S,0,S,17,0.008412,0.79382,0.006678
6,38,6,7,0,0,1,,1,S,0,S,26,0.048416,0.752036,0.036411
6,39,4,1,0,0,1,,3,S,0,S,17,0.795101,0.007915,0.006293
6,40,9,4,0,0,1,,5,S,0,S,16,0.757459,0.036824,0.027892
6,41,3,1,0,0,1,,2,S,0,S,18,0.759737,0.037743,0.028674
6,42,3,9,0,0,1,,6,S,0,S,14,0.016351,0.771802,0.01262
6,43,2,9,0,0,1,,7,L,0,S,14,0.001737,0.792992,0.001377
6,44,8,4,0,0,1,,4,S,0,S,17,0.7815,0.017079,0.013348
6,45,9,6,0,0,1,,3,S,0,S,16,0.752921,0.042085,0.031687
6,46,2,3,0,0,1,,1,S,0,S,17,0.022849,0.778618,0.017791
6,47,1,9,0,0,1,,8,L,0,S,13,0.012203,0.770484,0.009402
6,48,4,8,0,0,1,,4,S,0,S,15,0,0.799875,0
6,49,2,5,0,0,1,,3,S,0,S,18,0.013886,0.792801,0.011009
6,50,8,1,0,0,1,,7,L,0,S,13,0.750563,0.028113,0.021101
6,51,7,2,0,0,1,,5,S,0,S,14,0.750369,0.036569,0.02744
6,52,4,3,0,0,0,,1,S,0,S,22,0.041769,0.758444,0.031679
6,53,1,6,0,0,1,,5,S,0,S,14,0.01636,0.773779,0.012659
6,54,9,1,0,0,1,,8,L,0,S,13,0.762109,0.022036,0.016794
6,55,4,7,0,0,1,,3,S,0,S,15,0.017985,0.775929,0.013955
6,56,3,2,0,0,1,,1,S,0,S,19,0.774867,0.026984,0.020909
6,57,6,2,0,0,1,,4,S,0,S,14,0.787928,0.005205,0.004101
6,58,9,2,0,0,1,,7,L,0,S,13,0.756226,0.026469,0.020017
6,59,5,2,0,0,1,,3,S,0,S,15,0.800913,0.000173,0.000139
6,60,5,7,0,0,1,,2,S,0,S,18,0.022288,0.781261,0.017413
6,61,6,9,0,0,1,,3,S,0,S,21,0.028071,0.773646,0.021717
6,62,1,4,0,0,1,,3,S,0,S,14,0.020813,0.765967,0.015942
6,63,5,3,0,0,1,,2,S,0,S,17,0.771099,0.02848,0.021961
6,64,5,4,0,0,1,,1,S,0,S,23,0.780566,0.025487,0.019895
6,65,7,6,0,0,1,,1,S,0,S,25,0.774311,0.034192,0.026476
6,66,1,2,0,0,1,,1,S,0,S,19,0.032736,0.76721,0.025115
6,67,3,7,0,0,1,,4,S,0,S,14,0.027167,0.759311,0.020628
6,68,5,1,0,0,1,,4,S,0,S,14,0.757974,0.029694,0.022508
6,69,1,3,0,0,1,,2,S,0,S,15,0.028246,0.762371,0.021534
6,70,2,8,0,0,1,,6,S,0,S,14,0,0.798728,0
6,71,4,6,0,0,1,,2,S,0,S,17,0.017355,0.78391,0.013605
6,72,5,6,0,0,0,,1,S,0,S,24,0.756341,0.047077,0.035606
7,1,3,2,0,0,1,,1,S,0,S,17,0.792554,0.008779,0.006958
7,2,8,2,0,0,1,,6,S,0,S,13,0.755665,0.021699,0.016397
7,3,9,5,0,0,1,,4,S,0,S,17,0.793846,0.00813,0.006454
7,4,7,3,0,0,1,,4,S,0,S,15,0.782492,0.013132,0.010276
7,5,3,6,0,0,1,,3,S,0,S,17,0.022414,0.776736,0.01741
7,6,8,3,0,0,1,,5,S,0,S,14,0.754274,0.030621,0.023097
7,7,6,4,0,0,1,,2,S,0,S,17,0.784648,0.015928,0.012498
7,8,3,9,0,0,1,,6,S,0,S,14,0.016814,0.772014,0.01298
7,9,5,7,0,0,1,,2,S,0,S,18,0.042609,0.756717,0.032243
7,10,4,7,0,0,1,,3,S,0,S,16,0.011552,0.788983,0.009114
7,11,4,5,0,0,1,,1,S,0,S,19,0.024096,0.77644,0.018709
7,12,3,7,0,0,1,,4,S,0,S,16,0.011376,0.789918,0.008986
7,13,5,1,0,0,1,,4,S,0,S,14,0.778362,0.013679,0.010647
7,14,5,4,0,0,1,,1,S,0,S,19,0.776484,0.027265,0.021171
7,15,5,8,0,0,1,,3,S,0,S,17,0.009148,0.79618,0.007283
7,16,1,7,0,0,1,,6,S,0,S,14,0,0.795524,0
7,17,6,5,0,0,1,,1,S,0,S,18,0.785507,0.01542,0.012112
7,18,2,9,0,0,1,,7,L,0,S,14,0.005711,0.787733,0.004499
7,19,6,1,0,0,1,,5,S,0,S,14,0.802498,0,0
7,20,6,3,0,0,1,,3,S,0,S,16,0.782041,0.01723,0.013474
7,21,9,8,0,0,0,,1,S,0,S,22,0.022008,0.784918,0.017274
7,22,2,8,0,0,1,,6,S,0,S,14,0.035406,0.750956,0.026589
7,23,4,8,0,0,1,,4,S,0,S,15,0.014009,0.781669,0.01095
7,24,1,5,0,0,1,,4,S,0,S,15,0.006693,0.78689,0.005267
7,25,5,2,0,0,1,,3,S,0,S,15,0.783165,0.012321,0.009649
7,26,7,1,0,0,1,,6,S,0,S,13,0.772829,0.010508,0.008121
7,27,8,9,0,0,1,,1,S,0,S,21,0.032264,0.766193,0.024721
7,28,3,8,0,0,1,,5,S,0,S,15,0.013812,0.782618,0.01081
7,29,5,6,0,0,1,,1,S,0,S,23,0.027019,0.77916,0.021052
7,30,2,3,0,0,1,,1,S,0,S,22,0.029267,0.778687,0.02279
7,31,4,1,0,0,1,,3,S,0,S,15,0.76594,0.025584,0.019596
7,32,5,3,0,0,1,,2,S,0,S,17,0.761036,0.03796,0.028889
7,33,1,4,0,0,1,,3,S,0,S,15,0.020596,0.770604,0.015871
7,34,6,2,0,0,1,,4,S,0,S,14,0.764481,0.021209,0.016214
7,35,1,6,0,0,1,,5,S,0,S,14,0.018803,0.767326,0.014428
7,36,2,1,0,0,1,,1,S,0,S,16,0.798442,0.004614,0.003684
7,37,7,2,0,0,1,,5,S,0,S,14,0.793736,0,0
7,38,6,9,0,0,1,,3,S,0,S,16,0.037792,0.752524,0.028439
7,39,8,6,0,0,1,,2,S,0,S,16,0.757437,0.03304,0.025026
7,40,2,4,0,0,1,,2,S,0,S,19,0.024035,0.780579,0.018761
7,41,9,3,0,0,1,,6,S,0,S,15,0.766932,0.026937,0.020659
7,42,2,5,0,0,1,,3,S,0,S,18,0.015036,0.788528,0.011856
7,43,8,7,0,0,1,,1,S,0,S,18,0.78873,0.01376,0.010853
7,44,9,1,0,0,1,,8,L,0,S,13,0.766218,0.017014,0.013036
7,45,2,6,0,0,1,,4,S,0,S,16,0.031488,0.763767,0.024049
7,46,7,6,0,0,1,,1,S,0,S,17,0.758778,0.034678,0.026313
7,47,1,8,0,0,1,,7,L,0,S,13,0.017447,0.763866,0.013327
7,48,5,9,0,0,1,,4,S,0,S,15,0.026969,0.765098,0.020634
7,49,7,5,0,0,1,,2,S,0,S,16,0.769975,0.02301,0.017717
7,50,8,1,0,0,1,,7,L,0,S,13,0.785109,0.00086,0.000675
7,51,9,2,0,0,1,,7,L,0,S,14,0.785378,0.005985,0.004701
7,52,3,1,0,0,1,,2,S,0,S,15,0.767857,0.024653,0.01893
7,53,2,7,0,0,1,,5,S,0,S,15,0.028466,0.765701,0.021796
7,54,1,3,0,0,1,,2,S,0,S,16,0.006852,0.793522,0.005437
7,55,9,7,0,0,1,,2,S,0,S,22,0.79221,0.016631,0.013175
7,56,3,4,0,0,1,,1,S,0,S,21,0.024562,0.78049,0.01917
7,57,1,9,0,0,1,,8,L,0,S,13,0,0.786798,0
7,58,9,4,0,0,1,,5,S,0,S,16,0.780412,0.017973,0.014027
7,59,1,2,0,0,1,,1,S,0,S,20,0.029313,0.768208,0.022519
7,60,9,6,0,0,1,,3,S,0,S,18,0.766065,0.032489,0.024889
7,61,6,8,0,0,1,,2,S,0,S,19,0.022155,0.780936,0.017301
7,62,7,9,0,0,1,,2,S,0,S,19,0.009878,0.793053,0.007833
7,63,8,5,0,0,1,,3,S,0,S,15,0.753251,0.032626,0.024575
7,64,4,9,0,0,1,,5,S,0,S,14,0.017014,0.771071,0.013119
7,65,7,8,0,0,0,,1,S,0,S,39,0.771895,0.031974,0.02468
7,66,4,3,0,0,1,,1,S,0,S,31,0.773847,0.03278,0.025367
7,67,7,4,0,0,1,,3,S,0,S,15,0.750073,0.036887,0.027668
7,68,4,6,0,0,1,,2,S,0,S,17,0.022506,0.775873,0.017462
7,69,4,2,0,0,1,,2,S,0,S,17,0.790123,0.010124,0.007999
7,70,6,7,0,0,1,,1,S,0,S,25,0.041266,0.76147,0.031423
7,71,3,5,0,0,1,,2,S,0,S,19,0.024321,0.77693,0.018895
7,72,8,4,0,0,1,,4,S,0,S,15,0.778353,0.014577,0.011346
8,1,4,8,0,0,1,,4,S,0,S,15,0.016221,0.779784,0.012649
8,2,8,1,0,0,1,,7,L,0,S,13,0.771781,0.013445,0.010376
8,3,3,4,0,0,1,,1,S,0,S,19,0.040521,0.758508,0.030736
8,4,5,2,0,0,1,,3,S,0,S,16,0.775711,0.019738,0.015311
8,5,7,1,0,0,1,,6,S,0,S,13,0.77601,0.008705,0.006755
8,6,6,1,0,0,1,,5,S,0,S,13,0.768908,0.013527,0.010401
8,7,6,2,0,0,1,,4,S,0,S,14,0.790805,0.000836,0.000661
8,8,8,4,0,0,1,,4,S,0,S,17,0.759924,0.038265,0.029079
8,9,9,5,0,0,1,,4,S,0,S,16,0.795061,0.006286,0.004997
8,10,7,6,0,0,1,,1,S,0,S,26,0.767791,0.036067,0.027692
8,11,6,9,0,0,0,,3,S,0,S,33,0.770357,0.03444,0.026531
8,12,6,7,0,0,1,,1,S,0,S,22,0.011793,0.794455,0.009369
8,13,3,2,0,0,1,,1,S,0,S,16,0.795906,0.003657,0.00291
8,14,5,8,0,0,1,,3,S,0,S,15,0.015511,0.779509,0.012091
8,15,3,7,0,0,1,,4,S,0,S,15,0.034357,0.754083,0.025908
8,16,3,1,0,0,1,,2,S,0,S,15,0.800057,0,0
8,17,4,2,0,0,1,,2,S,0,S,16,0.781217,0.016391,0.012805
8,18,1,9,0,0,1,,8,L,0,S,13,0.006483,0.78052,0.00506
8,19,2,1,0,0,1,,1,S,0,S,16,0.767449,0.027023,0.020739
8,20,2,6,0,0,1,,4,S,0,S,14,0.025334,0.762172,0.019309
8,21,4,7,0,0,1,,3,S,0,S,15,0.020848,0.773071,0.016117
8,22,9,8,0,0,1,,1,S,0,S,24,0.785194,0.021813,0.017127
8,23,2,7,0,0,1,,5,S,0,S,14,0.01693,0.771923,0.013069
8,24,8,9,0,0,1,,1,S,0,S,28,0.039627,0.767123,0.030398
8,25,9,1,0,0,1,,8,L,0,S,13,0.789286,0,0
8,26,3,9,0,0,1,,6,S,0,S,16,0.018556,0.780225,0.014478
8,27,5,6,0,0,1,,1,S,0,S,15,0.032334,0.758308,0.024519
8,28,1,6,0,0,1,,5,S,0,S,13,0.004389,0.782584,0.003435
8,29,9,6,0,0,1,,3,S,0,S,20,0.771334,0.031444,0.024254
8,30,7,4,0,0,1,,3,S,0,S,17,0.785076,0.016535,0.012982
8,31,2,8,0,0,1,,6,S,0,S,14,0.013609,0.77699,0.010574
8,32,2,9,0,0,1,,7,L,0,S,14,0.029066,0.758079,0.022035
8,33,6,8,0,0,1,,2,S,0,S,21,0.019584,0.785007,0.015373
8,34,5,9,0,0,1,,4,S,0,S,15,0.037961,0.751851,0.028541
8,35,7,5,0,0,1,,2,S,0,S,16,0.757378,0.035349,0.026773
8,36,9,7,0,0,1,,2,S,0,S,22,0.751466,0.04737,0.035597
8,37,1,5,0,0,1,,4,S,0,S,14,0.009606,0.781603,0.007508
8,38,7,8,0,0,1,,1,S,0,S,23,0.017456,0.7896,0.013783
8,39,4,9,0,0,1,,5,S,0,S,15,0.039025,0.751719,0.029336
8,40,5,3,0,0,1,,2,S,0,S,21,0.777917,0.027874,0.021684
8,41,5,4,0,0,0,,1,S,0,S,18,0.032621,0.767225,0.025027
8,42,9,3,0,0,1,,6,S,0,S,14,0.762786,0.026124,0.019927
8,43,5,7,0,0,1,,2,S,0,S,15,0.02009,0.772845,0.015527
8,44,3,5,0,0,1,,2,S,0,S,21,0.023159,0.781405,0.018097
8,45,2,4,0,0,1,,2,S,0,S,16,0.016646,0.782443,0.013025
8,46,6,5,0,0,1,,1,S,0,S,17,0.784956,0.015258,0.011977
8,47,4,5,0,0,1,,1,S,0,S,19,0.037444,0.763096,0.028573
8,48,1,7,0,0,1,,6,S,0,S,13,0,0.787958,0
8,49,8,7,0,0,0,,1,S,0,S,21,0.022867,0.783398,0.017914
8,50,6,4,0,0,1,,2,S,0,S,17,0.760424,0.035315,0.026855
8,51,8,5,0,0,1,,3,S,0,S,17,0.785619,0.017219,0.013527
8,52,8,3,0,0,1,,5,S,0,S,15,0.7804,0.017655,0.013778
8,53,6,3,0,0,1,,3,S,0,S,15,0.778152,0.017081,0.013291
8,54,1,3,0,0,1,,2,S,0,S,15,0.014187,0.782285,0.011098
8,55,7,3,0,0,1,,4,S,0,S,15,0.790755,0.007847,0.006205
8,56,7,9,0,0,0,,2,S,0,S,23,0.760979,0.041541,0.031612
8,57,4,1,0,0,1,,3,S,0,S,15,0.790455,0.007255,0.005735
8,58,3,6,0,0,1,,3,S,0,S,16,0.012179,0.78754,0.009591
8,59,1,2,0,0,1,,1,S,0,S,18,0.013996,0.786912,0.011014
8,60,2,5,0,0,1,,3,S,0,S,16,0.033075,0.760543,0.025155
8,61,5,1,0,0,1,,4,S,0,S,15,0.786182,0.009672,0.007604
8,62,9,2,0,0,1,,7,L,0,S,13,0.761957,0.018912,0.014411
8,63,1,8,0,0,1,,7,L,0,S,13,0,0.791413,0
8,64,4,6,0,0,1,,2,S,0,S,15,0.033293,0.758301,0.025246
8,65,8,2,0,0,1,,6,S,0,S,14,0.793758,0.000719,0.000571
8,66,9,4,0,0,1,,5,S,0,S,16,0.779174,0.019493,0.015188
8,67,7,2,0,0,1,,5,S,0,S,14,0.799159,0,0
8,68,1,4,0,0,1,,3,S,0,S,14,0.002093,0.792202,0.001658
8,69,4,3,0,0,1,,1,S,0,S,21,0.794804,0.015347,0.012198
8,70,2,3,0,0,1,,1,S,0,S,20,0.018534,0.788553,0.014615
8,71,3,8,0,0,1,,5,S,0,S,15,0.029219,0.761522,0.022251
8,72,8,6,0,0,0,,2,S,0,S,24,0.033212,0.77343,0.025687
9,1,2,1,0,0,1,,1,S,0,S,20,0.768842,0.036501,0.028063
9,2,4,5,0,0,1,,1,S,0,S,22,0.014554,0.793471,0.011548
9,3,1,6,0,0,1,,5,S,0,S,15,0.022433,0.769375,0.017259
9,4,8,7,0,0,1,,1,S,0,S,15,0.780292,0.013459,0.010502
9,5,3,8,0,0,1,,5,S,0,S,14,0.023078,0.767163,0.017704
9,6,6,1,0,0,1,,5,S,0,S,16,0.799084,0.004734,0.003783
9,7,2,5,0,0,1,,3,S,0,S,18,0.013801,0.793651,0.010953
9,8,1,7,0,0,1,,6,S,0,S,14,0.032109,0.751353,0.024125
9,9,5,4,0,0,1,,1,S,0,S,26,0.793175,0.01354,0.01074
9,10,8,2,0,0,1,,6,S,0,S,13,0.772197,0.012744,0.009841
9,11,1,5,0,0,1,,4,S,0,S,16,0.002309,0.799495,0.001846
9,12,2,3,0,0,1,,1,S,0,S,21,0.0152,0.796147,0.012101
9,13,8,3,0,0,1,,5,S,0,S,14,0.80254,0,0
9,14,7,2,0,0,1,,5,S,0,S,14,0.770211,0.019204,0.014791
9,15,6,8,0,0,1,,2,S,0,S,15,0.035442,0.754927,0.026756
9,16,4,6,0,0,1,,2,S,0,S,19,0.042092,0.755385,0.031796
9,17,9,1,0,0,1,,8,L,0,S,13,0.761843,0.022756,0.017336
9,18,1,3,0,0,1,,2,S,0,S,17,0.007238,0.79649,0.005765
9,19,5,8,0,0,1,,3,S,0,S,15,0.017802,0.7765,0.013823
9,20,5,7,0,0,1,,2,S,0,S,19,0.025631,0.775812,0.019885
9,21,4,3,0,0,1,,1,S,0,S,22,0.767562,0.035904,0.027559
9,22,7,3,0,0,1,,4,S,0,S,15,0.787594,0.009119,0.007182
9,23,4,2,0,0,1,,2,S,0,S,18,0.770815,0.030297,0.023354
9,24,2,9,0,0,1,,7,L,0,S,15,0.006744,0.79485,0.005361
9,25,3,9,0,0,1,,6,S,0,S,15,0.032994,0.760752,0.025101
9,26,5,2,0,0,1,,3,S,0,S,17,0.791612,0.012222,0.009675
9,27,8,5,0,0,1,,3,S,0,S,14,0.777215,0.013036,0.010132
9,28,3,6,0,0,1,,3,S,0,S,18,0.043705,0.754598,0.03298
9,29,1,9,0,0,1,,8,L,0,S,14,0.0051,0.788491,0.004021
9,30,7,9,0,0,0,,2,S,0,S,21,0.790208,0.016435,0.012987
9,31,5,6,0,0,1,,1,S,0,S,25,0.024214,0.781784,0.01893
9,32,9,2,0,0,1,,7,L,0,S,13,0.75334,0.029537,0.022251
9,33,5,1,0,0,1,,4,S,0,S,16,0.767103,0.028989,0.022237
9,34,6,9,0,0,1,,3,S,0,S,17,0.042568,0.754007,0.032097
9,35,7,1,0,0,1,,6,S,0,S,14,0.78064,0.010864,0.008481
9,36,9,3,0,0,1,,6,S,0,S,14,0.780405,0.01361,0.010622
9,37,7,8,0,0,1,,1,S,0,S,20,0.015757,0.788872,0.01243
9,38,6,4,0,0,1,,2,S,0,S,20,0.750236,0.046632,0.034985
9,39,7,6,0,0,1,,1,S,0,S,16,0.769416,0.025026,0.019255
9,40,8,1,0,0,1,,7,L,0,S,13,0.779319,0.00705,0.005494
9,41,4,1,0,0,1,,3,S,0,S,17,0.759465,0.037167,0.028227
9,42,9,6,0,0,1,,3,S,0,S,15,0.781786,0.01533,0.011985
9,43,8,6,0,0,1,,2,S,0,S,14,0.761667,0.024364,0.018557
9,44,7,4,0,0,1,,3,S,0,S,16,0.785691,0.010861,0.008534
9,45,9,7,0,0,1,,2,S,0,S,16,0.788884,0.012312,0.009712
9,46,4,7,0,0,1,,3,S,0,S,17,0.032299,0.763602,0.024663
9,47,8,4,0,0,1,,4,S,0,S,14,0.769829,0.01679,0.012925
9,48,1,8,0,0,1,,7,L,0,S,13,0.013212,0.770324,0.010177
9,49,2,4,0,0,1,,2,S,0,S,18,0.009714,0.796067,0.007733
9,50,9,4,0,0,1,,5,S,0,S,15,0.792525,0.005582,0.004423
9,51,3,5,0,0,1,,2,S,0,S,20,0.028039,0.778053,0.021816
9,52,3,7,0,0,1,,4,S,0,S,17,0.012643,0.791249,0.010004
9,53,6,5,0,0,1,,1,S,0,S,20,0.778161,0.026747,0.020814
9,54,1,2,0,0,1,,1,S,0,S,18,0.039244,0.758699,0.029774
9,55,2,8,0,0,1,,6,S,0,S,14,0.005055,0.791011,0.003998
9,56,4,9,0,0,1,,5,S,0,S,16,0.009512,0.791859,0.007532
9,57,2,6,0,0,1,,4,S,0,S,17,0.018972,0.784263,0.014879
9,58,6,2,0,0,1,,4,S,0,S,16,0.779803,0.020302,0.015832
9,59,7,5,0,0,1,,2,S,0,S,16,0.795948,0.004853,0.003863
9,60,3,4,0,0,1,,1,S,0,S,20,0.017784,0.788033,0.014014
9,61,2,7,0,0,1,,5,S,0,S,16,0.010545,0.791724,0.008349
9,62,1,4,0,0,1,,3,S,0,S,16,0.001168,0.798378,0.000933
9,63,9,5,0,0,1,,4,S,0,S,15,0.800771,0.001068,0.000855
9,64,5,9,0,0,1,,4,S,0,S,17,0.009587,0.794542,0.007617
9,65,5,3,0,0,1,,2,S,0,S,19,0.792075,0.014227,0.011269
9,66,4,8,0,0,1,,4,S,0,S,14,0.031764,0.753276,0.023927
9,67,8,9,0,0,0,,1,S,0,S,16,0.7833,0.015474,0.012121
9,68,3,2,0,0,1,,1,S,0,S,19,0.790886,0.017789,0.014069
9,69,6,7,0,0,1,,1,S,0,S,21,0.034691,0.767756,0.026635
9,70,9,8,0,0,1,,1,S,0,S,24,0.767183,0.038258,0.029351
9,71,6,3,0,0,1,,3,S,0,S,17,0.757925,0.039357,0.02983
9,72,3,1,0,0,1,,2,S,0,S,18,0.787907,0.01854,0.014608
10,1,1,5,0,0,1,,4,S,0,S,15,0.00179,0.794496,0.001422
10,2,2,6,0,0,1,,4,S,0,S,16,0.000148,0.79774,0.000118
10,3,4,1,0,0,1,,3,S,0,S,15,0.751313,0.035863,0.026945
10,4,7,2,0,0,1,,5,S,0,S,16,0.796335,0.004893,0.003897
10,5,4,6,0,0,1,,2,S,0,S,19,0.038535,0.755164,0.0291
10,6,8,2,0,0,1,,6,S,0,S,14,0.762312,0.025246,0.019245
10,7,8,3,0,0,1,,5,S,0,S,15,0.763878,0.028697,0.021921
10,8,7,4,0,0,1,,3,S,0,S,16,0.780096,0.019906,0.015529
10,9,1,7,0,0,1,,6,S,0,S,13,0.012553,0.771873,0.009689
10,10,3,8,0,0,1,,5,S,0,S,15,0.000259,0.79847,0.000206
10,11,9,7,0,0,1,,2,S,0,S,34,0.784544,0.020944,0.016431
10,12,7,5,0,0,1,,2,S,0,S,19,0.79304,0.010835,0.008592
10,13,5,9,0,0,1,,4,S,0,S,16,0.039125,0.751263,0.029393
10,14,7,3,0,0,1,,4,S,0,S,17,0.757947,0.038052,0.028841
10,15,2,5,0,0,1,,3,S,0,S,16,0.028357,0.760951,0.021578
10,16,1,2,0,0,1,,1,S,0,S,16,0.031423,0.761795,0.023938
10,17,1,3,0,0,1,,2,S,0,S,15,0.01419,0.781183,0.011085
10,18,5,1,0,0,1,,4,S,0,S,15,0.774446,0.017418,0.01349
10,19,1,8,0,0,1,,7,L,0,S,13,0.013483,0.772032,0.010409
10,20,4,2,0,0,1,,2,S,0,S,18,0.769943,0.026723,0.020575
10,21,2,9,0,0,1,,7,L,0,S,14,0.014693,0.77463,0.011382
10,22,6,1,0,0,1,,5,S,0,S,14,0.80156,0,0
10,23,5,2,0,0,1,,3,S,0,S,17,0.770519,0.024059,0.018538
10,24,4,3,0,0,1,,1,S,0,S,26,0.761753,0.038412,0.029261
10,25,3,6,0,0,1,,3,S,0,S,17,0.009679,0.788914,0.007636
10,26,6,8,0,0,1,,2,S,0,S,25,0.019814,0.788494,0.015623
10,27,5,6,0,0,1,,1,S,0,S,22,0.029884,0.767875,0.022947
10,28,9,1,0,0,1,,8,L,0,S,13,0.753848,0.025333,0.019097
10,29,2,8,0,0,1,,6,S,0,S,14,0.011028,0.779111,0.008592
10,30,5,4,0,0,1,,1,S,0,S,18,0.789013,0.013389,0.010564
10,31,8,6,0,0,1,,2,S,0,S,17,0.791585,0.010323,0.008171
10,32,7,9,0,0,1,,2,S,0,S,18,0.035545,0.765168,0.027198
10,33,8,1,0,0,1,,7,L,0,S,13,0.760137,0.022948,0.017444
10,34,5,7,0,0,1,,2,S,0,S,16,0.027166,0.7647,0.020774
10,35,3,4,0,0,1,,1,S,0,S,25,0.031128,0.773405,0.024075
10,36,4,5,0,0,1,,1,S,0,S,23,0.032282,0.765512,0.024713
10,37,8,7,0,0,1,,1,S,0,S,29,0.766188,0.038653,0.029615
10,38,1,6,0,0,1,,5,S,0,S,14,0.01981,0.766939,0.015193
10,39,7,8,0,0,1,,1,S,0,S,18,0.02043,0.783866,0.016015
10,40,4,9,0,0,1,,5,S,0,S,16,0.012633,0.785953,0.009929
10,41,9,3,0,0,1,,6,S,0,S,15,0.755251,0.03273,0.024719
10,42,5,3,0,0,1,,2,S,0,S,21,0.787675,0.015533,0.012235
10,43,6,9,0,0,1,,3,S,0,S,32,0.017061,0.792915,0.013528
10,44,6,5,0,0,1,,1,S,0,S,16,0.758104,0.032334,0.024512
10,45,3,9,0,0,1,,6,S,0,S,15,0.004847,0.792887,0.003843
10,46,3,5,0,0,1,,2,S,0,S,18,0.018132,0.779523,0.014134
10,47,7,1,0,0,1,,6,S,0,S,14,0.768299,0.02136,0.016411
10,48,2,1,0,0,1,,1,S,0,S,19,0.750792,0.044233,0.03321
10,49,5,8,0,0,1,,3,S,0,S,16,0.03065,0.761827,0.02335
10,50,9,5,0,0,1,,4,S,0,S,16,0.774016,0.018877,0.014611
10,51,2,3,0,0,1,,1,S,0,S,17,0.015366,0.783097,0.012033
10,52,6,4,0,0,1,,2,S,0,S,15,0.787707,0.010019,0.007892
10,53,6,2,0,0,1,,4,S,0,S,15,0.797578,0.000207,0.000165
10,54,3,1,0,0,1,,2,S,0,S,17,0.774686,0.023206,0.017978
10,55,9,2,0,0,1,,7,L,0,S,14,0.754893,0.0284,0.021439
10,56,6,7,0,0,1,,1,S,0,S,23,0.042833,0.757396,0.032442
10,57,8,4,0,0,1,,4,S,0,S,14,0.753015,0.03451,0.025986
10,58,3,2,0,0,1,,1,S,0,S,25,0.794592,0.011514,0.009149
10,59,4,7,0,0,1,,3,S,0,S,16,0.003341,0.79594,0.002659
10,60,1,4,0,0,1,,3,S,0,S,16,0.010017,0.79196,0.007933
10,61,7,6,0,0,1,,1,S,0,S,21,0.763939,0.036087,0.027568
10,62,2,4,0,0,1,,2,S,0,S,19,0.011346,0.793541,0.009003
10,63,2,7,0,0,1,,5,S,0,S,14,0.009748,0.779333,0.007597
10,64,6,3,0,0,1,,3,S,0,S,16,0.792126,0.007919,0.006273
10,65,9,6,0,0,1,,3,S,0,S,17,0.780859,0.016041,0.012526
10,66,9,4,0,0,1,,5,S,0,S,15,0.797038,0.001732,0.00138
10,67,4,8,0,0,1,,4,S,0,S,16,0.005937,0.794161,0.004715
10,68,9,8,0,0,1,,1,S,0,S,27,0.792001,0.016039,0.012703
10,69,8,5,0,0,1,,3,S,0,S,16,0.78352,0.014131,0.011072
10,70,1,9,0,0,1,,8,L,0,S,13,0.016199,0.768737,0.012452
10,71,3,7,0,0,1,,4,S,0,S,15,0,0.799125,0
10,72,8,9,0,0,0,,1,S,0,S,23,0.785173,0.024076,0.018904
11,1,9,7,0,0,1,,2,S,0,S,24,0.789119,0.016153,0.012747
11,2,5,8,0,0,1,,3,S,0,S,17,0.015333,0.78343,0.012013
11,3,2,7,0,0,1,,5,S,0,S,14,0.015944,0.773578,0.012334
11,4,3,8,0,0,1,,5,S,0,S,16,0.015329,0.785074,0.012035
11,5,8,4,0,0,1,,4,S,0,S,15,0.756669,0.035365,0.02676
11,6,8,2,0,0,1,,6,S,0,S,13,0.766498,0.018132,0.013898
11,7,6,3,0,0,1,,3,S,0,S,15,0.750229,0.035559,0.026677
11,8,1,5,0,0,1,,4,S,0,S,14,0.003048,0.786842,0.002398
11,9,1,9,0,0,1,,8,L,0,S,13,0,0.797232,0
11,10,4,9,0,0,1,,5,S,0,S,14,0.012521,0.775958,0.009716
11,11,9,8,0,0,1,,1,S,0,S,28,0.782268,0.024185,0.018919
11,12,5,7,0,0,1,,2,S,0,S,17,0.030213,0.762184,0.023028
11,13,4,5,0,0,1,,1,S,0,S,17,0.006642,0.794936,0.00528
11,14,2,6,0,0,1,,4,S,0,S,15,0.008163,0.787507,0.006428
11,15,6,5,0,0,1,,1,S,0,S,20,0.756697,0.040028,0.030289
11,16,7,8,0,0,1,,1,S,0,S,20,0.015785,0.791764,0.012498
11,17,1,3,0,0,1,,2,S,0,S,16,0.001054,0.796661,0.000839
11,18,1,6,0,0,1,,5,S,0,S,14,0.004204,0.783903,0.003295
11,19,7,5,0,0,1,,2,S,0,S,22,0.753465,0.046188,0.034801
11,20,5,1,0,0,1,,4,S,0,S,15,0.773489,0.017927,0.013866
11,21,5,3,0,0,1,,2,S,0,S,18,0.782562,0.01572,0.012302
11,22,7,2,0,0,1,,5,S,0,S,14,0.777568,0.014001,0.010887
11,23,1,4,0,0,1,,3,S,0,S,14,0.028933,0.754672,0.021835
11,24,1,7,0,0,1,,6,S,0,S,13,0.019554,0.758244,0.014827
11,25,9,5,0,0,1,,4,S,0,S,18,0.757174,0.038096,0.028845
11,26,4,7,0,0,1,,3,S,0,S,15,0.033026,0.754241,0.02491
11,27,4,8,0,0,1,,4,S,0,S,15,0.02401,0.768099,0.018442
11,28,2,8,0,0,1,,6,S,0,S,14,0.009959,0.783391,0.007802
11,29,6,4,0,0,1,,2,S,0,S,17,0.771112,0.026394,0.020353
11,30,4,3,0,0,1,,1,S,0,S,24,0.759669,0.0396,0.030083
11,31,3,9,0,0,1,,6,S,0,S,14,0.029441,0.755925,0.022255
11,32,9,3,0,0,1,,6,S,0,S,15,0.777563,0.015031,0.011687
11,33,3,4,0,0,1,,1,S,0,S,23,0.019693,0.789305,0.015544
11,34,9,2,0,0,1,,7,L,0,S,14,0.799833,0,0
11,35,4,2,0,0,1,,2,S,0,S,16,0.761183,0.031944,0.024315
11,36,7,1,0,0,1,,6,S,0,S,14,0.775048,0.01601,0.012408
11,37,1,2,0,0,1,,1,S,0,S,19,0.033029,0.763887,0.02523
11,38,2,1,0,0,1,,1,S,0,S,21,0.782739,0.023525,0.018414
11,39,7,4,0,0,1,,3,S,0,S,18,0.793234,0.012652,0.010036
11,40,3,2,0,0,1,,1,S,0,S,15,0.75737,0.033647,0.025483
11,41,3,5,0,0,1,,2,S,0,S,18,0.017767,0.785124,0.013949
11,42,8,3,0,0,1,,5,S,0,S,14,0.755387,0.03049,0.023032
11,43,7,9,0,0,1,,2,S,0,S,16,0.023614,0.772052,0.018231
11,44,7,3,0,0,1,,4,S,0,S,16,0.787582,0.011462,0.009027
11,45,1,8,0,0,1,,7,L,0,S,13,0.01499,0.766321,0.011487
11,46,6,1,0,0,1,,5,S,0,S,14,0.78096,0.009572,0.007476
11,47,8,5,0,0,1,,3,S,0,S,17,0.778735,0.02188,0.017038
11,48,9,4,0,0,1,,5,S,0,S,16,0.765452,0.02922,0.022366
11,49,6,8,0,0,1,,2,S,0,S,22,0.015818,0.790345,0.012501
11,50,2,3,0,0,1,,1,S,0,S,18,0.018171,0.783932,0.014245
11,51,4,6,0,0,1,,2,S,0,S,17,0.008748,0.790709,0.006917
11,52,6,7,0,0,1,,1,S,0,S,24,0.015738,0.788824,0.012414
11,53,9,1,0,0,1,,8,L,0,S,14,0.797768,0,0
11,54,9,6,0,0,1,,3,S,0,S,18,0.754115,0.039179,0.029546
11,55,8,1,0,0,1,,7,L,0,S,13,0.764601,0.019636,0.015014
11,56,3,6,0,0,1,,3,S,0,S,18,0.020373,0.780229,0.015896
11,57,4,1,0,0,1,,3,S,0,S,16,0.755554,0.036406,0.027507
11,58,5,4,0,0,1,,1,S,0,S,24,0.789103,0.016334,0.01289
11,59,2,5,0,0,1,,3,S,0,S,15,0.006748,0.790798,0.005336
11,60,8,6,0,0,1,,2,S,0,S,17,0.775817,0.022927,0.017787
11,61,2,9,0,0,1,,7,L,0,S,13,0.013313,0.770465,0.010257
11,62,5,9,0,0,1,,4,S,0,S,15,0.014722,0.775782,0.011421
11,63,5,6,0,0,1,,1,S,0,S,20,0.022718,0.775237,0.017612
11,64,2,4,0,0,1,,2,S,0,S,16,0.010657,0.79116,0.008431
11,65,8,9,0,0,1,,1,S,0,S,19,0.027347,0.774821,0.021189
11,66,8,7,0,0,1,,1,S,0,S,19,0.754485,0.043535,0.032846
11,67,6,9,0,0,1,,3,S,0,S,17,0.008267,0.79157,0.006544
11,68,5,2,0,0,1,,3,S,0,S,15,0.776944,0.015182,0.011795
11,69,3,7,0,0,1,,4,S,0,S,16,0.02668,0.768408,0.020501
11,70,6,2,0,0,1,,4,S,0,S,14,0.783302,0.007708,0.006038
11,71,7,6,0,0,1,,1,S,0,S,22,0.751793,0.046125,0.034677
11,72,3,1,0,0,1,,2,S,0,S,15,0.753139,0.036999,0.027865
12,1,9,1,0,0,1,,8,L,0,S,13,0.786298,0.001262,0.000992
12,2,4,8,0,0,1,,4,S,0,S,16,0.031192,0.763428,0.023813
12,3,8,2,0,0,1,,6,S,0,S,14,0.784433,0.007735,0.006068
12,4,3,7,0,0,1,,4,S,0,S,15,0.013792,0.779912,0.010757
12,5,4,7,0,0,1,,3,S,0,S,16,0.033813,0.759115,0.025668
12,6,1,3,0,0,1,,2,S,0,S,16,0.018002,0.779924,0.01404
12,7,2,9,0,0,1,,7,L,0,S,14,0.029862,0.757258,0.022613
12,8,8,9,0,0,1,,1,S,0,S,22,0.031337,0.771903,0.024189
12,9,1,8,0,0,1,,7,L,0,S,14,0.002824,0.791051,0.002234
12,10,6,7,0,0,1,,1,S,0,S,20,0.044183,0.756327,0.033416
12,11,5,1,0,0,1,,4,S,0,S,13,0.768482,0.013856,0.010648
12,12,3,6,0,0,1,,3,S,0,S,15,0.034423,0.750733,0.025842
12,13,1,7,0,0,1,,6,S,0,S,14,0.004098,0.78855,0.003231
12,14,8,3,0,0,1,,5,S,0,S,15,0.768656,0.025814,0.019842
12,15,2,3,0,0,1,,1,S,0,S,20,0.048021,0.754236,0.036219
12,16,9,5,0,0,1,,4,S,0,S,18,0.75808,0.040666,0.030828
12,17,9,8,0,0,1,,1,S,0,S,25,0.75332,0.050486,0.038032
12,18,2,5,0,0,1,,3,S,0,S,16,0.028237,0.769424,0.021727
12,19,6,9,0,0,1,,3,S,0,S,18,0.010509,0.794004,0.008344
12,20,5,9,0,0,1,,4,S,0,S,18,0.017837,0.784393,0.013991
12,21,5,6,0,0,1,,1,S,0,S,30,0.043808,0.757002,0.033163
12,22,9,7,0,0,1,,2,S,0,S,25,0.783093,0.025765,0.020176
12,23,8,1,0,0,1,,7,L,0,S,13,0.790828,0,0
12,24,3,8,0,0,1,,5,S,0,S,15,0.012016,0.783096,0.00941
12,25,1,2,0,0,1,,1,S,0,S,21,0.012112,0.792514,0.009599
12,26,3,2,0,0,1,,1,S,0,S,19,0.766771,0.03034,0.023264
12,27,6,5,0,0,1,,1,S,0,S,22,0.756571,0.044669,0.033795
12,28,1,9,0,0,1,,8,L,0,S,13,0.022737,0.75597,0.017189
12,29,6,8,0,0,1,,2,S,0,S,20,0.036424,0.767101,0.027941
12,30,2,6,0,0,1,,4,S,0,S,16,0.00686,0.794834,0.005453
12,31,3,5,0,0,1,,2,S,0,S,16,0.017661,0.777844,0.013738
12,32,7,6,0,0,1,,1,S,0,S,31,0.777517,0.026807,0.020843
12,33,6,1,0,0,1,,5,S,0,S,13,0.767171,0.01511,0.011592
12,34,4,3,0,0,1,,1,S,0,S,22,0.789133,0.018064,0.014255
12,35,2,4,0,0,1,,2,S,0,S,21,0.023717,0.784168,0.018598
12,36,7,4,0,0,1,,3,S,0,S,16,0.762046,0.03223,0.024561
12,37,4,5,0,0,1,,1,S,0,S,18,0.034293,0.762766,0.026157
12,38,2,7,0,0,1,,5,S,0,S,15,0.020609,0.776037,0.015994
12,39,4,9,0,0,1,,5,S,0,S,15,0.031148,0.756929,0.023577
12,40,8,5,0,0,1,,3,S,0,S,18,0.791518,0.013265,0.010499
12,41,6,2,0,0,1,,4,S,0,S,15,0.798046,0.000927,0.00074
12,42,5,4,0,0,1,,1,S,0,S,16,0.758371,0.03564,0.027029
12,43,8,6,0,0,1,,2,S,0,S,19,0.771745,0.028731,0.022173
12,44,3,9,0,0,1,,6,S,0,S,14,0.024682,0.759167,0.018738
12,45,1,5,0,0,1,,4,S,0,S,14,0.029358,0.754929,0.022163
12,46,2,1,0,0,1,,1,S,0,S,15,0.793526,0.004524,0.00359
12,47,4,6,0,0,1,,2,S,0,S,17,0.032229,0.7614,0.024539
12,48,9,2,0,0,1,,7,L,0,S,14,0.776863,0.014301,0.01111
12,49,6,3,0,0,1,,3,S,0,S,16,0.752454,0.041623,0.03132
12,50,1,4,0,0,1,,3,S,0,S,16,0.021468,0.774202,0.01662
12,51,9,6,0,0,1,,3,S,0,S,20,0.76376,0.036909,0.02819
12,52,9,4,0,0,1,,5,S,0,S,15,0.755134,0.036131,0.027284
12,53,8,4,0,0,1,,4,S,0,S,15,0.768452,0.024985,0.0192
12,54,4,2,0,0,1,,2,S,0,S,16,0.761558,0.030442,0.023183
12,55,5,7,0,0,1,,2,S,0,S,21,0.025731,0.779945,0.020069
12,56,3,1,0,0,1,,2,S,0,S,15,0.771015,0.018204,0.014035
12,57,4,1,0,0,1,,3,S,0,S,14,0.772551,0.014302,0.011049
12,58,7,8,0,0,1,,1,S,0,S,21,0.034886,0.768779,0.02682
12,59,7,5,0,0,1,,2,S,0,S,21,0.763879,0.03737,0.028546
12,60,7,3,0,0,1,,4,S,0,S,16,0.761537,0.033664,0.025637
12,61,3,4,0,0,1,,1,S,0,S,20,0.012721,0.791641,0.010071
12,62,9,3,0,0,1,,6,S,0,S,15,0.755116,0.037153,0.028055
12,63,8,7,0,0,1,,1,S,0,S,21,0.75576,0.045239,0.03419
12,64,5,8,0,0,1,,3,S,0,S,21,0.01705,0.791741,0.013499
12,65,7,9,0,0,1,,2,S,0,S,18,0.025139,0.77448,0.019469
12,66,7,1,0,0,1,,6,S,0,S,13,0.769125,0.012918,0.009936
12,67,6,4,0,0,1,,2,S,0,S,16,0.753209,0.039986,0.030118
12,68,5,3,0,0,1,,2,S,0,S,16,0.757748,0.037168,0.028164
12,69,1,6,0,0,1,,5,S,0,S,14,0.017764,0.768412,0.01365
12,70,5,2,0,0,1,,3,S,0,S,15,0.800404,0,0
12,71,7,2,0,0,1,,5,S,0,S,14,0.750593,0.033004,0.024772
12,72,2,8,0,0,1,,6,S,0,S,15,0.018754,0.779308,0.014615
13,1,7,3,0,0,1,,4,S,0,S,16,0.761971,0.03069,0.023385
13,2,7,1,0,0,1,,6,S,0,S,14,0.767305,0.019846,0.015228
13,3,5,4,0,0,1,,1,S,0,S,23,0.790061,0.020216,0.015972
13,4,8,6,0,0,1,,2,S,0,S,18,0.786008,0.016576,0.013029
13,5,9,5,0,0,1,,4,S,0,S,16,0.783592,0.01212,0.009497
13,6,7,8,0,0,1,,1,S,0,S,21,0.032498,0.765617,0.024881
13,7,2,6,0,0,1,,4,S,0,S,16,0.015384,0.779162,0.011986
13,8,8,5,0,0,1,,3,S,0,S,16,0.756652,0.038272,0.028959
13,9,8,4,0,0,1,,4,S,0,S,16,0.752,0.043232,0.03251
13,10,1,3,0,0,1,,2,S,0,S,13,0.007674,0.777749,0.005969
13,11,7,4,0,0,1,,3,S,0,S,18,0.77701,0.022949,0.017832
13,12,4,6,0,0,1,,2,S,0,S,19,0.026212,0.769929,0.020181
13,13,3,7,0,0,1,,4,S,0,S,14,0.027233,0.761056,0.020726
13,14,2,5,0,0,1,,3,S,0,S,17,0.012437,0.788606,0.009808
13,15,7,6,0,0,1,,1,S,0,S,20,0.771759,0.025203,0.01945
13,16,6,1,0,0,1,,5,S,0,S,15,0.792879,0.004149,0.003289
13,17,3,9,0,0,1,,6,S,0,S,15,7.5E-05,0.801443,6E-05
13,18,8,9,0,0,0,,1,S,0,S,22,0.755624,0.049033,0.037051
13,19,9,2,0,0,1,,7,L,0,S,14,0.782304,0.005648,0.004419
13,20,8,3,0,0,1,,5,S,0,S,15,0.760811,0.032985,0.025095
13,21,3,8,0,0,1,,5,S,0,S,14,0.030939,0.753339,0.023307
13,22,7,2,0,0,1,,5,S,0,S,15,0.79224,0.002081,0.001649
13,23,3,4,0,0,1,,1,S,0,S,16,0.032242,0.763243,0.024608
13,24,5,2,0,0,1,,3,S,0,S,15,0.753542,0.035555,0.026792
13,25,4,8,0,0,1,,4,S,0,S,16,0.02725,0.764507,0.020833
13,26,3,2,0,0,1,,1,S,0,S,22,0.769417,0.031902,0.024546
13,27,2,3,0,0,1,,1,S,0,S,18,0.042168,0.754397,0.031812
13,28,2,9,0,0,1,,7,L,0,S,15,0.004764,0.794593,0.003786
13,29,6,2,0,0,1,,4,S,0,S,15,0.762327,0.025551,0.019478
13,30,2,8,0,0,1,,6,S,0,S,15,0,0.797916,0
13,31,1,4,0,0,1,,3,S,0,S,13,0,0.797569,0
13,32,4,3,0,0,1,,1,S,0,S,22,0.789656,0.01626,0.01284
13,33,1,6,0,0,1,,5,S,0,S,13,0,0.801311,0
13,34,1,7,0,0,1,,6,S,0,S,12,0.002801,0.776397,0.002175
13,35,6,3,0,0,1,,3,S,0,S,17,0.752911,0.040393,0.030412
13,36,5,8,0,0,1,,3,S,0,S,17,0.036377,0.759986,0.027646
13,37,4,1,0,0,1,,3,S,0,S,16,0.788617,0.010218,0.008058
13,38,3,6,0,0,1,,3,S,0,S,16,0.008713,0.788613,0.006871
13,39,4,9,0,0,1,,5,S,0,S,16,0.03772,0.754667,0.028466
13,40,1,2,0,0,1,,1,S,0,S,14,0.006856,0.782368,0.005364
13,41,7,5,0,0,1,,2,S,0,S,18,0.784532,0.015639,0.01227
13,42,9,1,0,0,1,,8,L,0,S,14,0.802968,0,0
13,43,1,8,0,0,1,,7,L,0,S,12,0.004604,0.771498,0.003552
13,44,9,8,0,0,1,,1,S,0,S,20,0.752837,0.041182,0.031004
13,45,3,5,0,0,1,,2,S,0,S,16,0.039815,0.751855,0.029935
13,46,2,1,0,0,1,,1,S,0,S,19,0.794354,0.011671,0.009271
13,47,9,3,0,0,1,,6,S,0,S,15,0.778397,0.014428,0.011231
13,48,9,7,0,0,1,,2,S,0,S,21,0.792974,0.012531,0.009937
13,49,9,4,0,0,1,,5,S,0,S,16,0.780928,0.015477,0.012086
13,50,4,2,0,0,1,,2,S,0,S,17,0.793616,0.005958,0.004729
13,51,8,1,0,0,1,,7,L,0,S,14,0.796425,0.001378,0.001098
13,52,6,8,0,0,1,,2,S,0,S,18,0.034478,0.760097,0.026207
13,53,2,7,0,0,1,,5,S,0,S,14,0.031589,0.754493,0.023834
13,54,8,7,0,0,1,,1,S,0,S,36,0.786283,0.025572,0.020107
13,55,2,4,0,0,1,,2,S,0,S,16,0.040589,0.751602,0.030507
13,56,3,1,0,0,1,,2,S,0,S,19,0.777258,0.026103,0.020289
13,57,5,9,0,0,1,,4,S,0,S,18,0.017142,0.790018,0.013543
13,58,1,5,0,0,1,,4,S,0,S,13,0,0.793127,0
13,59,7,9,0,0,1,,2,S,0,S,23,0.030972,0.772538,0.023927
13,60,6,7,0,0,1,,1,S,0,S,18,0.024714,0.775657,0.01917
13,61,5,6,0,0,1,,1,S,0,S,24,0.018464,0.787509,0.01454
13,62,4,5,0,0,1,,1,S,0,S,22,0.044627,0.752644,0.033588
13,63,6,5,0,0,1,,1,S,0,S,20,0.773346,0.026995,0.020877
13,64,1,9,0,0,1,,8,L,0,S,12,0.006279,0.772127,0.004848
13,65,9,6,0,0,1,,3,S,0,S,17,0.779973,0.014552,0.01135
13,66,5,7,0,0,1,,2,S,0,S,17,0.02846,0.773132,0.022003
13,67,6,9,0,0,1,,3,S,0,S,19,0.021561,0.781707,0.016854
13,68,8,2,0,0,1,,6,S,0,S,14,0.773927,0.016639,0.012878
13,69,4,7,0,0,1,,3,S,0,S,16,0.021304,0.775161,0.016514
13,70,5,1,0,0,1,,4,S,0,S,15,0.786667,0.012079,0.009502
13,71,6,4,0,0,1,,2,S,0,S,20,0.754071,0.043698,0.032951
13,72,5,3,0,0,1,,2,S,0,S,18,0.773807,0.029098,0.022516
14,1,3,5,0,0,1,,2,S,0,S,19,0.020727,0.782707,0.016223
14,2,1,3,0,0,1,,2,S,0,S,15,0,0.799216,0
14,3,1,9,0,0,1,,8,L,0,S,12,0.01558,0.755968,0.011778
14,4,6,5,0,0,1,,1,S,0,S,17,0.77351,0.025944,0.020068
14,5,6,8,0,0,1,,2,S,0,S,21,0.022244,0.781703,0.017388
14,6,7,1,0,0,1,,6,S,0,S,14,0.775565,0.013589,0.010539
14,7,4,8,0,0,1,,4,S,0,S,15,0.00294,0.795023,0.002337
14,8,6,7,0,0,1,,1,S,0,S,32,0.020979,0.786511,0.0165
14,9,2,1,0,0,1,,1,S,0,S,21,0.783936,0.01887,0.014793
14,10,4,9,0,0,1,,5,S,0,S,14,0.020004,0.769004,0.015383
14,11,4,3,0,0,1,,1,S,0,S,23,0.790218,0.019893,0.01572
14,12,1,2,0,0,1,,1,S,0,S,16,0.013973,0.781003,0.010913
14,13,8,2,0,0,1,,6,S,0,S,14,0.783489,0.008581,0.006723
14,14,2,7,0,0,1,,5,S,0,S,15,0,0.79675,0
14,15,9,1,0,0,1,,8,L,0,S,13,0.754419,0.025566,0.019288
14,16,2,4,0,0,1,,2,S,0,S,16,0.030672,0.76108,0.023344
14,17,3,7,0,0,1,,4,S,0,S,16,0.006376,0.793472,0.005059
14,18,6,2,0,0,1,,4,S,0,S,14,0.780933,0.010307,0.008049
14,19,9,2,0,0,1,,7,L,0,S,13,0.76097,0.020276,0.015429
14,20,5,9,0,0,1,,4,S,0,S,16,0.031711,0.761059,0.024134
14,21,2,9,0,0,1,,7,L,0,S,14,0.00444,0.786086,0.00349
14,22,7,5,0,0,1,,2,S,0,S,17,0.784753,0.015712,0.01233
14,23,4,5,0,0,1,,1,S,0,S,17,0.041356,0.754434,0.0312
14,24,5,3,0,0,1,,2,S,0,S,16,0.784109,0.015837,0.012418
14,25,5,2,0,0,1,,3,S,0,S,15,0.792573,0.004141,0.003282
14,26,5,4,0,0,1,,1,S,0,S,20,0.751667,0.045742,0.034383
14,27,6,4,0,0,1,,2,S,0,S,17,0.767558,0.030219,0.023195
14,28,9,8,0,0,1,,1,S,0,S,20,0.75148,0.045218,0.033981
14,29,3,9,0,0,1,,6,S,0,S,15,0,0.798948,0
14,30,5,1,0,0,1,,4,S,0,S,15,0.781765,0.012917,0.010098
14,31,7,6,0,0,1,,1,S,0,S,18,0.786912,0.015795,0.012429
14,32,3,1,0,0,1,,2,S,0,S,17,0.777943,0.020975,0.016318
14,33,7,4,0,0,1,,3,S,0,S,17,0.779303,0.019604,0.015277
14,34,2,8,0,0,1,,6,S,0,S,14,0.020428,0.764314,0.015613
14,35,4,1,0,0,1,,3,S,0,S,18,0.778639,0.023251,0.018104
14,36,6,1,0,0,1,,5,S,0,S,14,0.772635,0.017039,0.013165
14,37,8,4,0,0,1,,4,S,0,S,17,0.774177,0.025279,0.01957
14,38,1,6,0,0,1,,5,S,0,S,13,0.01726,0.763502,0.013178
14,39,8,3,0,0,1,,5,S,0,S,15,0.793389,0.00679,0.005387
14,40,7,2,0,0,1,,5,S,0,S,14,0.783532,0.007127,0.005584
14,41,6,3,0,0,1,,3,S,0,S,15,0.790091,0.009123,0.007208
14,42,1,4,0,0,1,,3,S,0,S,13,0.026049,0.751112,0.019566
14,43,9,7,0,0,1,,2,S,0,S,18,0.758112,0.038444,0.029145
14,44,8,6,0,0,1,,2,S,0,S,18,0.779046,0.023708,0.01847
14,45,1,5,0,0,1,,4,S,0,S,13,0.026825,0.750552,0.020134
14,46,1,7,0,0,1,,6,S,0,S,13,0,0.78951,0
14,47,3,8,0,0,1,,5,S,0,S,15,0.021008,0.77036,0.016184
14,48,3,4,0,0,1,,1,S,0,S,19,0.015286,0.78899,0.01206
14,49,3,6,0,0,1,,3,S,0,S,18,0.008031,0.797378,0.006404
14,50,4,7,0,0,1,,3,S,0,S,15,0.020841,0.772786,0.016105
14,51,3,2,0,0,1,,1,S,0,S,16,0.750324,0.03997,0.029991
14,52,9,6,0,0,1,,3,S,0,S,16,0.779024,0.019284,0.015023
14,53,4,6,0,0,1,,2,S,0,S,17,0.006921,0.798262,0.005525
14,54,6,9,0,0,1,,3,S,0,S,18,0.035869,0.761916,0.027329
14,55,9,3,0,0,1,,6,S,0,S,14,0.782726,0.010778,0.008437
14,56,2,5,0,0,1,,3,S,0,S,16,0.032997,0.758616,0.025032
14,57,8,9,0,0,1,,1,S,0,S,18,0.042243,0.754186,0.031859
14,58,7,9,0,0,1,,2,S,0,S,19,0.021768,0.779497,0.016968
14,59,9,4,0,0,1,,5,S,0,S,15,0.752647,0.036283,0.027308
14,60,8,5,0,0,1,,3,S,0,S,17,0.779909,0.021162,0.016504
14,61,4,2,0,0,1,,2,S,0,S,17,0.759604,0.036183,0.027485
14,62,8,1,0,0,1,,7,L,0,S,14,0.775335,0.015207,0.011791
14,63,8,7,0,0,1,,1,S,0,S,30,0.764124,0.039223,0.029971
14,64,5,6,0,0,0,,1,S,0,S,24,0.752368,0.047849,0.036
14,65,7,8,0,0,1,,1,S,0,S,22,0.036054,0.763177,0.027516
14,66,2,6,0,0,1,,4,S,0,S,16,0.008766,0.789878,0.006924
14,67,5,7,0,0,1,,2,S,0,S,19,0.015853,0.787415,0.012483
14,68,5,8,0,0,1,,3,S,0,S,17,0.037388,0.755694,0.028254
14,69,9,5,0,0,1,,4,S,0,S,15,0.756459,0.033731,0.025516
14,70,1,8,0,0,1,,7,L,0,S,13,0,0.798907,0
14,71,2,3,0,0,1,,1,S,0,S,22,0.026743,0.777463,0.020791
14,72,7,3,0,0,1,,4,S,0,S,15,0.794326,0.004577,0.003635
15,1,7,8,0,0,1,,1,S,0,S,21,0.035435,0.765345,0.02712
15,2,5,8,0,0,1,,3,S,0,S,16,0.02575,0.773387,0.019915
15,3,1,2,0,0,1,,1,S,0,S,15,0.024615,0.768822,0.018925
15,4,7,4,0,0,1,,3,S,0,S,17,0.786637,0.014383,0.011314
15,5,6,8,0,0,1,,2,S,0,S,19,0.034538,0.763452,0.026368
15,6,1,6,0,0,1,,5,S,0,S,14,0,0.800186,0
15,7,3,1,0,0,1,,2,S,0,S,17,0.786357,0.01543,0.012134
15,8,2,8,0,0,1,,6,S,0,S,14,0.014912,0.775125,0.011559
15,9,4,1,0,0,1,,3,S,0,S,16,0.795333,0.005163,0.004107
15,10,3,5,0,0,1,,2,S,0,S,15,0.034708,0.753305,0.026146
15,11,3,7,0,0,1,,4,S,0,S,14,0.026923,0.761239,0.020495
15,12,5,4,0,0,1,,1,S,0,S,25,0.773949,0.0341,0.026392
15,13,3,6,0,0,1,,3,S,0,S,16,0.028061,0.768276,0.021558
15,14,4,5,0,0,1,,1,S,0,S,17,0.008835,0.791443,0.006993
15,15,5,3,0,0,1,,2,S,0,S,15,0.782109,0.015289,0.011957
15,16,4,2,0,0,1,,2,S,0,S,19,0.773758,0.028596,0.022127
15,17,2,3,0,0,0,,1,S,0,S,19,0.777755,0.023789,0.018502
15,18,7,3,0,0,1,,4,S,0,S,14,0.787732,0.004134,0.003257
15,19,1,3,0,0,1,,2,S,0,S,17,0.008227,0.794007,0.006533
15,20,6,1,0,0,1,,5,S,0,S,14,0.795608,0,0
15,21,6,9,0,0,1,,3,S,0,S,20,0.008971,0.793483,0.007119
15,22,2,6,0,0,1,,4,S,0,S,16,0.020454,0.776759,0.015888
15,23,3,9,0,0,1,,6,S,0,S,14,0.021474,0.764869,0.016425
15,24,1,9,0,0,1,,8,L,0,S,13,0,0.793045,0
15,25,4,3,0,0,1,,1,S,0,S,17,0.796536,0.00598,0.004763
15,26,7,1,0,0,1,,6,S,0,S,13,0.754988,0.024375,0.018403
15,27,4,9,0,0,1,,5,S,0,S,15,0.013798,0.778341,0.010739
15,28,9,7,0,0,1,,2,S,0,S,19,0.78324,0.019917,0.0156
15,29,2,7,0,0,1,,5,S,0,S,14,0.022981,0.765215,0.017585
15,30,4,6,0,0,1,,2,S,0,S,18,0.019335,0.782799,0.015136
15,31,9,8,0,0,1,,1,S,0,S,20,0.768874,0.031722,0.02439
15,32,6,3,0,0,1,,3,S,0,S,14,0.773342,0.014534,0.01124
15,33,4,7,0,0,1,,3,S,0,S,15,0.020901,0.77273,0.016151
15,34,2,1,0,0,1,,1,S,0,S,17,0.768979,0.028159,0.021654
15,35,1,4,0,0,1,,3,S,0,S,14,0.000532,0.794261,0.000423
15,36,1,5,0,0,1,,4,S,0,S,13,0.019425,0.760635,0.014775
15,37,8,4,0,0,1,,4,S,0,S,16,0.765411,0.030886,0.02364
15,38,1,7,0,0,1,,6,S,0,S,13,0,0.792801,0
15,39,7,2,0,0,1,,5,S,0,S,14,0.75317,0.032141,0.024208
15,40,9,3,0,0,1,,6,S,0,S,13,0.766773,0.01509,0.011571
15,41,8,2,0,0,1,,6,S,0,S,14,0.768425,0.022257,0.017103
15,42,8,1,0,0,1,,7,L,0,S,13,0.766354,0.017505,0.013415
15,43,3,4,0,0,1,,1,S,0,S,16,0.040431,0.752584,0.030428
15,44,5,6,0,0,1,,1,S,0,S,28,0.031983,0.776927,0.024848
15,45,9,2,0,0,1,,7,L,0,S,14,0.793623,0.000896,0.000711
15,46,6,2,0,0,1,,4,S,0,S,15,0.786362,0.009696,0.007625
15,47,9,6,0,0,1,,3,S,0,S,15,0.752785,0.035445,0.026682
15,48,5,1,0,0,1,,4,S,0,S,14,0.760618,0.028292,0.02152
15,49,5,7,0,0,1,,2,S,0,S,16,0.043834,0.750984,0.032918
15,50,2,9,0,0,1,,7,L,0,S,14,0.017847,0.768462,0.013715
15,51,8,3,0,0,1,,5,S,0,S,14,0.800192,0,0
15,52,7,6,0,0,1,,1,S,0,S,17,0.767402,0.029442,0.022594
15,53,7,9,0,0,1,,2,S,0,S,22,0.015521,0.787601,0.012225
15,54,6,7,0,0,1,,1,S,0,S,21,0.014967,0.79069,0.011834
15,55,6,4,0,0,1,,2,S,0,S,18,0.794051,0.009353,0.007426
15,56,3,2,0,0,1,,1,S,0,S,29,0.751075,0.05155,0.038718
15,57,1,8,0,0,1,,7,L,0,S,13,0,0.798236,0
15,58,3,8,0,0,1,,5,S,0,S,14,0.018502,0.771589,0.014276
15,59,8,6,0,0,1,,2,S,0,S,17,0.797649,0.007529,0.006005
15,60,2,5,0,0,1,,3,S,0,S,15,0.028917,0.759592,0.021965
15,61,8,7,0,0,1,,1,S,0,S,27,0.786128,0.023254,0.018281
15,62,5,9,0,0,1,,4,S,0,S,16,0.030681,0.764054,0.023442
15,63,7,5,0,0,1,,2,S,0,S,19,0.775727,0.023567,0.018282
15,64,9,1,0,0,1,,8,L,0,S,13,0.783663,0.002591,0.00203
15,65,9,5,0,0,1,,4,S,0,S,16,0.756047,0.033831,0.025578
15,66,6,5,0,0,1,,1,S,0,S,21,0.783322,0.018284,0.014322
15,67,9,4,0,0,1,,5,S,0,S,15,0.764444,0.026534,0.020284
15,68,5,2,0,0,1,,3,S,0,S,16,0.773965,0.026258,0.020323
15,69,2,4,0,0,1,,2,S,0,S,16,0.031859,0.762316,0.024286
15,70,8,5,0,0,1,,3,S,0,S,18,0.774836,0.025168,0.019501
15,71,4,8,0,0,1,,4,S,0,S,15,0.010146,0.785946,0.007974
15,72,8,9,0,0,1,,1,S,0,S,25,0.023467,0.781487,0.018339
16,1,6,4,0,0,1,,2,S,0,S,17,0.774935,0.020165,0.015627
16,2,6,3,0,0,1,,3,S,0,S,15,0.773691,0.017182,0.013293
16,3,9,6,0,0,1,,3,S,0,S,19,0.764746,0.035887,0.027444
16,4,1,7,0,0,1,,6,S,0,S,13,0.016923,0.766756,0.012976
16,5,3,5,0,0,1,,2,S,0,S,19,0.02597,0.776178,0.020157
16,6,6,7,0,0,1,,1,S,0,S,19,0.035267,0.763212,0.026916
16,7,4,7,0,0,1,,3,S,0,S,17,0.017779,0.783273,0.013926
16,8,4,9,0,0,1,,5,S,0,S,16,0.00703,0.79015,0.005555
16,9,4,3,0,0,1,,1,S,0,S,16,0.776895,0.018651,0.01449
16,10,8,4,0,0,1,,4,S,0,S,15,0.775961,0.018594,0.014428
16,11,2,7,0,0,1,,5,S,0,S,14,0,0.798024,0
16,12,7,8,0,0,1,,1,S,0,S,25,0.027799,0.774291,0.021524
16,13,1,6,0,0,1,,5,S,0,S,14,0,0.802007,0
16,14,7,1,0,0,1,,6,S,0,S,13,0.77378,0.011409,0.008828
16,15,3,9,0,0,1,,6,S,0,S,15,0.018502,0.773847,0.014317
16,16,2,9,0,0,1,,7,L,0,S,13,0.018143,0.763479,0.013852
16,17,1,4,0,0,1,,3,S,0,S,15,0.019367,0.77155,0.014942
16,18,7,6,0,0,1,,1,S,0,S,20,0.762805,0.036961,0.028194
16,19,8,5,0,0,1,,3,S,0,S,17,0.795547,0.009201,0.00732
16,20,3,2,0,0,1,,1,S,0,S,15,0.756582,0.033225,0.025138
16,21,5,1,0,0,1,,4,S,0,S,15,0.783396,0.012188,0.009548
16,22,5,8,0,0,1,,3,S,0,S,15,0.028065,0.759549,0.021317
16,23,1,9,0,0,1,,8,L,0,S,13,0.002473,0.782249,0.001934
16,24,1,2,0,0,1,,1,S,0,S,20,0.015426,0.788715,0.012166
16,25,4,1,0,0,1,,3,S,0,S,14,0.766103,0.020695,0.015854
16,26,8,9,0,0,1,,1,S,0,S,22,0.017351,0.789605,0.013701
16,27,8,3,0,0,1,,5,S,0,S,14,0.785505,0.008244,0.006475
16,28,9,8,0,0,1,,1,S,0,S,31,0.781387,0.024082,0.018817
16,29,9,3,0,0,1,,6,S,0,S,14,0.781872,0.011052,0.008641
16,30,7,4,0,0,1,,3,S,0,S,15,0.756292,0.032584,0.024643
16,31,7,3,0,0,1,,4,S,0,S,14,0.771936,0.01752,0.013524
16,32,3,6,0,0,1,,3,S,0,S,17,0.013918,0.786943,0.010953
16,33,8,7,0,0,1,,1,S,0,S,21,0.780383,0.027823,0.021713
16,34,9,4,0,0,1,,5,S,0,S,15,0.770484,0.022857,0.017611
16,35,3,8,0,0,1,,5,S,0,S,16,0.007183,0.790521,0.005679
16,36,1,8,0,0,1,,7,L,0,S,13,0.013107,0.766828,0.01005
16,37,9,7,0,0,1,,2,S,0,S,22,0.786499,0.023448,0.018442
16,38,9,2,0,0,1,,7,L,0,S,13,0.757867,0.024439,0.018521
16,39,3,1,0,0,1,,2,S,0,S,15,0.799677,0,0
16,40,1,3,0,0,1,,2,S,0,S,17,0.022121,0.775492,0.017155
16,41,5,7,0,0,1,,2,S,0,S,15,0.038549,0.751559,0.028972
16,42,5,6,0,0,1,,1,S,0,S,16,0.028761,0.764772,0.021995
16,43,2,5,0,0,1,,3,S,0,S,15,0.003444,0.795486,0.00274
16,44,2,6,0,0,1,,4,S,0,S,14,0.012999,0.777609,0.010108
16,45,2,8,0,0,1,,6,S,0,S,14,0,0.798921,0
16,46,6,9,0,0,1,,3,S,0,S,17,0.023027,0.770776,0.017749
16,47,8,2,0,0,1,,6,S,0,S,13,0.760903,0.022132,0.01684
16,48,7,9,0,0,1,,2,S,0,S,20,0.021405,0.781328,0.016724
16,49,4,5,0,0,1,,1,S,0,S,22,0.033291,0.767488,0.02555
16,50,7,2,0,0,1,,5,S,0,S,14,0.802802,0,0
16,51,2,3,0,0,1,,1,S,0,S,19,0.041414,0.757163,0.031357
16,52,6,8,0,0,1,,2,S,0,S,18,0.036662,0.753834,0.027637
16,53,9,5,0,0,1,,4,S,0,S,17,0.786256,0.016587,0.013041
16,54,6,2,0,0,1,,4,S,0,S,14,0.762921,0.021866,0.016682
16,55,9,1,0,0,1,,8,L,0,S,13,0.781196,0.006882,0.005376
16,56,5,4,0,0,1,,1,S,0,S,33,0.757068,0.043219,0.03272
16,57,8,1,0,0,1,,7,L,0,S,13,0.783753,0.004933,0.003866
16,58,3,4,0,0,0,,1,S,0,S,22,0.765657,0.035366,0.027078
16,59,5,2,0,0,1,,3,S,0,S,16,0.784566,0.013922,0.010923
16,60,5,3,0,0,1,,2,S,0,S,17,0.75477,0.039346,0.029697
16,61,7,5,0,0,1,,2,S,0,S,17,0.762967,0.033633,0.025661
16,62,4,2,0,0,1,,2,S,0,S,15,0.780361,0.013286,0.010368
16,63,6,1,0,0,1,,5,S,0,S,14,0.792801,0,0
16,64,6,5,0,0,1,,1,S,0,S,21,0.764402,0.033891,0.025906
16,65,4,6,0,0,1,,2,S,0,S,18,0.023881,0.774283,0.018491
16,66,2,1,0,0,1,,1,S,0,S,19,0.797175,0.009868,0.007866
16,67,3,7,0,0,1,,4,S,0,S,16,0.019082,0.780856,0.014901
16,68,8,6,0,0,1,,2,S,0,S,19,0.783968,0.020583,0.016136
16,69,5,9,0,0,1,,4,S,0,S,15,0.006346,0.789017,0.005007
16,70,1,5,0,0,1,,4,S,0,S,14,0.01371,0.775325,0.01063
16,71,4,8,0,0,1,,4,S,0,S,17,0.001827,0.797854,0.001458
16,72,2,4,0,0,1,,2,S,0,S,16,0.022557,0.773383,0.017445
17,1,1,8,0,0,1,,7,L,0,S,12,0.014971,0.760759,0.01139
17,2,4,8,0,0,1,,4,S,0,S,15,0.023038,0.773758,0.017826
17,3,2,5,0,0,1,,3,S,0,S,16,0.035621,0.755842,0.026924
17,4,6,8,0,0,1,,2,S,0,S,17,0.015446,0.786772,0.012153
17,5,8,6,0,0,1,,2,S,0,S,21,0.782152,0.023467,0.018355
17,6,5,6,0,0,1,,1,S,0,S,25,0.015673,0.791012,0.012398
17,7,8,1,0,0,1,,7,L,0,S,13,0.767314,0.016193,0.012425
17,8,9,1,0,0,1,,8,L,0,S,13,0.800177,0,0
17,9,7,9,0,0,1,,2,S,0,S,20,0.030067,0.771678,0.023202
17,10,1,3,0,0,1,,2,S,0,S,14,0.006222,0.78339,0.004874
17,11,8,7,0,0,0,,1,S,0,S,18,0.014899,0.78983,0.011767
17,12,9,8,0,0,1,,1,S,0,S,19,0.794661,0.015716,0.012489
17,13,5,2,0,0,1,,3,S,0,S,14,0.792639,0.001269,0.001006
17,14,7,3,0,0,1,,4,S,0,S,15,0.76503,0.024129,0.018459
17,15,4,9,0,0,1,,5,S,0,S,15,0.008066,0.79143,0.006384
17,16,9,2,0,0,1,,7,L,0,S,13,0.797358,0,0
17,17,2,9,0,0,1,,7,L,0,S,14,0,0.80028,0
17,18,1,2,0,0,1,,1,S,0,S,16,0.033839,0.758254,0.025659
17,19,4,2,0,0,1,,2,S,0,S,15,0.775957,0.019645,0.015244
17,20,8,4,0,0,1,,4,S,0,S,16,0.752037,0.04155,0.031247
17,21,9,7,0,0,1,,2,S,0,S,34,0.779293,0.029429,0.022934
17,22,7,1,0,0,1,,6,S,0,S,13,0.766562,0.014729,0.011291
17,23,2,4,0,0,1,,2,S,0,S,16,0.013369,0.78531,0.010499
17,24,3,9,0,0,1,,6,S,0,S,13,0.027231,0.752019,0.020478
17,25,9,4,0,0,1,,5,S,0,S,15,0.78696,0.012296,0.009677
17,26,4,7,0,0,1,,3,S,0,S,14,0.028535,0.758819,0.021653
17,27,4,5,0,0,1,,1,S,0,S,23,0.037091,0.766853,0.028443
17,28,5,4,0,0,1,,1,S,0,S,18,0.771453,0.028376,0.021891
17,29,2,7,0,0,1,,5,S,0,S,13,0.021196,0.759182,0.016092
17,30,2,3,0,0,1,,1,S,0,S,18,0.009838,0.7918,0.00779
17,31,7,4,0,0,1,,3,S,0,S,16,0.757514,0.034861,0.026408
17,32,1,4,0,0,1,,3,S,0,S,13,0.018151,0.763633,0.013861
17,33,5,7,0,0,1,,2,S,0,S,16,0.036975,0.754506,0.027898
17,34,8,3,0,0,1,,5,S,0,S,15,0.763076,0.027938,0.021319
17,35,7,5,0,0,1,,2,S,0,S,16,0.782683,0.01442,0.011287
17,36,8,9,0,0,1,,1,S,0,S,19,0.036523,0.765592,0.027962
17,37,8,2,0,0,1,,6,S,0,S,13,0.763282,0.020355,0.015537
17,38,2,8,0,0,1,,6,S,0,S,14,0.004654,0.789918,0.003677
17,39,7,8,0,0,1,,1,S,0,S,23,0.046253,0.755127,0.034927
17,40,9,5,0,0,1,,4,S,0,S,14,0.750713,0.035711,0.026809
17,41,3,1,0,0,1,,2,S,0,S,18,0.780747,0.018762,0.014649
17,42,9,6,0,0,1,,3,S,0,S,17,0.796641,0.008584,0.006839
17,43,2,1,0,0,1,,1,S,0,S,17,0.755698,0.037142,0.028068
17,44,5,9,0,0,1,,4,S,0,S,17,0.034781,0.761532,0.026487
17,45,6,1,0,0,1,,5,S,0,S,14,0.774564,0.013398,0.010377
17,46,7,2,0,0,1,,5,S,0,S,13,0.762698,0.018747,0.014298
17,47,6,5,0,0,1,,1,S,0,S,19,0.771536,0.028008,0.02161
17,48,6,9,0,0,1,,3,S,0,S,16,0.026673,0.768177,0.020489
17,49,7,6,0,0,1,,1,S,0,S,20,0.767015,0.032255,0.02474
17,50,3,2,0,0,1,,1,S,0,S,18,0.75268,0.042256,0.031805
17,51,1,5,0,0,1,,4,S,0,S,13,0.026782,0.751273,0.020121
17,52,3,7,0,0,1,,4,S,0,S,13,0.017405,0.763883,0.013296
17,53,5,8,0,0,1,,3,S,0,S,18,0.037353,0.762074,0.028466
17,54,6,4,0,0,1,,2,S,0,S,21,0.779649,0.023985,0.0187
17,55,8,5,0,0,1,,3,S,0,S,16,0.779192,0.019499,0.015194
17,56,3,5,0,0,1,,2,S,0,S,16,0.024674,0.769518,0.018987
17,57,3,6,0,0,1,,3,S,0,S,14,0.026341,0.75824,0.019973
17,58,4,1,0,0,1,,3,S,0,S,15,0.784662,0.011643,0.009135
17,59,4,3,0,0,1,,1,S,0,S,22,0.765402,0.036465,0.02791
17,60,1,9,0,0,1,,8,L,0,S,12,0.009803,0.766433,0.007513
17,61,3,8,0,0,1,,5,S,0,S,14,0.000137,0.795444,0.000109
17,62,5,1,0,0,1,,4,S,0,S,14,0.797265,0,0
17,63,6,2,0,0,1,,4,S,0,S,14,0.768743,0.019023,0.014624
17,64,4,6,0,0,1,,2,S,0,S,16,0.034547,0.759588,0.026242
17,65,9,3,0,0,1,,6,S,0,S,14,0.77243,0.017877,0.013809
17,66,1,7,0,0,1,,6,S,0,S,12,0.003873,0.773394,0.002995
17,67,1,6,0,0,1,,5,S,0,S,13,0,0.794027,0
17,68,2,6,0,0,1,,4,S,0,S,14,0.032123,0.751015,0.024125
17,69,5,3,0,0,1,,2,S,0,S,16,0.76485,0.027655,0.021152
17,70,3,4,0,0,1,,1,S,0,S,16,0.004349,0.796425,0.003464
17,71,6,3,0,0,1,,3,S,0,S,17,0.754135,0.03751,0.028288
17,72,6,7,0,0,1,,1,S,0,S,16,0.00275,0.797423,0.002193
18,1,7,6,0,0,1,,1,S,0,S,25,0.754426,0.048409,0.036521
18,2,1,2,0,0,1,,1,S,0,S,16,0.010526,0.786204,0.008276
18,3,8,3,0,0,1,,5,S,0,S,14,0.760989,0.026031,0.019809
18,4,4,7,0,0,1,,3,S,0,S,15,0.017081,0.775116,0.01324
18,5,6,8,0,0,1,,2,S,0,S,18,0.028819,0.772736,0.02227
18,6,5,7,0,0,1,,2,S,0,S,18,0.032681,0.76607,0.025036
18,7,8,2,0,0,1,,6,S,0,S,13,0.75478,0.025038,0.018898
18,8,1,6,0,0,1,,5,S,0,S,13,0,0.796796,0
18,9,7,9,0,0,1,,2,S,0,S,22,0.034375,0.769478,0.02645
18,10,6,3,0,0,1,,3,S,0,S,17,0.7613,0.035037,0.026673
18,11,2,3,0,0,1,,1,S,0,S,23,0.031359,0.772026,0.02421
18,12,3,1,0,0,1,,2,S,0,S,18,0.765798,0.03028,0.023189
18,13,8,4,0,0,1,,4,S,0,S,15,0.77713,0.018329,0.014244
18,14,6,2,0,0,1,,4,S,0,S,15,0.767454,0.024384,0.018714
18,15,5,8,0,0,1,,3,S,0,S,25,0.04202,0.762761,0.032051
18,16,9,2,0,0,1,,7,L,0,S,13,0.754429,0.025517,0.019251
18,17,9,4,0,0,1,,5,S,0,S,15,0.776254,0.019243,0.014938
18,18,7,4,0,0,1,,3,S,0,S,16,0.793717,0.008977,0.007125
18,19,4,8,0,0,1,,4,S,0,S,16,0.025216,0.770916,0.019439
18,20,2,6,0,0,1,,4,S,0,S,15,0.005449,0.792843,0.00432
18,21,4,5,0,0,1,,1,S,0,S,16,0.020719,0.775231,0.016062
18,22,6,9,0,0,1,,3,S,0,S,16,0.026577,0.76908,0.02044
18,23,9,8,0,0,1,,1,S,0,S,18,0.783705,0.020247,0.015868
18,24,3,9,0,0,1,,6,S,0,S,14,0.014826,0.775297,0.011495
18,25,3,8,0,0,1,,5,S,0,S,15,0.00886,0.789244,0.006993
18,26,8,6,0,0,1,,2,S,0,S,19,0.752161,0.04603,0.034622
18,27,2,4,0,0,1,,2,S,0,S,18,0.033509,0.765823,0.025662
18,28,9,1,0,0,1,,8,L,0,S,13,0.762187,0.018072,0.013774
18,29,4,2,0,0,1,,2,S,0,S,17,0.797053,0.00502,0.004001
18,30,9,5,0,0,1,,4,S,0,S,18,0.766162,0.032982,0.025269
18,31,3,4,0,0,1,,1,S,0,S,17,0.031821,0.766353,0.024386
18,32,5,1,0,0,1,,4,S,0,S,14,0.774718,0.013963,0.010818
18,33,6,7,0,0,1,,1,S,0,S,16,0.026719,0.76779,0.020514
18,34,8,5,0,0,1,,3,S,0,S,18,0.769367,0.03019,0.023227
18,35,4,6,0,0,1,,2,S,0,S,15,0.035949,0.752997,0.02707
18,36,5,6,0,0,1,,1,S,0,S,20,0.028278,0.776842,0.021968
18,37,3,2,0,0,1,,1,S,0,S,19,0.752847,0.043716,0.032912
18,38,4,1,0,0,1,,3,S,0,S,16,0.773694,0.019485,0.015075
18,39,7,2,0,0,1,,5,S,0,S,14,0.79096,0.003131,0.002476
18,40,4,3,0,0,1,,1,S,0,S,21,0.766477,0.034352,0.02633
18,41,8,1,0,0,1,,7,L,0,S,13,0.76248,0.017642,0.013452
18,42,5,2,0,0,1,,3,S,0,S,14,0.763604,0.024161,0.01845
18,43,3,5,0,0,1,,2,S,0,S,15,0.006194,0.791316,0.004902
18,44,5,3,0,0,1,,2,S,0,S,16,0.795736,0.006451,0.005133
18,45,4,9,0,0,1,,5,S,0,S,15,0.016818,0.776517,0.013059
18,46,6,4,0,0,1,,2,S,0,S,20,0.774533,0.029499,0.022848
18,47,1,5,0,0,1,,4,S,0,S,13,2.2E-05,0.786362,1.7E-05
18,48,7,1,0,0,1,,6,S,0,S,14,0.799576,0,0
18,49,6,1,0,0,1,,5,S,0,S,15,0.783093,0.01051,0.008231
18,50,5,9,0,0,1,,4,S,0,S,18,0.033009,0.766813,0.025312
18,51,7,3,0,0,1,,4,S,0,S,15,0.787466,0.010135,0.007981
18,52,1,3,0,0,1,,2,S,0,S,14,0.026006,0.758568,0.019727
18,53,6,5,0,0,0,,1,S,0,S,18,0.019729,0.782704,0.015442
18,54,8,9,0,0,0,,1,S,0,S,23,0.774592,0.029764,0.023055
18,55,1,7,0,0,1,,6,S,0,S,13,0,0.803524,0
18,56,3,7,0,0,1,,4,S,0,S,14,0.01509,0.773935,0.011678
18,57,2,1,0,0,1,,1,S,0,S,17,0.76204,0.031179,0.023759
18,58,5,4,0,0,1,,1,S,0,S,17,0.783432,0.01929,0.015113
18,59,1,9,0,0,1,,8,L,0,S,13,0,0.8048,0
18,60,1,8,0,0,1,,7,L,0,S,13,0.001143,0.786103,0.000898
18,61,2,7,0,0,1,,5,S,0,S,14,0.026832,0.758099,0.020341
18,62,3,6,0,0,1,,3,S,0,S,14,0.028151,0.759073,0.021369
18,63,2,8,0,0,1,,6,S,0,S,15,0.024463,0.768712,0.018805
18,64,2,5,0,0,1,,3,S,0,S,15,0.021279,0.77142,0.016415
18,65,9,3,0,0,1,,6,S,0,S,14,0.760377,0.026726,0.020322
18,66,8,7,0,0,1,,1,S,0,S,23,0.761714,0.03908,0.029768
18,67,2,9,0,0,1,,7,L,0,S,14,0.026591,0.759462,0.020195
18,68,1,4,0,0,1,,3,S,0,S,14,0.00233,0.790616,0.001842
18,69,9,6,0,0,1,,3,S,0,S,20,0.793802,0.014061,0.011161
18,70,9,7,0,0,1,,2,S,0,S,24,0.789643,0.017257,0.013627
18,71,7,8,0,0,0,,1,S,0,S,20,0.776287,0.028979,0.022496
18,72,7,5,0,0,1,,2,S,0,S,21,0.790065,0.017408,0.013754
19,1,4,9,0,0,1,,5,S,0,S,14,0.01666,0.773344,0.012884
19,2,6,4,0,0,1,,2,S,0,S,20,0.755966,0.043741,0.033066
19,3,7,6,0,0,1,,1,S,0,S,16,0.751311,0.038103,0.028627
19,4,7,2,0,0,1,,5,S,0,S,13,0.776322,0.007747,0.006014
19,5,7,8,0,0,1,,1,S,0,S,23,0.026464,0.778584,0.020605
19,6,2,7,0,0,1,,5,S,0,S,15,0.008415,0.784983,0.006606
19,7,5,1,0,0,1,,4,S,0,S,14,0.77092,0.020161,0.015542
19,8,5,3,0,0,1,,2,S,0,S,16,0.77505,0.021306,0.016513
19,9,4,1,0,0,1,,3,S,0,S,16,0.780203,0.018923,0.014764
19,10,8,7,0,0,1,,1,S,0,S,18,0.793218,0.010677,0.008469
19,11,8,5,0,0,1,,3,S,0,S,15,0.760785,0.028686,0.021824
19,12,2,1,0,0,1,,1,S,0,S,20,0.786454,0.016811,0.013221
19,13,8,1,0,0,1,,7,L,0,S,13,0.762321,0.020445,0.015585
19,14,9,7,0,0,1,,2,S,0,S,21,0.772122,0.030085,0.023229
19,15,9,6,0,0,1,,3,S,0,S,21,0.793797,0.011067,0.008785
19,16,8,4,0,0,1,,4,S,0,S,15,0.761249,0.028068,0.021367
19,17,1,7,0,0,1,,6,S,0,S,14,0,0.793318,0
19,18,3,1,0,0,1,,2,S,0,S,17,0.798703,0.006745,0.005387
19,19,2,9,0,0,1,,7,L,0,S,13,0.018541,0.760952,0.014109
19,20,8,6,0,0,1,,2,S,0,S,17,0.751362,0.04046,0.0304
19,21,2,5,0,0,1,,3,S,0,S,17,0.008162,0.790237,0.00645
19,22,1,9,0,0,1,,8,L,0,S,13,0,0.799215,0
19,23,1,5,0,0,1,,4,S,0,S,15,0.008021,0.786475,0.006308
19,24,6,1,0,0,1,,5,S,0,S,15,0.79024,0.009913,0.007833
19,25,9,3,0,0,1,,6,S,0,S,15,0.759124,0.02932,0.022258
19,26,4,6,0,0,1,,2,S,0,S,17,0.012434,0.78767,0.009793
19,27,6,8,0,0,1,,2,S,0,S,15,0.014722,0.783318,0.011532
19,28,9,1,0,0,1,,8,L,0,S,14,0.789347,0.004612,0.003641
19,29,1,8,0,0,1,,7,L,0,S,13,0,0.797178,0
19,30,5,2,0,0,1,,3,S,0,S,14,0.772978,0.016455,0.012719
19,31,2,4,0,0,1,,2,S,0,S,17,0.009841,0.787764,0.007752
19,32,7,3,0,0,1,,4,S,0,S,14,0.770055,0.017165,0.013218
19,33,9,8,0,0,0,,1,S,0,S,17,0.019971,0.779991,0.015577
19,34,8,3,0,0,1,,5,S,0,S,15,0.800716,0,0
19,35,4,2,0,0,1,,2,S,0,S,16,0.786628,0.011585,0.009113
19,36,9,4,0,0,1,,5,S,0,S,16,0.754081,0.036371,0.027427
19,37,6,5,0,0,1,,1,S,0,S,20,0.751102,0.047887,0.035968
19,38,3,7,0,0,1,,4,S,0,S,16,0.016251,0.782464,0.012716
19,39,4,3,0,0,1,,1,S,0,S,21,0.754838,0.043066,0.032508
19,40,8,2,0,0,1,,6,S,0,S,13,0.762994,0.017923,0.013675
19,41,7,4,0,0,1,,3,S,0,S,15,0.787222,0.007803,0.006143
19,42,1,2,0,0,1,,1,S,0,S,21,0.020155,0.782149,0.015764
19,43,1,3,0,0,1,,2,S,0,S,16,0.008441,0.7888,0.006658
19,44,4,5,0,0,1,,1,S,0,S,22,0.015062,0.791237,0.011918
19,45,2,8,0,0,1,,6,S,0,S,13,0.020886,0.758164,0.015835
19,46,2,6,0,0,1,,4,S,0,S,15,0.01331,0.776783,0.010339
19,47,6,2,0,0,1,,4,S,0,S,15,0.793553,0.00515,0.004087
19,48,5,8,0,0,1,,3,S,0,S,16,0.016161,0.783973,0.01267
19,49,2,3,0,0,1,,1,S,0,S,19,0.012486,0.787409,0.009832
19,50,9,5,0,0,1,,4,S,0,S,16,0.753181,0.037342,0.028125
19,51,5,9,0,0,1,,4,S,0,S,16,0.010188,0.791197,0.00806
19,52,7,9,0,0,1,,2,S,0,S,22,0.017832,0.788459,0.01406
19,53,5,4,0,0,1,,1,S,0,S,18,0.797358,0.007603,0.006063
19,54,3,6,0,0,1,,3,S,0,S,16,0.02313,0.771752,0.017851
19,55,1,6,0,0,1,,5,S,0,S,14,0.003402,0.787041,0.002678
19,56,7,5,0,0,1,,2,S,0,S,15,0.786929,0.00828,0.006516
19,57,9,2,0,0,1,,7,L,0,S,14,0.790526,0.001651,0.001305
19,58,4,7,0,0,1,,3,S,0,S,16,0.040307,0.751303,0.030282
19,59,3,9,0,0,1,,6,S,0,S,14,0.005574,0.78811,0.004393
19,60,6,3,0,0,1,,3,S,0,S,17,0.755621,0.039766,0.030048
19,61,3,4,0,0,1,,1,S,0,S,19,0.040834,0.756292,0.030882
19,62,4,8,0,0,1,,4,S,0,S,14,0.019941,0.769416,0.015343
19,63,6,7,0,0,1,,1,S,0,S,19,0.01713,0.78965,0.013527
19,64,5,7,0,0,1,,2,S,0,S,26,0.02221,0.78596,0.017456
19,65,5,6,0,0,1,,1,S,0,S,31,0.042004,0.759597,0.031906
19,66,3,2,0,0,1,,1,S,0,S,16,0.75894,0.033537,0.025452
19,67,6,9,0,0,1,,3,S,0,S,15,0.010372,0.788533,0.008179
19,68,3,8,0,0,1,,5,S,0,S,14,0.00851,0.784632,0.006678
19,69,1,4,0,0,1,,3,S,0,S,15,0.009003,0.784887,0.007067
19,70,7,1,0,0,1,,6,S,0,S,13,0.776033,0.009927,0.007703
19,71,3,5,0,0,1,,2,S,0,S,19,0.037142,0.761333,0.028277
19,72,8,9,0,0,1,,1,S,0,S,19,0.020723,0.782472,0.016215
20,1,7,3,0,0,1,,4,S,0,S,14,0.77874,0.012518,0.009748
20,2,3,7,0,0,1,,4,S,0,S,16,0.005821,0.795598,0.004632
20,3,8,4,0,0,1,,4,S,0,S,15,0.755813,0.030271,0.022879
20,4,7,4,0,0,1,,3,S,0,S,15,0.774704,0.018027,0.013966
20,5,7,9,0,0,1,,2,S,0,S,25,0.038987,0.764347,0.0298
20,6,1,2,0,0,1,,1,S,0,S,16,0.001652,0.797464,0.001317
20,7,4,1,0,0,1,,3,S,0,S,18,0.764993,0.032219,0.024647
20,8,9,4,0,0,1,,5,S,0,S,15,0.755716,0.033708,0.025474
20,9,5,2,0,0,1,,3,S,0,S,15,0.800191,0,0
20,10,2,5,0,0,1,,3,S,0,S,16,0.025888,0.769441,0.019919
20,11,8,6,0,0,1,,2,S,0,S,19,0.784235,0.016104,0.01263
20,12,4,6,0,0,1,,2,S,0,S,15,0.035615,0.751156,0.026753
20,13,5,4,0,0,1,,1,S,0,S,17,0.761958,0.030432,0.023188
20,14,9,6,0,0,1,,3,S,0,S,19,0.769834,0.031214,0.02403
20,15,6,5,0,0,1,,1,S,0,S,17,0.765621,0.028522,0.021837
20,16,4,7,0,0,1,,3,S,0,S,15,0.011778,0.783197,0.009225
20,17,9,8,0,0,0,,1,S,0,S,21,0.044127,0.758735,0.03348
20,18,2,7,0,0,1,,5,S,0,S,14,0.025257,0.762296,0.019253
20,19,3,8,0,0,1,,5,S,0,S,15,0.010717,0.787242,0.008437
20,20,6,4,0,0,1,,2,S,0,S,16,0.769401,0.022733,0.017491
20,21,8,2,0,0,1,,6,S,0,S,14,0.793728,0,0
20,22,3,5,0,0,1,,2,S,0,S,19,0.045606,0.750697,0.034236
20,23,6,2,0,0,1,,4,S,0,S,14,0.775063,0.011493,0.008908
20,24,1,6,0,0,1,,5,S,0,S,13,0,0.789207,0
20,25,3,9,0,0,1,,6,S,0,S,15,0.007094,0.790792,0.00561
20,26,5,6,0,0,1,,1,S,0,S,24,0.014964,0.788754,0.011803
20,27,3,2,0,0,1,,1,S,0,S,16,0.764171,0.028566,0.02183
20,28,2,8,0,0,1,,6,S,0,S,14,0.004566,0.790581,0.00361
20,29,6,1,0,0,1,,5,S,0,S,14,0.769869,0.016786,0.012923
20,30,9,5,0,0,1,,4,S,0,S,16,0.764051,0.030912,0.023619
20,31,9,2,0,0,1,,7,L,0,S,14,0.796306,0,0
20,32,1,7,0,0,1,,6,S,0,S,13,0,0.802928,0
20,33,7,8,0,0,1,,1,S,0,S,32,0.033223,0.773548,0.025699
20,34,1,9,0,0,1,,8,L,0,S,12,0.011789,0.763862,0.009005
20,35,8,1,0,0,1,,7,L,0,S,14,0.789557,0.001604,0.001266
20,36,9,1,0,0,1,,8,L,0,S,14,0.791894,0.002826,0.002238
20,37,6,8,0,0,1,,2,S,0,S,19,0.033223,0.7658,0.025442
20,38,7,1,0,0,1,,6,S,0,S,14,0.802,0,0
20,39,3,4,0,0,1,,1,S,0,S,26,0.04272,0.757518,0.032361
20,40,2,9,0,0,1,,7,L,0,S,14,0.002162,0.792656,0.001714
20,41,4,9,0,0,1,,5,S,0,S,14,0.020205,0.767768,0.015513
20,42,1,4,0,0,1,,3,S,0,S,14,0,0.792593,0
20,43,7,6,0,0,1,,1,S,0,S,18,0.779588,0.021168,0.016502
20,44,5,3,0,0,1,,2,S,0,S,15,0.758406,0.029634,0.022475
20,45,1,8,0,0,1,,7,L,0,S,12,0.013079,0.76309,0.00998
20,46,4,8,0,0,1,,4,S,0,S,14,0.023129,0.765046,0.017695
20,47,3,6,0,0,1,,3,S,0,S,16,0.037663,0.75368,0.028386
20,48,3,1,0,0,1,,2,S,0,S,17,0.798056,0.005516,0.004402
20,49,8,9,0,0,1,,1,S,0,S,22,0.027975,0.773607,0.021642
20,50,5,7,0,0,1,,2,S,0,S,19,0.042266,0.752389,0.031801
20,51,2,1,0,0,1,,1,S,0,S,21,0.781051,0.023618,0.018447
20,52,5,8,0,0,1,,3,S,0,S,17,0.033429,0.76155,0.025458
20,53,9,7,0,0,1,,2,S,0,S,23,0.789996,0.018682,0.014759
20,54,8,5,0,0,1,,3,S,0,S,16,0.766127,0.025841,0.019798
20,55,1,5,0,0,1,,4,S,0,S,13,0.020241,0.760174,0.015386
20,56,2,6,0,0,1,,4,S,0,S,15,0.008663,0.787483,0.006822
20,57,8,3,0,0,1,,5,S,0,S,14,0.764532,0.021208,0.016214
20,58,9,3,0,0,1,,6,S,0,S,14,0.766153,0.02312,0.017713
20,59,7,5,0,0,1,,2,S,0,S,16,0.788995,0.010355,0.00817
20,60,8,7,0,0,1,,1,S,0,S,21,0.751289,0.044858,0.033701
20,61,5,1,0,0,1,,4,S,0,S,15,0.793891,0.001687,0.00134
20,62,6,7,0,0,1,,1,S,0,S,26,0.012044,0.794461,0.009568
20,63,6,9,0,0,1,,3,S,0,S,19,0.017872,0.783909,0.01401
20,64,2,4,0,0,1,,2,S,0,S,17,0.036034,0.75839,0.027328
20,65,4,3,0,0,1,,1,S,0,S,22,0.782756,0.021993,0.017215
20,66,1,3,0,0,1,,2,S,0,S,14,0.033161,0.750753,0.024895
20,67,6,3,0,0,1,,3,S,0,S,15,0.791816,0.003982,0.003153
20,68,2,3,0,0,1,,1,S,0,S,23,0.042805,0.758912,0.032485
20,69,7,2,0,0,1,,5,S,0,S,13,0.752766,0.025507,0.019201
20,70,4,5,0,0,1,,1,S,0,S,17,0.035092,0.758907,0.026632
20,71,4,2,0,0,1,,2,S,0,S,18,0.789899,0.010983,0.008675
20,72,5,9,0,0,1,,4,S,0,S,17,0.02497,0.77113,0.019255
21,1,9,5,0,0,1,,4,S,0,S,17,0.765701,0.033035,0.025295
21,2,7,6,0,0,1,,1,S,0,S,24,0.79076,0.01732,0.013696
21,3,2,1,0,0,1,,1,S,0,S,18,0.796614,0.008028,0.006396
21,4,5,3,0,0,1,,2,S,0,S,22,0.762369,0.037303,0.028438
21,5,2,6,0,0,1,,4,S,0,S,16,0.034737,0.760631,0.026422
21,6,8,4,0,0,1,,4,S,0,S,16,0.780059,0.017497,0.013648
21,7,8,6,0,0,1,,2,S,0,S,18,0.788088,0.018016,0.014199
21,8,1,7,0,0,1,,6,S,0,S,13,0.002785,0.781162,0.002175
21,9,8,2,0,0,1,,6,S,0,S,14,0.7603,0.02902,0.022064
21,10,7,8,0,0,1,,1,S,0,S,21,0.045195,0.753533,0.034056
21,11,6,1,0,0,1,,5,S,0,S,15,0.782735,0.010446,0.008176
21,12,4,6,0,0,1,,2,S,0,S,22,0.024471,0.783704,0.019178
21,13,2,7,0,0,1,,5,S,0,S,15,0.022292,0.769207,0.017147
21,14,1,9,0,0,1,,8,L,0,S,13,0,0.796056,0
21,15,3,4,0,0,1,,1,S,0,S,19,0.022782,0.779011,0.017748
21,16,7,2,0,0,1,,5,S,0,S,15,0.757754,0.032685,0.024767
21,17,3,6,0,0,1,,3,S,0,S,16,0.032025,0.764749,0.024491
21,18,4,9,0,0,1,,5,S,0,S,16,0.042762,0.751,0.032114
21,19,6,9,0,0,1,,3,S,0,S,17,0.037072,0.757593,0.028086
21,20,4,2,0,0,1,,2,S,0,S,16,0.774737,0.024332,0.018851
21,21,2,9,0,0,1,,7,L,0,S,15,0.003567,0.796651,0.002842
21,22,9,3,0,0,1,,6,S,0,S,16,0.763221,0.031657,0.024161
21,23,1,3,0,0,1,,2,S,0,S,14,0.00315,0.789606,0.002487
21,24,8,3,0,0,1,,5,S,0,S,16,0.766174,0.031021,0.023767
21,25,2,8,0,0,1,,6,S,0,S,15,0.036294,0.753926,0.027363
21,26,8,5,0,0,1,,3,S,0,S,17,0.768433,0.032598,0.02505
21,27,5,6,0,0,1,,1,S,0,S,22,0.013756,0.792339,0.010899
21,28,6,5,0,0,1,,1,S,0,S,24,0.788784,0.018741,0.014782
21,29,6,8,0,0,1,,2,S,0,S,20,0.028952,0.771984,0.022351
21,30,5,1,0,0,1,,4,S,0,S,15,0.759922,0.0274,0.020822
21,31,4,8,0,0,1,,4,S,0,S,18,0.042214,0.756166,0.031921
21,32,3,5,0,0,1,,2,S,0,S,17,0.009762,0.796562,0.007776
21,33,6,2,0,0,1,,4,S,0,S,16,0.791761,0.008248,0.00653
21,34,9,4,0,0,1,,5,S,0,S,16,0.776921,0.018306,0.014222
21,35,9,6,0,0,1,,3,S,0,S,18,0.785434,0.018408,0.014458
21,36,7,9,0,0,1,,2,S,0,S,18,0.020954,0.781203,0.01637
21,37,6,4,0,0,1,,2,S,0,S,19,0.79155,0.009916,0.007849
21,38,5,7,0,0,1,,2,S,0,S,18,0.007246,0.792854,0.005745
21,39,5,9,0,0,1,,4,S,0,S,17,0.006892,0.795012,0.005479
21,40,7,5,0,0,1,,2,S,0,S,21,0.766657,0.036177,0.027735
21,41,3,1,0,0,1,,2,S,0,S,18,0.794377,0.010336,0.008211
21,42,8,7,0,0,1,,1,S,0,S,24,0.766642,0.036196,0.02775
21,43,1,8,0,0,1,,7,L,0,S,13,0.008141,0.776517,0.006322
21,44,9,1,0,0,1,,8,L,0,S,14,0.784532,0.006863,0.005384
21,45,7,4,0,0,1,,3,S,0,S,18,0.778873,0.019684,0.015331
21,46,4,7,0,0,1,,3,S,0,S,18,0.0071,0.797483,0.005662
21,47,1,5,0,0,1,,4,S,0,S,13,0.025405,0.755096,0.019183
21,48,6,3,0,0,1,,3,S,0,S,19,0.750552,0.045227,0.033945
21,49,9,2,0,0,1,,7,L,0,S,14,0.757455,0.029657,0.022464
21,50,9,8,0,0,1,,1,S,0,S,20,0.759071,0.040901,0.031047
21,51,5,2,0,0,1,,3,S,0,S,16,0.760937,0.031694,0.024117
21,52,6,7,0,0,1,,1,S,0,S,19,0.013011,0.787901,0.010251
21,53,7,1,0,0,1,,6,S,0,S,15,0.794951,0.001719,0.001366
21,54,4,1,0,0,1,,3,S,0,S,15,0.771688,0.021619,0.016683
21,55,3,8,0,0,1,,5,S,0,S,15,0.034216,0.757253,0.02591
21,56,1,2,0,0,1,,1,S,0,S,15,0.020055,0.773107,0.015505
21,57,1,6,0,0,1,,5,S,0,S,13,0.020862,0.760363,0.015863
21,58,2,5,0,0,1,,3,S,0,S,17,0.012778,0.792134,0.010122
21,59,3,9,0,0,1,,6,S,0,S,15,0.001938,0.79933,0.001549
21,60,2,4,0,0,1,,2,S,0,S,19,0.028388,0.771264,0.021894
21,61,1,4,0,0,1,,3,S,0,S,14,0.012657,0.774104,0.009798
21,62,5,8,0,0,1,,3,S,0,S,18,0.040596,0.753548,0.030591
21,63,5,4,0,0,1,,1,S,0,S,20,0.755156,0.038858,0.029344
21,64,8,1,0,0,1,,7,L,0,S,14,0.787409,0.006128,0.004826
21,65,2,3,0,0,1,,1,S,0,S,18,0.025048,0.777448,0.019474
21,66,9,7,0,0,1,,2,S,0,S,24,0.774433,0.028083,0.021749
21,67,4,3,0,0,1,,1,S,0,S,21,0.754823,0.046598,0.035173
21,68,3,2,0,0,1,,1,S,0,S,21,0.784421,0.023467,0.018408
21,69,8,9,0,0,1,,1,S,0,S,23,0.043745,0.760765,0.03328
21,70,7,3,0,0,1,,4,S,0,S,19,0.794574,0.01114,0.008852
21,71,4,5,0,0,1,,1,S,0,S,25,0.037251,0.769879,0.028678
21,72,3,7,0,0,1,,4,S,0,S,15,0.020425,0.772249,0.015773
22,1,3,7,0,0,1,,4,S,0,S,16,0.029114,0.766452,0.022315
22,2,1,5,0,0,1,,4,S,0,S,14,0.034276,0.751368,0.025754
22,3,2,1,0,0,1,,1,S,0,S,25,0.793473,0.014522,0.011523
22,4,4,6,0,0,1,,2,S,0,S,20,0.009562,0.795626,0.007608
22,5,1,8,0,0,1,,7,L,0,S,14,0.015983,0.774416,0.012377
22,6,7,1,0,0,1,,6,S,0,S,14,0.759216,0.028051,0.021297
22,7,5,8,0,0,1,,3,S,0,S,19,0.019167,0.785263,0.015051
22,8,5,4,0,0,1,,1,S,0,S,23,0.794581,0.013056,0.010374
22,9,4,1,0,0,1,,3,S,0,S,15,0.768783,0.024094,0.018523
22,10,3,4,0,0,1,,1,S,0,S,18,0.02147,0.778917,0.016723
22,11,6,4,0,0,1,,2,S,0,S,20,0.774808,0.027213,0.021085
22,12,4,2,0,0,1,,2,S,0,S,17,0.790339,0.012788,0.010107
22,13,2,6,0,0,1,,4,S,0,S,15,0.004114,0.79113,0.003254
22,14,8,7,0,0,1,,1,S,0,S,18,0.751345,0.04854,0.03647
22,15,5,6,0,0,1,,1,S,0,S,20,0.014705,0.789106,0.011604
22,16,5,3,0,0,1,,2,S,0,S,17,0.787093,0.01298,0.010216
22,17,7,8,0,0,1,,1,S,0,S,27,0.030675,0.775849,0.023799
22,18,5,1,0,0,1,,4,S,0,S,15,0.770238,0.022892,0.017632
22,19,8,4,0,0,1,,4,S,0,S,17,0.795493,0.010095,0.008031
22,20,8,9,0,0,1,,1,S,0,S,39,0.027699,0.783942,0.021715
22,21,3,1,0,0,1,,2,S,0,S,18,0.796447,0.008384,0.006677
22,22,8,5,0,0,1,,3,S,0,S,18,0.779177,0.026445,0.020605
22,23,2,7,0,0,1,,5,S,0,S,15,0.010129,0.786737,0.007969
22,24,6,3,0,0,1,,3,S,0,S,16,0.766209,0.027094,0.02076
22,25,3,8,0,0,1,,5,S,0,S,16,0.006848,0.794006,0.005438
22,26,9,4,0,0,1,,5,S,0,S,17,0.780129,0.019388,0.015125
22,27,4,8,0,0,1,,4,S,0,S,19,0.015021,0.790549,0.011875
22,28,5,2,0,0,1,,3,S,0,S,17,0.792793,0.010765,0.008534
22,29,8,6,0,0,1,,2,S,0,S,20,0.789573,0.017395,0.013735
22,30,9,7,0,0,1,,2,S,0,S,19,0.77596,0.027271,0.021161
22,31,5,9,0,0,1,,4,S,0,S,17,0.035904,0.761172,0.027329
22,32,6,1,0,0,1,,5,S,0,S,15,0.787325,0.009466,0.007453
22,33,3,9,0,0,1,,6,S,0,S,15,0.019445,0.77497,0.015069
22,34,6,2,0,0,1,,4,S,0,S,16,0.771692,0.025094,0.019365
22,35,2,4,0,0,1,,2,S,0,S,16,0.010839,0.787389,0.008534
22,36,1,2,0,0,1,,1,S,0,S,17,0.033455,0.764071,0.025562
22,37,3,5,0,0,1,,2,S,0,S,16,0.040541,0.751821,0.030479
22,38,8,2,0,0,1,,6,S,0,S,15,0.793193,0.008196,0.006501
22,39,9,8,0,0,1,,1,S,0,S,21,0.758593,0.042055,0.031903
22,40,1,9,0,0,1,,8,L,0,S,14,0.001893,0.793347,0.001501
22,41,8,3,0,0,1,,5,S,0,S,15,0.788365,0.009849,0.007765
22,42,7,3,0,0,1,,4,S,0,S,15,0.750791,0.036831,0.027652
22,43,4,5,0,0,1,,1,S,0,S,22,0.031513,0.7735,0.024375
22,44,4,7,0,0,1,,3,S,0,S,21,0.015225,0.793122,0.012075
22,45,7,9,0,0,1,,2,S,0,S,20,0.035415,0.767602,0.027185
22,46,6,5,0,0,1,,1,S,0,S,31,0.789239,0.020028,0.015807
22,47,2,3,0,0,1,,1,S,0,S,19,0.019495,0.78136,0.015232
22,48,7,4,0,0,1,,3,S,0,S,18,0.771599,0.028374,0.021893
22,49,9,1,0,0,1,,8,L,0,S,14,0.777924,0.013144,0.010225
22,50,2,8,0,0,1,,6,S,0,S,14,0.031924,0.752754,0.024031
22,51,1,6,0,0,1,,5,S,0,S,14,0.023024,0.762679,0.01756
22,52,4,9,0,0,1,,5,S,0,S,17,0.033193,0.764718,0.025383
22,53,7,5,0,0,1,,2,S,0,S,21,0.79306,0.015825,0.01255
22,54,6,8,0,0,1,,2,S,0,S,20,0.042406,0.75704,0.032103
22,55,7,6,0,0,1,,1,S,0,S,27,0.789909,0.016927,0.01337
22,56,1,7,0,0,1,,6,S,0,S,14,0.028323,0.759124,0.021501
22,57,2,5,0,0,1,,3,S,0,S,15,0.017024,0.777884,0.013243
22,58,8,1,0,0,1,,7,L,0,S,14,0.786788,0.008863,0.006973
22,59,7,2,0,0,1,,5,S,0,S,15,0.75594,0.035094,0.026529
22,60,6,9,0,0,1,,3,S,0,S,18,0.034111,0.765427,0.02611
22,61,9,6,0,0,1,,3,S,0,S,20,0.759846,0.037982,0.02886
22,62,3,2,0,0,1,,1,S,0,S,24,0.787109,0.020367,0.016031
22,63,1,3,0,0,1,,2,S,0,S,17,0.037495,0.755888,0.028342
22,64,9,2,0,0,1,,7,L,0,S,15,0.782675,0.013747,0.01076
22,65,2,9,0,0,1,,7,L,0,S,14,0.015797,0.774453,0.012234
22,66,4,3,0,0,1,,1,S,0,S,17,0.784632,0.014998,0.011768
22,67,5,7,0,0,1,,2,S,0,S,21,0.022786,0.78362,0.017856
22,68,9,3,0,0,1,,6,S,0,S,15,0.777656,0.015489,0.012045
22,69,3,6,0,0,1,,3,S,0,S,16,0.018595,0.776356,0.014437
22,70,1,4,0,0,1,,3,S,0,S,15,0.02309,0.768954,0.017755
22,71,6,7,0,0,1,,1,S,0,S,25,0.028626,0.777928,0.022269
22,72,9,5,0,0,1,,4,S,0,S,18,0.758511,0.039826,0.030208
23,1,4,2,0,0,1,,2,S,0,S,17,0.782808,0.01397,0.010936
23,2,1,2,0,0,1,,1,S,0,S,19,0.015056,0.784228,0.011807
23,3,9,4,0,0,1,,5,S,0,S,16,0.772324,0.022729,0.017554
23,4,1,8,0,0,1,,7,L,0,S,13,0.020059,0.757581,0.015196
23,5,4,5,0,0,1,,1,S,0,S,19,0.036447,0.761052,0.027738
23,6,5,3,0,0,1,,2,S,0,S,17,0.797605,0.004147,0.003307
23,7,4,8,0,0,1,,4,S,0,S,15,0.032895,0.752645,0.024759
23,8,5,7,0,0,1,,2,S,0,S,21,0.015389,0.792651,0.012198
23,9,5,8,0,0,1,,3,S,0,S,17,0.028805,0.768423,0.022134
23,10,3,6,0,0,1,,3,S,0,S,15,0.029398,0.762575,0.022419
23,11,4,3,0,0,1,,1,S,0,S,20,0.768713,0.027317,0.020999
23,12,4,1,0,0,1,,3,S,0,S,15,0.794132,0.002052,0.00163
23,13,1,4,0,0,1,,3,S,0,S,15,0.030182,0.755203,0.022793
23,14,7,3,0,0,1,,4,S,0,S,16,0.786105,0.009726,0.007646
23,15,7,1,0,0,1,,6,S,0,S,13,0.756284,0.023864,0.018048
23,16,3,9,0,0,1,,6,S,0,S,15,0.001632,0.799338,0.001305
23,17,2,5,0,0,1,,3,S,0,S,16,0.002013,0.798356,0.001607
23,18,6,8,0,0,1,,2,S,0,S,16,0.038611,0.752982,0.029073
23,19,2,7,0,0,1,,5,S,0,S,15,0.00206,0.79404,0.001635
23,20,2,4,0,0,1,,2,S,0,S,17,0.014995,0.781393,0.011717
23,21,8,6,0,0,1,,2,S,0,S,17,0.775987,0.022276,0.017286
23,22,3,5,0,0,1,,2,S,0,S,16,0.015181,0.785373,0.011923
23,23,6,2,0,0,1,,4,S,0,S,15,0.753283,0.034993,0.026359
23,24,2,8,0,0,1,,6,S,0,S,14,0.008673,0.779306,0.006759
23,25,2,3,0,0,1,,1,S,0,S,19,0.009822,0.789575,0.007756
23,26,5,6,0,0,1,,1,S,0,S,27,0.038149,0.766495,0.029241
23,27,5,1,0,0,1,,4,S,0,S,14,0.795385,0.000259,0.000206
23,28,6,1,0,0,1,,5,S,0,S,14,0.783055,0.00974,0.007627
23,29,4,9,0,0,1,,5,S,0,S,16,0.034981,0.756704,0.02647
23,30,3,1,0,0,1,,2,S,0,S,16,0.769246,0.027093,0.020841
23,31,7,8,0,0,1,,1,S,0,S,19,0.016536,0.785534,0.01299
23,32,9,6,0,0,1,,3,S,0,S,19,0.783236,0.020872,0.016348
23,33,5,9,0,0,1,,4,S,0,S,19,0.039703,0.761483,0.030233
23,34,2,9,0,0,1,,7,L,0,S,14,0.02913,0.755266,0.022001
23,35,2,6,0,0,1,,4,S,0,S,15,0.018416,0.772977,0.014235
23,36,6,5,0,0,1,,1,S,0,S,32,0.783886,0.025176,0.019735
23,37,5,2,0,0,1,,3,S,0,S,15,0.7738,0.019148,0.014817
23,38,7,4,0,0,1,,3,S,0,S,17,0.784573,0.014211,0.01115
23,39,5,4,0,0,1,,1,S,0,S,18,0.775753,0.024296,0.018847
23,40,9,5,0,0,1,,4,S,0,S,17,0.755179,0.040836,0.030839
23,41,6,7,0,0,1,,1,S,0,S,19,0.021794,0.782625,0.017057
23,42,6,9,0,0,1,,3,S,0,S,18,0.027275,0.775466,0.02115
23,43,9,1,0,0,1,,8,L,0,S,13,0.769971,0.014396,0.011084
23,44,7,5,0,0,1,,2,S,0,S,19,0.790331,0.014859,0.011743
23,45,1,9,0,0,1,,8,L,0,S,14,0.000376,0.792471,0.000298
23,46,8,3,0,0,1,,5,S,0,S,15,0.794761,0,0
23,47,4,7,0,0,1,,3,S,0,S,17,0.016042,0.782383,0.012551
23,48,9,7,0,0,1,,2,S,0,S,21,0.768374,0.034333,0.026381
23,49,8,4,0,0,1,,4,S,0,S,15,0.763648,0.025197,0.019241
23,50,1,7,0,0,1,,6,S,0,S,14,0.007085,0.782587,0.005545
23,51,8,1,0,0,1,,7,L,0,S,13,0.785408,0.001518,0.001192
23,52,8,5,0,0,1,,3,S,0,S,16,0.768669,0.026533,0.020395
23,53,1,5,0,0,1,,4,S,0,S,15,0,0.800348,0
23,54,4,6,0,0,1,,2,S,0,S,18,0.017235,0.782887,0.013493
23,55,7,9,0,0,1,,2,S,0,S,24,0.032336,0.77236,0.024975
23,56,3,8,0,0,1,,5,S,0,S,14,0.015307,0.774208,0.011851
23,57,7,6,0,0,1,,1,S,0,S,21,0.775002,0.027962,0.02167
23,58,9,3,0,0,1,,6,S,0,S,15,0.763631,0.025391,0.01939
23,59,1,3,0,0,1,,2,S,0,S,16,0.031879,0.755043,0.02407
23,60,6,3,0,0,1,,3,S,0,S,17,0.764224,0.030406,0.023237
23,61,3,2,0,0,1,,1,S,0,S,22,0.76969,0.032285,0.024849
23,62,9,2,0,0,1,,7,L,0,S,14,0.765238,0.02152,0.016468
23,63,8,9,0,0,0,,1,S,0,S,19,0.787958,0.016586,0.013069
23,64,6,4,0,0,1,,2,S,0,S,19,0.76492,0.034075,0.026065
23,65,7,2,0,0,1,,5,S,0,S,15,0.796837,0,0
23,66,3,4,0,0,1,,1,S,0,S,17,0.036404,0.758093,0.027598
23,67,9,8,0,0,0,,1,S,0,S,21,0.013456,0.792645,0.010666
23,68,8,2,0,0,1,,6,S,0,S,14,0.787799,0.002959,0.002331
23,69,2,1,0,0,1,,1,S,0,S,17,0.781726,0.016388,0.012811
23,70,1,6,0,0,1,,5,S,0,S,14,0.019357,0.766563,0.014838
23,71,8,7,0,0,1,,1,S,0,S,18,0.772963,0.026258,0.020296
23,72,3,7,0,0,1,,4,S,0,S,15,0.011073,0.786096,0.008705
24,1,4,3,0,0,1,,1,S,0,S,17,0.758201,0.038396,0.029112
24,2,7,2,0,0,1,,5,S,0,S,14,0.798619,0,0
24,3,4,9,0,0,1,,5,S,0,S,15,0.006715,0.79243,0.005321
24,4,8,1,0,0,1,,7,L,0,S,12,0.750375,0.018578,0.01394
24,5,2,6,0,0,1,,4,S,0,S,16,0.004664,0.798231,0.003723
24,6,9,3,0,0,1,,6,S,0,S,15,0.788561,0.008206,0.006471
24,7,6,8,0,0,1,,2,S,0,S,15,0.024533,0.768631,0.018857
24,8,8,3,0,0,1,,5,S,0,S,15,0.794052,0.002392,0.0019
24,9,6,1,0,0,1,,5,S,0,S,13,0.764432,0.017651,0.013493
24,10,4,5,0,0,1,,1,S,0,S,26,0.042191,0.760346,0.03208
24,11,6,5,0,0,0,,1,S,0,S,26,0.028564,0.778384,0.022234
24,12,5,8,0,0,1,,3,S,0,S,15,0.021457,0.767979,0.016479
24,13,9,1,0,0,1,,8,L,0,S,13,0.80479,0,0
24,14,3,2,0,0,1,,1,S,0,S,17,0.750867,0.042824,0.032155
24,15,1,2,0,0,1,,1,S,0,S,19,0.021405,0.780642,0.01671
24,16,2,8,0,0,1,,6,S,0,S,14,0.00476,0.788846,0.003755
24,17,3,9,0,0,1,,6,S,0,S,14,0.015549,0.776858,0.012079
24,18,9,4,0,0,1,,5,S,0,S,16,0.791274,0.007219,0.005712
24,19,2,5,0,0,1,,3,S,0,S,17,0.006376,0.798118,0.005089
24,20,1,5,0,0,1,,4,S,0,S,15,0.010017,0.786583,0.007879
24,21,1,3,0,0,1,,2,S,0,S,17,0.013229,0.789783,0.010448
24,22,1,8,0,0,1,,7,L,0,S,13,0.009807,0.77523,0.007602
24,23,4,7,0,0,1,,3,S,0,S,18,0.027642,0.772796,0.021361
24,24,4,6,0,0,1,,2,S,0,S,19,0.043032,0.755726,0.03252
24,25,7,4,0,0,1,,3,S,0,S,15,0.79135,0.004595,0.003637
24,26,6,7,0,0,1,,1,S,0,S,18,0.025499,0.77647,0.0198
24,27,3,7,0,0,1,,4,S,0,S,16,0.032233,0.762728,0.024585
24,28,4,1,0,0,1,,3,S,0,S,13,0.763245,0.017913,0.013672
24,29,9,7,0,0,1,,2,S,0,S,20,0.7897,0.014891,0.011759
24,30,8,5,0,0,1,,3,S,0,S,16,0.753362,0.036012,0.02713
24,31,5,4,0,0,1,,1,S,0,S,22,0.791567,0.011844,0.009375
24,32,7,9,0,0,1,,2,S,0,S,21,0.031185,0.77201,0.024075
24,33,7,5,0,0,1,,2,S,0,S,15,0.756934,0.032098,0.024296
24,34,8,4,0,0,1,,4,S,0,S,16,0.799223,0,0
24,35,6,9,0,0,1,,3,S,0,S,15,0.005707,0.794588,0.004535
24,36,5,2,0,0,1,,3,S,0,S,16,0.753816,0.034608,0.026088
24,37,5,1,0,0,1,,4,S,0,S,13,0.752357,0.023492,0.017675
24,38,1,6,0,0,1,,5,S,0,S,14,0.023602,0.764676,0.018048
24,39,3,8,0,0,1,,5,S,0,S,14,0.030368,0.755788,0.022952
24,40,5,3,0,0,1,,2,S,0,S,18,0.776256,0.02271,0.017629
24,41,9,8,0,0,0,,1,S,0,S,19,0.01762,0.784793,0.013828
24,42,2,3,0,0,1,,1,S,0,S,22,0.040488,0.76272,0.030881
24,43,3,4,0,0,1,,1,S,0,S,24,0.021126,0.785713,0.016599
24,44,5,9,0,0,1,,4,S,0,S,15,0.003421,0.7931,0.002713
24,45,3,6,0,0,1,,3,S,0,S,17,0.022526,0.778648,0.01754
24,46,7,1,0,0,1,,6,S,0,S,12,0.767262,0.007589,0.005823
24,47,8,2,0,0,1,,6,S,0,S,14,0.770908,0.014946,0.011522
24,48,4,2,0,0,1,,2,S,0,S,16,0.775033,0.021097,0.016351
24,49,2,9,0,0,1,,7,L,0,S,13,0.028834,0.752462,0.021697
24,50,2,4,0,0,1,,2,S,0,S,18,0.033107,0.765298,0.025337
24,51,8,9,0,0,1,,1,S,0,S,18,0.02619,0.772279,0.020226
24,52,9,5,0,0,1,,4,S,0,S,17,0.789242,0.01174,0.009266
24,53,4,8,0,0,1,,4,S,0,S,15,0.025647,0.766282,0.019653
24,54,5,7,0,0,1,,2,S,0,S,18,0.014984,0.784833,0.01176
24,55,5,6,0,0,1,,1,S,0,S,19,0.022538,0.777532,0.017524
24,56,8,7,0,0,1,,1,S,0,S,19,0.777353,0.022079,0.017163
24,57,7,3,0,0,1,,4,S,0,S,14,0.776016,0.014322,0.011114
24,58,7,6,0,0,1,,1,S,0,S,16,0.764999,0.029254,0.022379
24,59,1,7,0,0,1,,6,S,0,S,14,0.012544,0.778401,0.009764
24,60,3,5,0,0,1,,2,S,0,S,19,0.016464,0.789263,0.012994
24,61,6,2,0,0,1,,4,S,0,S,16,0.776354,0.020791,0.016141
24,62,1,9,0,0,1,,8,L,0,S,13,0.000656,0.788959,0.000518
24,63,2,7,0,0,1,,5,S,0,S,15,0.02344,0.769917,0.018047
24,64,6,3,0,0,1,,3,S,0,S,17,0.759343,0.038264,0.029055
24,65,9,2,0,0,1,,7,L,0,S,14,0.76684,0.01956,0.014999
24,66,3,1,0,0,1,,2,S,0,S,14,0.793003,0.000592,0.000469
24,67,7,8,0,0,1,,1,S,0,S,31,0.046952,0.752575,0.035335
24,68,9,6,0,0,1,,3,S,0,S,18,0.766507,0.031813,0.024385
24,69,8,6,0,0,1,,2,S,0,S,18,0.787945,0.013111,0.01033
24,70,6,4,0,0,1,,2,S,0,S,20,0.764737,0.036187,0.027674
24,71,2,1,0,0,1,,1,S,0,S,14,0.760549,0.025274,0.019222
24,72,1,4,0,0,1,,3,S,0,S,16,0.005346,0.795011,0.00425
25,1,8,6,0,0,1,,2,S,0,S,22,0.791848,0.016977,0.013443
25,2,7,5,0,0,1,,2,S,0,S,19,0.792985,0.012233,0.009701
25,3,6,2,0,0,1,,4,S,0,S,16,0.773094,0.024181,0.018695
25,4,1,9,0,0,1,,8,L,0,S,13,0.016536,0.76863,0.01271
25,5,6,9,0,0,1,,3,S,0,S,18,0.047864,0.752047,0.035996
25,6,8,5,0,0,1,,3,S,0,S,18,0.771995,0.030957,0.023899
25,7,6,4,0,0,1,,2,S,0,S,20,0.788306,0.017847,0.014069
25,8,7,1,0,0,1,,6,S,0,S,14,0.763337,0.022394,0.017094
25,9,5,3,0,0,1,,2,S,0,S,20,0.763166,0.037804,0.02885
25,10,4,8,0,0,1,,4,S,0,S,17,0.018063,0.781646,0.014119
25,11,5,4,0,0,1,,1,S,0,S,24,0.795171,0.012953,0.0103
25,12,6,7,0,0,1,,1,S,0,S,23,0.026591,0.783713,0.02084
25,13,3,7,0,0,1,,4,S,0,S,17,0.012791,0.789833,0.010103
25,14,4,7,0,0,1,,3,S,0,S,19,0.025823,0.779025,0.020117
25,15,5,7,0,0,1,,2,S,0,S,19,0.046648,0.75375,0.035161
25,16,3,5,0,0,1,,2,S,0,S,18,0.026112,0.77294,0.020183
25,17,9,1,0,0,1,,8,L,0,S,13,0.795167,0,0
25,18,4,3,0,0,1,,1,S,0,S,21,0.765431,0.035971,0.027533
25,19,7,8,0,0,1,,1,S,0,S,22,0.020584,0.78366,0.016131
25,20,7,4,0,0,1,,3,S,0,S,18,0.794857,0.007993,0.006354
25,21,1,8,0,0,1,,7,L,0,S,13,0.015182,0.767316,0.01165
25,22,2,1,0,0,1,,1,S,0,S,17,0.77013,0.026941,0.020748
25,23,5,1,0,0,1,,4,S,0,S,15,0.764967,0.026242,0.020074
25,24,9,8,0,0,1,,1,S,0,S,16,0.794512,0.005802,0.00461
25,25,8,2,0,0,1,,6,S,0,S,15,0.774171,0.021021,0.016274
25,26,4,2,0,0,1,,2,S,0,S,17,0.764907,0.03103,0.023735
25,27,1,2,0,0,1,,1,S,0,S,16,0.005861,0.793841,0.004653
25,28,4,1,0,0,1,,3,S,0,S,15,0.755449,0.03294,0.024884
25,29,3,1,0,0,1,,2,S,0,S,17,0.787455,0.01146,0.009024
25,30,8,9,0,0,1,,1,S,0,S,25,0.024707,0.787648,0.01946
25,31,2,9,0,0,1,,7,L,0,S,15,0.031044,0.762354,0.023667
25,32,1,4,0,0,1,,3,S,0,S,14,0.023688,0.762134,0.018053
25,33,8,1,0,0,1,,7,L,0,S,14,0.774193,0.016878,0.013067
25,34,9,7,0,0,1,,2,S,0,S,15,0.79574,0.004617,0.003674
25,35,1,3,0,0,1,,2,S,0,S,15,0,0.800683,0
25,36,1,5,0,0,1,,4,S,0,S,14,0.010931,0.780586,0.008533
25,37,4,6,0,0,1,,2,S,0,S,19,0.010825,0.793754,0.008593
25,38,7,3,0,0,1,,4,S,0,S,17,0.786681,0.013931,0.010959
25,39,2,6,0,0,1,,4,S,0,S,16,0.025174,0.769769,0.019378
25,40,5,9,0,0,1,,4,S,0,S,17,0.036439,0.76281,0.027796
25,41,6,1,0,0,1,,5,S,0,S,15,0.790885,0.00712,0.005631
25,42,2,4,0,0,1,,2,S,0,S,18,0.043508,0.75123,0.032685
25,43,3,2,0,0,1,,1,S,0,S,20,0.763483,0.034357,0.026231
25,44,9,5,0,0,1,,4,S,0,S,14,0.76409,0.023858,0.01823
25,45,3,8,0,0,1,,5,S,0,S,16,0.004277,0.794639,0.003399
25,46,9,2,0,0,1,,7,L,0,S,13,0.767202,0.015336,0.011766
25,47,5,8,0,0,1,,3,S,0,S,17,0.027624,0.770397,0.021281
25,48,2,7,0,0,1,,5,S,0,S,16,0.030684,0.766636,0.023523
25,49,6,8,0,0,1,,2,S,0,S,18,0.033683,0.766285,0.025811
25,50,5,2,0,0,1,,3,S,0,S,17,0.780497,0.019452,0.015183
25,51,3,4,0,0,1,,1,S,0,S,20,0.008987,0.795,0.007145
25,52,8,7,0,0,1,,1,S,0,S,20,0.762327,0.042718,0.032565
25,53,9,6,0,0,1,,3,S,0,S,15,0.781395,0.012952,0.010121
25,54,4,9,0,0,1,,5,S,0,S,17,0.025764,0.775442,0.019978
25,55,2,5,0,0,1,,3,S,0,S,17,0.036352,0.760219,0.027635
25,56,8,3,0,0,1,,5,S,0,S,16,0.755614,0.039244,0.029654
25,57,7,2,0,0,1,,5,S,0,S,15,0.760771,0.028448,0.021643
25,58,2,3,0,0,1,,1,S,0,S,20,0.023239,0.780932,0.018148
25,59,7,6,0,0,1,,1,S,0,S,23,0.774003,0.028287,0.021894
25,60,6,5,0,0,1,,1,S,0,S,22,0.750432,0.051025,0.038291
25,61,2,8,0,0,1,,6,S,0,S,15,0.027127,0.763968,0.020725
25,62,6,3,0,0,1,,3,S,0,S,18,0.763119,0.036747,0.028042
25,63,8,4,0,0,1,,4,S,0,S,17,0.768291,0.030585,0.023498
25,64,9,4,0,0,1,,5,S,0,S,14,0.775991,0.013339,0.010351
25,65,3,9,0,0,1,,6,S,0,S,16,0.008371,0.792816,0.006637
25,66,4,5,0,0,1,,1,S,0,S,23,0.013676,0.795099,0.010874
25,67,1,7,0,0,1,,6,S,0,S,14,0,0.802038,0
25,68,7,9,0,0,1,,2,S,0,S,23,0.036737,0.767791,0.028207
25,69,1,6,0,0,1,,5,S,0,S,14,0,0.800279,0
25,70,5,6,0,0,1,,1,S,0,S,19,0.02789,0.773244,0.021566
25,71,9,3,0,0,1,,6,S,0,S,14,0.79044,0.003116,0.002463
25,72,3,6,0,0,1,,3,S,0,S,17,0.006633,0.793737,0.005265
26,1,3,6,0,0,1,,3,S,0,S,16,0.043559,0.75059,0.032695
26,2,1,2,0,0,1,,1,S,0,S,18,0.02991,0.766281,0.022919
26,3,4,9,0,0,1,,5,S,0,S,15,0.014516,0.782176,0.011354
26,4,2,5,0,0,1,,3,S,0,S,15,0.031046,0.759216,0.023571
26,5,8,5,0,0,1,,3,S,0,S,15,0.775056,0.020808,0.016127
26,6,4,2,0,0,1,,2,S,0,S,14,0.77854,0.012551,0.009771
26,7,7,6,0,0,1,,1,S,0,S,18,0.781729,0.02263,0.01769
26,8,1,5,0,0,1,,4,S,0,S,13,0.018144,0.764871,0.013878
26,9,5,4,0,0,1,,1,S,0,S,17,0.757358,0.037382,0.028311
26,10,1,9,0,0,1,,8,L,0,S,12,0.005453,0.771402,0.004207
26,11,7,1,0,0,1,,6,S,0,S,13,0.772207,0.013394,0.010343
26,12,7,5,0,0,1,,2,S,0,S,16,0.785393,0.015584,0.012239
26,13,9,3,0,0,1,,6,S,0,S,16,0.764435,0.032577,0.024903
26,14,8,4,0,0,1,,4,S,0,S,15,0.800768,0,0
26,15,3,5,0,0,1,,2,S,0,S,20,0.013266,0.796297,0.010564
26,16,5,1,0,0,1,,4,S,0,S,14,0.780455,0.012568,0.009809
26,17,1,8,0,0,1,,7,L,0,S,13,0,0.803183,0
26,18,5,8,0,0,1,,3,S,0,S,19,0.017711,0.788929,0.013973
26,19,9,7,0,0,1,,2,S,0,S,20,0.789428,0.016974,0.0134
26,20,5,6,0,0,1,,1,S,0,S,22,0.032139,0.774945,0.024906
26,21,5,2,0,0,1,,3,S,0,S,13,0.751216,0.027937,0.020987
26,22,9,5,0,0,1,,4,S,0,S,16,0.751072,0.044113,0.033132
26,23,4,8,0,0,1,,4,S,0,S,17,0.010041,0.795495,0.007988
26,24,9,8,0,0,1,,1,S,0,S,26,0.770054,0.037288,0.028714
26,25,9,2,0,0,1,,7,L,0,S,13,0.781065,0.006244,0.004877
26,26,2,8,0,0,1,,6,S,0,S,14,0.010544,0.780054,0.008225
26,27,7,2,0,0,1,,5,S,0,S,13,0.789799,0,0
26,28,7,9,0,0,1,,2,S,0,S,19,0.046086,0.751112,0.034616
26,29,3,2,0,0,1,,1,S,0,S,14,0.753096,0.031531,0.023746
26,30,6,9,0,0,1,,3,S,0,S,15,0.034253,0.756848,0.025924
26,31,8,1,0,0,1,,7,L,0,S,13,0.788699,0.000918,0.000724
26,32,7,3,0,0,1,,4,S,0,S,16,0.795089,0.006915,0.005498
26,33,5,7,0,0,1,,2,S,0,S,22,0.047244,0.751603,0.035509
26,34,6,8,0,0,1,,2,S,0,S,18,0.01173,0.795468,0.009331
26,35,8,9,0,0,1,,1,S,0,S,27,0.026963,0.77947,0.021017
26,36,6,7,0,0,1,,1,S,0,S,20,0.021424,0.783125,0.016777
26,37,4,6,0,0,1,,2,S,0,S,18,0.021911,0.78389,0.017175
26,38,6,5,0,0,1,,1,S,0,S,22,0.794282,0.016773,0.013322
26,39,1,6,0,0,1,,5,S,0,S,13,0,0.792384,0
26,40,3,9,0,0,1,,6,S,0,S,14,0.029374,0.757252,0.022243
26,41,1,3,0,0,1,,2,S,0,S,13,0.02289,0.757381,0.017337
26,42,7,8,0,0,0,,1,S,0,S,20,0.765846,0.036507,0.027959
26,43,3,4,0,0,1,,1,S,0,S,36,0.030108,0.774644,0.023323
26,44,1,4,0,0,1,,3,S,0,S,14,0.000197,0.791401,0.000156
26,45,9,4,0,0,1,,5,S,0,S,16,0.794979,0.006659,0.005294
26,46,2,4,0,0,1,,2,S,0,S,16,0.034543,0.75466,0.026068
26,47,6,4,0,0,1,,2,S,0,S,18,0.760674,0.036967,0.02812
26,48,2,1,0,0,1,,1,S,0,S,19,0.75191,0.044248,0.033271
26,49,4,7,0,0,1,,3,S,0,S,18,0.028738,0.77116,0.022162
26,50,7,4,0,0,1,,3,S,0,S,15,0.769658,0.022109,0.017016
26,51,3,8,0,0,1,,5,S,0,S,16,0.010145,0.79194,0.008034
26,52,5,9,0,0,1,,4,S,0,S,16,0.016721,0.782509,0.013085
26,53,9,6,0,0,1,,3,S,0,S,20,0.796406,0.014708,0.011714
26,54,8,2,0,0,1,,6,S,0,S,13,0.804061,0,0
26,55,2,6,0,0,1,,4,S,0,S,14,0.02666,0.76016,0.020266
26,56,2,7,0,0,1,,5,S,0,S,14,0.029848,0.752144,0.02245
26,57,2,9,0,0,1,,7,L,0,S,13,0.01575,0.765611,0.012058
26,58,1,7,0,0,1,,6,S,0,S,13,0,0.786064,0
26,59,8,7,0,0,1,,1,S,0,S,17,0.795484,0.006925,0.005509
26,60,4,5,0,0,1,,1,S,0,S,27,0.019396,0.792466,0.015371
26,61,9,1,0,0,1,,8,L,0,S,13,0.761525,0.022854,0.017404
26,62,5,3,0,0,1,,2,S,0,S,19,0.790849,0.015777,0.012477
26,63,4,1,0,0,1,,3,S,0,S,15,0.79935,0.002006,0.001604
26,64,4,3,0,0,1,,1,S,0,S,26,0.768818,0.037174,0.02858
26,65,8,3,0,0,1,,5,S,0,S,15,0.782308,0.014156,0.011074
26,66,3,1,0,0,1,,2,S,0,S,15,0.767364,0.026447,0.020294
26,67,8,6,0,0,1,,2,S,0,S,16,0.753903,0.040618,0.030622
26,68,6,1,0,0,1,,5,S,0,S,14,0.76761,0.022897,0.017576
