ANN,trial,N1,N2,P1,P2,Succ.,,Ndist,Ndist,Pdist,Pdist,rt,a1,a2,x_acc
1,1,5,1,0,0,1,,4,S,0,S,13,0.752731,0.028086,0.021141
1,2,7,5,0,0,1,,2,S,0,S,18,0.795546,0.008723,0.006939
1,3,8,6,0,0,0,,2,S,0,S,18,0.038349,0.759431,0.029124
1,4,6,8,0,0,1,,2,S,0,S,15,0.010767,0.785111,0.008453
1,5,2,9,0,0,1,,7,L,0,S,15,0.008024,0.789636,0.006336
1,6,2,7,0,0,1,,5,S,0,S,15,0.035564,0.753218,0.026787
1,7,1,3,0,0,1,,2,S,0,S,16,0.031027,0.763543,0.02369
1,8,7,8,0,0,1,,1,S,0,S,16,0.017863,0.779225,0.013919
1,9,2,4,0,0,1,,2,S,0,S,19,0.021656,0.784992,0.017
1,10,3,6,0,0,1,,3,S,0,S,13,0.018961,0.764373,0.014493
1,11,3,9,0,0,1,,6,S,0,S,14,0.005294,0.788181,0.004172
1,12,5,3,0,0,1,,2,S,0,S,17,0.781566,0.018996,0.014847
1,13,8,2,0,0,1,,6,S,0,S,14,0.792516,0.002869,0.002273
1,14,4,5,0,0,1,,1,S,0,S,19,0.028308,0.771107,0.021829
1,15,2,3,0,0,1,,1,S,0,S,28,0.032733,0.771626,0.025257
1,16,5,9,0,0,1,,4,S,0,S,17,0.026059,0.773594,0.020159
1,17,9,8,0,0,1,,1,S,0,S,20,0.773411,0.0293,0.022661
1,18,7,1,0,0,1,,6,S,0,S,13,0.769676,0.01467,0.011291
1,19,9,2,0,0,1,,7,L,0,S,13,0.798267,0,0
1,20,9,5,0,0,1,,4,S,0,S,14,0.778231,0.01292,0.010055
1,21,1,7,0,0,1,,6,S,0,S,14,0.004571,0.789022,0.003607
1,22,2,5,0,0,1,,3,S,0,S,19,0.010038,0.795702,0.007987
1,23,9,3,0,0,1,,6,S,0,S,13,0.755211,0.025482,0.019244
1,24,8,5,0,0,1,,3,S,0,S,16,0.770625,0.024295,0.018723
1,25,5,7,0,0,1,,2,S,0,S,19,0.022362,0.780894,0.017463
1,26,8,1,0,0,1,,7,L,0,S,13,0.788787,0,0
1,27,1,4,0,0,1,,3,S,0,S,15,0.023198,0.773287,0.017938
1,28,6,9,0,0,1,,3,S,0,S,16,0.039749,0.752791,0.029923
1,29,7,2,0,0,1,,5,S,0,S,14,0.764342,0.024926,0.019052
1,30,9,1,0,0,1,,8,L,0,S,12,0.777081,0.003349,0.002603
1,31,5,8,0,0,1,,3,S,0,S,15,0.023026,0.769767,0.017724
1,32,6,3,0,0,1,,3,S,0,S,18,0.794497,0.009966,0.007918
1,33,3,7,0,0,1,,4,S,0,S,14,0.024183,0.762685,0.018444
1,34,4,8,0,0,1,,4,S,0,S,14,0.007898,0.782542,0.006181
1,35,4,9,0,0,1,,5,S,0,S,15,0.01372,0.780814,0.010713
1,36,1,2,0,0,1,,1,S,0,S,21,0.01968,0.789374,0.015535
1,37,8,9,0,0,1,,1,S,0,S,26,0.025564,0.780442,0.019951
1,38,6,2,0,0,1,,4,S,0,S,15,0.772287,0.023014,0.017774
1,39,7,9,0,0,1,,2,S,0,S,19,0.020349,0.783535,0.015944
1,40,6,7,0,0,1,,1,S,0,S,18,0.021189,0.780367,0.016535
1,41,2,8,0,0,1,,6,S,0,S,14,0.003815,0.789299,0.003011
1,42,4,1,0,0,1,,3,S,0,S,15,0.795686,0.00238,0.001894
1,43,5,2,0,0,1,,3,S,0,S,15,0.789441,0.009949,0.007854
1,44,7,3,0,0,1,,4,S,0,S,16,0.781815,0.015976,0.01249
1,45,4,7,0,0,1,,3,S,0,S,16,0.006686,0.79241,0.005298
1,46,3,8,0,0,1,,5,S,0,S,13,0.011458,0.772711,0.008854
1,47,6,1,0,0,1,,5,S,0,S,14,0.795649,0,0
1,48,8,3,0,0,1,,5,S,0,S,15,0.777393,0.016239,0.012624
1,49,4,2,0,0,1,,2,S,0,S,17,0.775335,0.024505,0.019
1,50,6,5,0,0,1,,1,S,0,S,22,0.789595,0.017044,0.013458
1,51,1,5,0,0,1,,4,S,0,S,15,0.020711,0.772931,0.016008
1,52,1,6,0,0,1,,5,S,0,S,13,0.005026,0.783509,0.003938
1,53,4,3,0,0,1,,1,S,0,S,29,0.791499,0.015372,0.012167
1,54,1,8,0,0,1,,7,L,0,S,13,0,0.790596,0
1,55,4,6,0,0,1,,2,S,0,S,14,0.018096,0.77089,0.01395
1,56,8,7,0,0,1,,1,S,0,S,21,0.786346,0.018446,0.014505
1,57,8,4,0,0,1,,4,S,0,S,16,0.787137,0.014188,0.011168
1,58,7,6,0,0,0,,1,S,0,S,16,0.040864,0.751594,0.030713
1,59,9,4,0,0,1,,5,S,0,S,14,0.788756,0.007374,0.005817
1,60,3,5,0,0,1,,2,S,0,S,16,0.017249,0.780192,0.013457
1,61,9,7,0,0,1,,2,S,0,S,15,0.755624,0.03428,0.025903
1,62,2,1,0,0,1,,1,S,0,S,15,0.793189,0.005484,0.00435
1,63,6,4,0,0,1,,2,S,0,S,20,0.751234,0.049606,0.037265
1,64,3,1,0,0,1,,2,S,0,S,16,0.768534,0.027445,0.021092
1,65,5,6,0,0,1,,1,S,0,S,16,0.003982,0.799438,0.003183
1,66,5,4,0,0,1,,1,S,0,S,19,0.780465,0.025717,0.020071
1,67,9,6,0,0,1,,3,S,0,S,18,0.762192,0.037477,0.028565
1,68,2,6,0,0,1,,4,S,0,S,14,0.013663,0.778127,0.010632
1,69,3,4,0,0,1,,1,S,0,S,16,0.020891,0.779185,0.016278
1,70,1,9,0,0,1,,8,L,0,S,13,0.024426,0.757357,0.018499
1,71,3,2,0,0,1,,1,S,0,S,24,0.76781,0.037495,0.028789
1,72,7,4,0,0,1,,3,S,0,S,17,0.770428,0.029986,0.023102
2,1,9,5,0,0,1,,4,S,0,S,14,0.777167,0.012013,0.009336
2,2,3,4,0,0,1,,1,S,0,S,22,0.037696,0.766882,0.028908
2,3,4,3,0,0,1,,1,S,0,S,18,0.758803,0.038328,0.029084
2,4,9,8,0,0,1,,1,S,0,S,16,0.796701,0.003366,0.002682
2,5,1,2,0,0,1,,1,S,0,S,16,0.011214,0.786963,0.008825
2,6,3,8,0,0,1,,5,S,0,S,15,0.025214,0.76926,0.019396
2,7,6,8,0,0,1,,2,S,0,S,17,0.027538,0.770427,0.021216
2,8,7,9,0,0,1,,2,S,0,S,19,0.006773,0.79515,0.005386
2,9,3,7,0,0,1,,4,S,0,S,15,0.035211,0.758892,0.026721
2,10,4,1,0,0,1,,3,S,0,S,16,0.794969,0.006055,0.004813
2,11,3,5,0,0,1,,2,S,0,S,18,0.039488,0.759789,0.030003
2,12,9,7,0,0,1,,2,S,0,S,15,0.767224,0.025484,0.019552
2,13,9,1,0,0,1,,8,L,0,S,13,0.798053,0,0
2,14,2,6,0,0,1,,4,S,0,S,15,0.017772,0.778361,0.013833
2,15,5,9,0,0,1,,4,S,0,S,15,0.010608,0.783332,0.008309
2,16,8,9,0,0,1,,1,S,0,S,22,0.028432,0.772434,0.021962
2,17,6,3,0,0,1,,3,S,0,S,17,0.762493,0.034247,0.026113
2,18,5,4,0,0,1,,1,S,0,S,24,0.759727,0.04197,0.031885
2,19,8,1,0,0,1,,7,L,0,S,14,0.802688,0,0
2,20,5,1,0,0,1,,4,S,0,S,16,0.773099,0.023771,0.018377
2,21,3,9,0,0,1,,6,S,0,S,14,0.027436,0.758922,0.020822
2,22,5,8,0,0,1,,3,S,0,S,16,0.015356,0.783217,0.012027
2,23,4,5,0,0,1,,1,S,0,S,25,0.01682,0.790236,0.013292
2,24,3,1,0,0,1,,2,S,0,S,17,0.784764,0.018699,0.014674
2,25,4,9,0,0,1,,5,S,0,S,15,0.024726,0.764409,0.018901
2,26,7,4,0,0,1,,3,S,0,S,16,0.783353,0.013476,0.010556
2,27,9,2,0,0,1,,7,L,0,S,13,0.764456,0.017374,0.013281
2,28,5,2,0,0,1,,3,S,0,S,19,0.751397,0.046099,0.034639
2,29,5,3,0,0,1,,2,S,0,S,20,0.792186,0.01453,0.011511
2,30,2,1,0,0,1,,1,S,0,S,19,0.789708,0.015807,0.012483
2,31,6,1,0,0,1,,5,S,0,S,15,0.769605,0.023528,0.018107
2,32,6,5,0,0,1,,1,S,0,S,24,0.790224,0.01718,0.013576
2,33,1,6,0,0,1,,5,S,0,S,14,0,0.799783,0
2,34,6,9,0,0,1,,3,S,0,S,16,0.006294,0.792282,0.004987
2,35,7,3,0,0,1,,4,S,0,S,15,0.766261,0.024336,0.018647
2,36,3,2,0,0,1,,1,S,0,S,23,0.761592,0.042826,0.032616
2,37,2,5,0,0,1,,3,S,0,S,17,0.015481,0.785717,0.012164
2,38,3,6,0,0,1,,3,S,0,S,16,0.010741,0.793164,0.008519
2,39,8,3,0,0,1,,5,S,0,S,14,0.751661,0.033061,0.02485
2,40,1,7,0,0,1,,6,S,0,S,13,0.025882,0.754558,0.019529
2,41,4,2,0,0,1,,2,S,0,S,18,0.762989,0.035076,0.026763
2,42,4,7,0,0,1,,3,S,0,S,17,0.015171,0.787989,0.011954
2,43,2,8,0,0,1,,6,S,0,S,15,0.000932,0.798269,0.000744
2,44,7,8,0,0,1,,1,S,0,S,26,0.042499,0.756777,0.032163
2,45,1,5,0,0,1,,4,S,0,S,15,0,0.801084,0
2,46,2,3,0,0,1,,1,S,0,S,21,0.02996,0.773987,0.023188
2,47,9,3,0,0,1,,6,S,0,S,13,0.763617,0.017968,0.013721
2,48,1,8,0,0,1,,7,L,0,S,13,0.021385,0.758228,0.016215
2,49,2,4,0,0,1,,2,S,0,S,18,0.045037,0.750688,0.033809
2,50,6,7,0,0,1,,1,S,0,S,18,0.011379,0.795422,0.009051
2,51,4,6,0,0,1,,2,S,0,S,17,0.034069,0.763308,0.026005
2,52,8,2,0,0,1,,6,S,0,S,14,0.752947,0.032118,0.024183
2,53,1,9,0,0,1,,8,L,0,S,13,0.003596,0.779699,0.002804
2,54,6,4,0,0,1,,2,S,0,S,19,0.785322,0.01866,0.014654
2,55,5,7,0,0,1,,2,S,0,S,16,0.027876,0.769769,0.021458
2,56,8,5,0,0,1,,3,S,0,S,16,0.786274,0.012365,0.009722
2,57,7,5,0,0,1,,2,S,0,S,17,0.775779,0.021266,0.016498
2,58,7,6,0,0,1,,1,S,0,S,22,0.781647,0.023164,0.018106
2,59,6,2,0,0,1,,4,S,0,S,17,0.765554,0.031886,0.02441
2,60,2,7,0,0,1,,5,S,0,S,15,0.00837,0.791103,0.006621
2,61,4,8,0,0,1,,4,S,0,S,16,0.036138,0.755944,0.027318
2,62,1,4,0,0,1,,3,S,0,S,15,0.022144,0.768787,0.017024
2,63,7,2,0,0,1,,5,S,0,S,15,0.767839,0.023158,0.017781
2,64,8,4,0,0,1,,4,S,0,S,15,0.777686,0.016495,0.012828
2,65,7,1,0,0,1,,6,S,0,S,14,0.776787,0.012516,0.009722
2,66,1,3,0,0,1,,2,S,0,S,16,0.009899,0.788584,0.007806
2,67,9,4,0,0,1,,5,S,0,S,14,0.800599,0,0
2,68,9,6,0,0,1,,3,S,0,S,15,0.777953,0.016589,0.012906
2,69,8,6,0,0,1,,2,S,0,S,18,0.765093,0.034504,0.026399
2,70,2,9,0,0,1,,7,L,0,S,14,0.009193,0.780639,0.007176
2,71,8,7,0,0,1,,1,S,0,S,19,0.776871,0.027049,0.021014
2,72,5,6,0,0,1,,1,S,0,S,17,0.007048,0.798159,0.005625
3,1,3,1,0,0,1,,2,S,0,S,19,0.76814,0.031522,0.024213
3,2,5,3,0,0,1,,2,S,0,S,18,0.75492,0.039816,0.030058
3,3,8,3,0,0,1,,5,S,0,S,14,0.774586,0.016394,0.012699
3,4,9,4,0,0,1,,5,S,0,S,15,0.795184,0.002384,0.001896
3,5,5,1,0,0,1,,4,S,0,S,15,0.759733,0.028947,0.021992
3,6,4,5,0,0,1,,1,S,0,S,32,0.031675,0.776876,0.024607
3,7,2,5,0,0,1,,3,S,0,S,17,0.033566,0.763681,0.025634
3,8,2,8,0,0,1,,6,S,0,S,14,0.017852,0.771027,0.013765
3,9,5,7,0,0,1,,2,S,0,S,17,0.033937,0.7596,0.025779
3,10,9,2,0,0,1,,7,L,0,S,14,0.770062,0.015719,0.012105
3,11,1,8,0,0,1,,7,L,0,S,13,0.001708,0.787262,0.001344
3,12,1,4,0,0,1,,3,S,0,S,15,0.022469,0.771325,0.017331
3,13,8,7,0,0,1,,1,S,0,S,17,0.770982,0.02769,0.021348
3,14,3,6,0,0,1,,3,S,0,S,16,0.014188,0.783511,0.011117
3,15,2,4,0,0,1,,2,S,0,S,20,0.031063,0.770091,0.023921
3,16,3,7,0,0,1,,4,S,0,S,15,0.002729,0.794669,0.002169
3,17,3,4,0,0,1,,1,S,0,S,23,0.017665,0.787545,0.013912
3,18,5,4,0,0,1,,1,S,0,S,17,0.772478,0.023282,0.017985
3,19,2,7,0,0,1,,5,S,0,S,14,0.026936,0.759564,0.02046
3,20,3,8,0,0,1,,5,S,0,S,14,0.028614,0.755878,0.021629
3,21,2,9,0,0,1,,7,L,0,S,13,0,0.788193,0
3,22,2,1,0,0,1,,1,S,0,S,21,0.7862,0.019703,0.015491
3,23,6,9,0,0,1,,3,S,0,S,15,0.028045,0.763062,0.0214
3,24,1,5,0,0,1,,4,S,0,S,14,0.027478,0.761285,0.020919
3,25,9,3,0,0,1,,6,S,0,S,15,0.769599,0.02328,0.017916
3,26,4,1,0,0,1,,3,S,0,S,16,0.764038,0.032299,0.024678
3,27,7,1,0,0,1,,6,S,0,S,14,0.773012,0.015066,0.011646
3,28,1,2,0,0,1,,1,S,0,S,16,0.028333,0.764192,0.021651
3,29,1,6,0,0,1,,5,S,0,S,14,0,0.802447,0
3,30,8,2,0,0,1,,6,S,0,S,13,0.7577,0.020969,0.015888
3,31,9,7,0,0,1,,2,S,0,S,22,0.751267,0.047531,0.035708
3,32,4,3,0,0,1,,1,S,0,S,23,0.758722,0.044898,0.034065
3,33,4,2,0,0,1,,2,S,0,S,17,0.77152,0.0252,0.019442
3,34,3,2,0,0,1,,1,S,0,S,21,0.75945,0.036267,0.027543
3,35,9,1,0,0,1,,8,L,0,S,14,0.789945,0.00353,0.002788
3,36,6,2,0,0,1,,4,S,0,S,14,0.757832,0.025771,0.01953
3,37,8,9,0,0,1,,1,S,0,S,18,0.023488,0.777605,0.018264
3,38,4,7,0,0,1,,3,S,0,S,16,0.010859,0.791039,0.00859
3,39,8,6,0,0,1,,2,S,0,S,15,0.757527,0.032972,0.024977
3,40,8,1,0,0,1,,7,L,0,S,13,0.774139,0.011479,0.008886
3,41,7,4,0,0,1,,3,S,0,S,15,0.772978,0.018083,0.013978
3,42,2,3,0,0,1,,1,S,0,S,18,0.020624,0.781929,0.016127
3,43,6,7,0,0,1,,1,S,0,S,29,0.024076,0.78343,0.018862
3,44,9,5,0,0,1,,4,S,0,S,15,0.755921,0.034054,0.025742
3,45,6,8,0,0,1,,2,S,0,S,22,0.029441,0.77465,0.022807
3,46,4,9,0,0,1,,5,S,0,S,13,0.027605,0.753258,0.020793
3,47,5,6,0,0,1,,1,S,0,S,22,0.027006,0.774621,0.020919
3,48,5,9,0,0,1,,4,S,0,S,14,0.015709,0.771092,0.012113
3,49,5,2,0,0,1,,3,S,0,S,16,0.778661,0.013739,0.010698
3,50,6,1,0,0,1,,5,S,0,S,14,0.779095,0.012591,0.00981
3,51,4,6,0,0,1,,2,S,0,S,18,0.018212,0.786553,0.014325
3,52,9,8,0,0,1,,1,S,0,S,36,0.750124,0.049646,0.037241
3,53,3,9,0,0,1,,6,S,0,S,13,0.006191,0.778599,0.00482
3,54,7,3,0,0,1,,4,S,0,S,16,0.79271,0.006478,0.005135
3,55,6,3,0,0,1,,3,S,0,S,15,0.750335,0.038987,0.029253
3,56,7,2,0,0,1,,5,S,0,S,14,0.751311,0.028458,0.021381
3,57,8,4,0,0,1,,4,S,0,S,14,0.792414,0.001723,0.001365
3,58,7,5,0,0,1,,2,S,0,S,16,0.776989,0.018976,0.014744
3,59,7,8,0,0,1,,1,S,0,S,22,0.027974,0.773104,0.021627
3,60,1,7,0,0,1,,6,S,0,S,13,0.007214,0.780358,0.00563
3,61,7,6,0,0,1,,1,S,0,S,18,0.750624,0.042732,0.032076
3,62,8,5,0,0,1,,3,S,0,S,14,0.76535,0.023662,0.01811
3,63,6,4,0,0,1,,2,S,0,S,15,0.780031,0.014926,0.011643
3,64,1,3,0,0,1,,2,S,0,S,14,0.03591,0.750094,0.026936
3,65,2,6,0,0,1,,4,S,0,S,15,0.03319,0.756526,0.025109
3,66,4,8,0,0,1,,4,S,0,S,15,0.032456,0.759274,0.024643
3,67,1,9,0,0,1,,8,L,0,S,12,0.001206,0.779256,0.00094
3,68,9,6,0,0,1,,3,S,0,S,17,0.757641,0.037271,0.028238
3,69,6,5,0,0,1,,1,S,0,S,16,0.784971,0.015108,0.011859
3,70,5,8,0,0,1,,3,S,0,S,17,0.011263,0.788043,0.008876
3,71,3,5,0,0,1,,2,S,0,S,18,0.030421,0.768607,0.023381
3,72,7,9,0,0,1,,2,S,0,S,15,0.029532,0.758074,0.022388
4,1,5,4,0,0,1,,1,S,0,S,23,0.788878,0.016582,0.013081
4,2,5,3,0,0,1,,2,S,0,S,17,0.76213,0.032307,0.024622
4,3,2,3,0,0,1,,1,S,0,S,17,0.027024,0.768972,0.020781
4,4,6,8,0,0,1,,2,S,0,S,17,0.040166,0.757644,0.030432
4,5,8,3,0,0,1,,5,S,0,S,15,0.79465,0.003673,0.002919
4,6,1,2,0,0,1,,1,S,0,S,20,0.03026,0.766957,0.023208
4,7,6,4,0,0,1,,2,S,0,S,21,0.796134,0.012012,0.009563
4,8,6,9,0,0,1,,3,S,0,S,15,0.011083,0.786137,0.008713
4,9,9,2,0,0,1,,7,L,0,S,13,0.760711,0.017657,0.013432
4,10,9,6,0,0,1,,3,S,0,S,16,0.775117,0.021849,0.016935
4,11,5,7,0,0,1,,2,S,0,S,21,0.019907,0.785954,0.015646
4,12,9,1,0,0,1,,8,L,0,S,13,0.790644,0,0
4,13,3,1,0,0,1,,2,S,0,S,17,0.770058,0.027397,0.021097
4,14,4,1,0,0,1,,3,S,0,S,15,0.769177,0.022178,0.017059
4,15,4,2,0,0,1,,2,S,0,S,17,0.792276,0.00704,0.005578
4,16,2,7,0,0,1,,5,S,0,S,14,0.03229,0.752932,0.024312
4,17,3,4,0,0,1,,1,S,0,S,16,0.013187,0.784238,0.010342
4,18,7,5,0,0,1,,2,S,0,S,16,0.756924,0.037398,0.028307
4,19,1,6,0,0,1,,5,S,0,S,14,0.014891,0.775817,0.011553
4,20,8,4,0,0,1,,4,S,0,S,16,0.777199,0.020362,0.015826
4,21,4,7,0,0,1,,3,S,0,S,17,0.009823,0.792195,0.007782
4,22,7,1,0,0,1,,6,S,0,S,13,0.75169,0.029482,0.022161
4,23,8,2,0,0,1,,6,S,0,S,14,0.802467,0,0
4,24,5,8,0,0,1,,3,S,0,S,17,0.022744,0.777193,0.017677
4,25,9,5,0,0,1,,4,S,0,S,15,0.799527,0,0
4,26,1,3,0,0,1,,2,S,0,S,16,0.016598,0.778111,0.012915
4,27,4,8,0,0,1,,4,S,0,S,15,0.023892,0.768276,0.018356
4,28,2,8,0,0,1,,6,S,0,S,14,0.000998,0.794015,0.000793
4,29,5,1,0,0,1,,4,S,0,S,14,0.775537,0.014203,0.011015
4,30,5,2,0,0,1,,3,S,0,S,15,0.77775,0.014379,0.011183
4,31,7,2,0,0,1,,5,S,0,S,14,0.764824,0.022877,0.017497
4,32,1,5,0,0,1,,4,S,0,S,15,0.033622,0.753399,0.025331
4,33,8,9,0,0,1,,1,S,0,S,17,0.02798,0.770875,0.021569
4,34,9,7,0,0,1,,2,S,0,S,16,0.757469,0.034313,0.025991
4,35,3,2,0,0,1,,1,S,0,S,21,0.771311,0.028762,0.022184
4,36,8,5,0,0,1,,3,S,0,S,15,0.778709,0.016777,0.013064
4,37,8,7,0,0,1,,1,S,0,S,17,0.757146,0.040073,0.030341
4,38,4,5,0,0,1,,1,S,0,S,26,0.014571,0.791793,0.011537
4,39,1,4,0,0,1,,3,S,0,S,15,0.001488,0.794341,0.001182
4,40,7,8,0,0,1,,1,S,0,S,19,0.023831,0.782726,0.018653
4,41,7,9,0,0,1,,2,S,0,S,15,0.031506,0.760518,0.023961
4,42,1,8,0,0,1,,7,L,0,S,13,0.020382,0.760874,0.015508
4,43,1,7,0,0,1,,6,S,0,S,14,0.010799,0.779607,0.008419
4,44,3,5,0,0,1,,2,S,0,S,17,0.030416,0.765645,0.023288
4,45,6,2,0,0,1,,4,S,0,S,15,0.79361,0.003891,0.003088
4,46,2,5,0,0,1,,3,S,0,S,16,0.036143,0.755431,0.027303
4,47,5,6,0,0,1,,1,S,0,S,22,0.036675,0.767479,0.028147
4,48,6,5,0,0,1,,1,S,0,S,17,0.755737,0.040107,0.03031
4,49,3,9,0,0,1,,6,S,0,S,13,0.007715,0.777232,0.005996
4,50,7,6,0,0,1,,1,S,0,S,21,0.765732,0.040235,0.030809
4,51,6,1,0,0,1,,5,S,0,S,14,0.788094,0.006282,0.004951
4,52,7,4,0,0,1,,3,S,0,S,18,0.760813,0.037858,0.028803
4,53,4,9,0,0,1,,5,S,0,S,14,0.002826,0.78894,0.00223
4,54,2,4,0,0,1,,2,S,0,S,15,0.028969,0.760253,0.022024
4,55,6,7,0,0,1,,1,S,0,S,23,0.0209,0.788489,0.016479
4,56,4,3,0,0,1,,1,S,0,S,24,0.786261,0.017875,0.014054
4,57,9,4,0,0,1,,5,S,0,S,15,0.757768,0.029498,0.022352
4,58,2,1,0,0,1,,1,S,0,S,18,0.767456,0.031073,0.023848
4,59,5,9,0,0,1,,4,S,0,S,15,0.004283,0.792532,0.003394
4,60,3,7,0,0,1,,4,S,0,S,15,0.011199,0.785267,0.008794
4,61,8,6,0,0,1,,2,S,0,S,17,0.780881,0.022673,0.017705
4,62,7,3,0,0,1,,4,S,0,S,16,0.782995,0.016242,0.012717
4,63,4,6,0,0,1,,2,S,0,S,17,0.021393,0.77925,0.01667
4,64,9,8,0,0,1,,1,S,0,S,19,0.77762,0.023861,0.018555
4,65,3,6,0,0,1,,3,S,0,S,15,0.017126,0.779252,0.013345
4,66,2,6,0,0,1,,4,S,0,S,15,0.001363,0.799383,0.00109
4,67,1,9,0,0,1,,8,L,0,S,13,0,0.801642,0
4,68,9,3,0,0,1,,6,S,0,S,14,0.761986,0.02228,0.016977
4,69,6,3,0,0,1,,3,S,0,S,17,0.790789,0.011719,0.009267
4,70,8,1,0,0,1,,7,L,0,S,13,0.782019,0.005906,0.004619
4,71,2,9,0,0,1,,7,L,0,S,13,0,0.787434,0
4,72,3,8,0,0,1,,5,S,0,S,14,0.012103,0.779636,0.009436
5,1,6,8,0,0,1,,2,S,0,S,16,0.025852,0.772437,0.019969
5,2,6,2,0,0,1,,4,S,0,S,14,0.772418,0.017167,0.01326
5,3,1,8,0,0,1,,7,L,0,S,12,0.018228,0.754099,0.013746
5,4,5,6,0,0,1,,1,S,0,S,26,0.032215,0.771801,0.024863
5,5,7,9,0,0,1,,2,S,0,S,20,0.018285,0.784593,0.014347
5,6,7,2,0,0,1,,5,S,0,S,13,0.776189,0.008149,0.006326
5,7,7,6,0,0,1,,1,S,0,S,15,0.755589,0.034695,0.026215
5,8,6,5,0,0,1,,1,S,0,S,18,0.767772,0.032897,0.025258
5,9,1,7,0,0,1,,6,S,0,S,13,0.010533,0.771652,0.008128
5,10,5,2,0,0,1,,3,S,0,S,15,0.786083,0.007963,0.006259
5,11,9,4,0,0,1,,5,S,0,S,15,0.797777,0.000897,0.000715
5,12,5,3,0,0,1,,2,S,0,S,16,0.790882,0.006536,0.005169
5,13,3,5,0,0,1,,2,S,0,S,17,0.034253,0.764109,0.026173
5,14,7,5,0,0,1,,2,S,0,S,15,0.77824,0.016434,0.012789
5,15,3,6,0,0,1,,3,S,0,S,16,0.036853,0.758789,0.027963
5,16,1,4,0,0,1,,3,S,0,S,15,0.007108,0.788284,0.005603
5,17,2,3,0,0,1,,1,S,0,S,22,0.017002,0.789333,0.01342
5,18,2,7,0,0,1,,5,S,0,S,14,0.015519,0.775319,0.012032
5,19,9,5,0,0,1,,4,S,0,S,16,0.787892,0.011008,0.008673
5,20,3,8,0,0,1,,5,S,0,S,14,0.002452,0.794022,0.001947
5,21,5,7,0,0,1,,2,S,0,S,18,0.02398,0.774802,0.018579
5,22,9,3,0,0,1,,6,S,0,S,14,0.784118,0.005918,0.00464
5,23,4,2,0,0,1,,2,S,0,S,16,0.775076,0.019609,0.015199
5,24,1,6,0,0,1,,5,S,0,S,14,0,0.79631,0
5,25,8,1,0,0,1,,7,L,0,S,13,0.773993,0.010201,0.007896
5,26,7,8,0,0,1,,1,S,0,S,27,0.017791,0.791241,0.014077
5,27,6,1,0,0,1,,5,S,0,S,14,0.788791,0.006979,0.005505
5,28,2,9,0,0,1,,7,L,0,S,13,0.002014,0.785376,0.001582
5,29,1,3,0,0,1,,2,S,0,S,16,0.022173,0.769727,0.017067
5,30,6,7,0,0,1,,1,S,0,S,21,0.034153,0.769046,0.026265
5,31,3,4,0,0,1,,1,S,0,S,22,0.0327,0.773188,0.025283
5,32,8,7,0,0,1,,1,S,0,S,18,0.754968,0.038388,0.028982
5,33,1,2,0,0,1,,1,S,0,S,18,0.006347,0.794885,0.005045
5,34,5,4,0,0,1,,1,S,0,S,17,0.755919,0.038254,0.028917
5,35,5,1,0,0,1,,4,S,0,S,14,0.754087,0.03138,0.023663
5,36,3,1,0,0,1,,2,S,0,S,16,0.759723,0.036722,0.027898
5,37,2,8,0,0,1,,6,S,0,S,13,0.012428,0.77421,0.009622
5,38,4,3,0,0,1,,1,S,0,S,17,0.75155,0.039743,0.029869
5,39,3,2,0,0,1,,1,S,0,S,17,0.774482,0.024623,0.01907
5,40,2,6,0,0,1,,4,S,0,S,15,0.015001,0.782521,0.011739
5,41,8,9,0,0,1,,1,S,0,S,18,0.036281,0.756139,0.027434
5,42,4,7,0,0,1,,3,S,0,S,16,0.016254,0.780344,0.012684
5,43,5,9,0,0,1,,4,S,0,S,15,0.004835,0.789712,0.003818
5,44,8,2,0,0,1,,6,S,0,S,13,0.760818,0.017794,0.013538
5,45,1,5,0,0,1,,4,S,0,S,14,0.009282,0.78033,0.007243
5,46,1,9,0,0,1,,8,L,0,S,12,0.010457,0.762136,0.00797
5,47,9,7,0,0,1,,2,S,0,S,19,0.766193,0.032422,0.024842
5,48,8,5,0,0,1,,3,S,0,S,16,0.799156,0.000686,0.000548
5,49,9,1,0,0,1,,8,L,0,S,13,0.770349,0.014245,0.010974
5,50,3,9,0,0,1,,6,S,0,S,13,0.025153,0.755095,0.018993
5,51,2,4,0,0,1,,2,S,0,S,17,0.02885,0.771067,0.022245
5,52,5,8,0,0,1,,3,S,0,S,15,0.026605,0.764479,0.020339
5,53,6,3,0,0,1,,3,S,0,S,15,0.78868,0.007968,0.006285
5,54,4,9,0,0,1,,5,S,0,S,14,0.007424,0.782151,0.005807
5,55,9,8,0,0,0,,1,S,0,S,19,0.044013,0.75321,0.033151
5,56,7,3,0,0,1,,4,S,0,S,13,0.753168,0.025159,0.018949
5,57,9,2,0,0,1,,7,L,0,S,13,0.75683,0.022105,0.01673
5,58,8,4,0,0,1,,4,S,0,S,14,0.753706,0.02975,0.022423
5,59,4,8,0,0,1,,4,S,0,S,14,0.023099,0.764444,0.017658
5,60,6,4,0,0,1,,2,S,0,S,16,0.781066,0.018865,0.014735
5,61,8,6,0,0,1,,2,S,0,S,16,0.772717,0.022094,0.017073
5,62,7,1,0,0,1,,6,S,0,S,13,0.788457,0.00112,0.000883
5,63,2,5,0,0,1,,3,S,0,S,15,0.034651,0.756392,0.02621
5,64,4,5,0,0,1,,1,S,0,S,19,0.045004,0.751075,0.033802
5,65,4,1,0,0,1,,3,S,0,S,15,0.751269,0.037864,0.028446
5,66,4,6,0,0,1,,2,S,0,S,18,0.02254,0.778865,0.017555
5,67,6,9,0,0,1,,3,S,0,S,15,0.032416,0.757234,0.024546
5,68,3,7,0,0,1,,4,S,0,S,15,0.018506,0.776753,0.014374
5,69,7,4,0,0,1,,3,S,0,S,14,0.775163,0.015388,0.011928
5,70,8,3,0,0,1,,5,S,0,S,14,0.78896,0.000873,0.000689
5,71,9,6,0,0,1,,3,S,0,S,16,0.757829,0.035241,0.026707
5,72,2,1,0,0,1,,1,S,0,S,19,0.751893,0.048046,0.036125
6,1,1,4,0,0,1,,3,S,0,S,17,0.012388,0.790242,0.00979
6,2,3,8,0,0,1,,5,S,0,S,14,0.008129,0.787154,0.006399
6,3,9,3,0,0,1,,6,S,0,S,15,0.759951,0.027122,0.020612
6,4,7,8,0,0,1,,1,S,0,S,33,0.045759,0.760191,0.034785
6,5,5,2,0,0,1,,3,S,0,S,16,0.752962,0.041361,0.031143
6,6,7,4,0,0,1,,3,S,0,S,14,0.778346,0.013858,0.010786
6,7,9,7,0,0,1,,2,S,0,S,20,0.754959,0.044502,0.033597
6,8,2,7,0,0,1,,5,S,0,S,14,0,0.797845,0
6,9,9,8,0,0,0,,1,S,0,S,26,0.042203,0.761344,0.032131
6,10,7,6,0,0,1,,1,S,0,S,15,0.756484,0.035098,0.026551
6,11,9,6,0,0,1,,3,S,0,S,16,0.79613,0.005157,0.004106
6,12,2,9,0,0,1,,7,L,0,S,13,0.015977,0.768845,0.012284
6,13,5,6,0,0,1,,1,S,0,S,25,0.052897,0.750881,0.039719
6,14,5,4,0,0,1,,1,S,0,S,17,0.772395,0.028943,0.022355
6,15,8,2,0,0,1,,6,S,0,S,14,0.779472,0.011493,0.008959
6,16,4,7,0,0,1,,3,S,0,S,16,0.026792,0.771165,0.020661
6,17,7,2,0,0,1,,5,S,0,S,14,0.788827,0.005303,0.004184
6,18,9,2,0,0,1,,7,L,0,S,14,0.781708,0.009086,0.007102
6,19,3,7,0,0,1,,4,S,0,S,14,0.027881,0.76116,0.021222
6,20,4,6,0,0,1,,2,S,0,S,26,0.025389,0.782548,0.019868
6,21,9,1,0,0,1,,8,L,0,S,13,0.763245,0.01702,0.012991
6,22,6,5,0,0,1,,1,S,0,S,16,0.789881,0.011193,0.008841
6,23,4,1,0,0,1,,3,S,0,S,15,0.775026,0.017826,0.013815
6,24,9,4,0,0,1,,5,S,0,S,14,0.770876,0.017874,0.013779
6,25,8,5,0,0,1,,3,S,0,S,15,0.781027,0.014446,0.011283
6,26,8,6,0,0,1,,2,S,0,S,16,0.791169,0.009813,0.007764
6,27,4,8,0,0,1,,4,S,0,S,15,0.028769,0.765216,0.022015
6,28,7,5,0,0,1,,2,S,0,S,15,0.793311,0.005927,0.004702
6,29,3,5,0,0,1,,2,S,0,S,18,0.038622,0.75996,0.029351
6,30,4,5,0,0,0,,1,S,0,S,20,0.767223,0.034791,0.026692
6,31,5,8,0,0,1,,3,S,0,S,15,0.026755,0.770294,0.020609
6,32,3,1,0,0,1,,2,S,0,S,17,0.752182,0.041047,0.030875
6,33,4,2,0,0,1,,2,S,0,S,17,0.796432,0.007308,0.00582
6,34,6,3,0,0,1,,3,S,0,S,16,0.757699,0.033385,0.025296
6,35,1,7,0,0,1,,6,S,0,S,13,0.022676,0.760377,0.017242
6,36,5,3,0,0,1,,2,S,0,S,23,0.772851,0.030829,0.023827
6,37,4,3,0,0,1,,1,S,0,S,23,0.765154,0.034702,0.026552
6,38,8,1,0,0,1,,7,L,0,S,13,0.761702,0.018846,0.014355
6,39,5,7,0,0,1,,2,S,0,S,16,0.024382,0.776777,0.018939
6,40,2,3,0,0,1,,1,S,0,S,16,0.009681,0.786145,0.00761
6,41,8,7,0,0,1,,1,S,0,S,21,0.769662,0.034386,0.026466
6,42,3,6,0,0,1,,3,S,0,S,17,0.009298,0.795515,0.007397
6,43,7,3,0,0,1,,4,S,0,S,15,0.769596,0.021526,0.016566
6,44,1,3,0,0,1,,2,S,0,S,15,0.023126,0.766293,0.017721
6,45,8,9,0,0,1,,1,S,0,S,22,0.02908,0.777625,0.022614
6,46,6,4,0,0,1,,2,S,0,S,15,0.789389,0.008825,0.006966
6,47,5,9,0,0,1,,4,S,0,S,15,0.020765,0.77812,0.016157
6,48,2,5,0,0,1,,3,S,0,S,16,0.023828,0.771858,0.018392
6,49,9,5,0,0,1,,4,S,0,S,15,0.784593,0.010945,0.008587
6,50,1,9,0,0,1,,8,L,0,S,13,0.006114,0.78273,0.004785
6,51,8,3,0,0,1,,5,S,0,S,15,0.755678,0.031163,0.023549
6,52,6,2,0,0,1,,4,S,0,S,14,0.751531,0.033737,0.025354
6,53,1,6,0,0,1,,5,S,0,S,15,0.004994,0.79393,0.003965
6,54,1,5,0,0,1,,4,S,0,S,15,0.034744,0.755054,0.026233
6,55,6,1,0,0,1,,5,S,0,S,14,0.794288,0,0
6,56,2,4,0,0,1,,2,S,0,S,18,0.016808,0.785646,0.013205
6,57,3,2,0,0,1,,1,S,0,S,25,0.793485,0.015661,0.012426
6,58,6,9,0,0,1,,3,S,0,S,18,0.028931,0.7746,0.02241
6,59,1,8,0,0,1,,7,L,0,S,13,0.008779,0.779068,0.006839
6,60,1,2,0,0,1,,1,S,0,S,17,0.039246,0.755473,0.029649
6,61,6,8,0,0,1,,2,S,0,S,18,0.045534,0.753456,0.034308
6,62,4,9,0,0,1,,5,S,0,S,15,0.022744,0.773125,0.017584
6,63,7,9,0,0,1,,2,S,0,S,25,0.024863,0.785572,0.019532
6,64,3,4,0,0,1,,1,S,0,S,25,0.018047,0.791266,0.01428
6,65,3,9,0,0,1,,6,S,0,S,14,0.004459,0.792058,0.003532
6,66,8,4,0,0,1,,4,S,0,S,14,0.768311,0.020546,0.015786
6,67,7,1,0,0,1,,6,S,0,S,13,0.769407,0.01401,0.010779
6,68,5,1,0,0,1,,4,S,0,S,15,0.779816,0.016022,0.012494
6,69,6,7,0,0,1,,1,S,0,S,22,0.044522,0.758875,0.033787
6,70,2,6,0,0,1,,4,S,0,S,15,0.024148,0.76835,0.018554
6,71,2,1,0,0,1,,1,S,0,S,23,0.77977,0.023013,0.017945
6,72,2,8,0,0,1,,6,S,0,S,13,0.018901,0.764826,0.014456
7,1,8,9,0,0,0,,1,S,0,S,18,0.782374,0.021141,0.01654
7,2,3,9,0,0,1,,6,S,0,S,14,0.02645,0.765133,0.020237
7,3,7,5,0,0,1,,2,S,0,S,19,0.757734,0.040545,0.030722
7,4,7,4,0,0,1,,3,S,0,S,15,0.761782,0.031725,0.024168
7,5,9,6,0,0,1,,3,S,0,S,16,0.782279,0.011563,0.009045
7,6,6,4,0,0,1,,2,S,0,S,15,0.775648,0.01898,0.014722
7,7,4,2,0,0,1,,2,S,0,S,16,0.770098,0.025884,0.019933
7,8,8,5,0,0,1,,3,S,0,S,15,0.768587,0.021438,0.016477
7,9,5,6,0,0,1,,1,S,0,S,17,0.03317,0.760543,0.025227
7,10,4,3,0,0,1,,1,S,0,S,19,0.767713,0.031415,0.024118
7,11,6,1,0,0,1,,5,S,0,S,14,0.795602,0,0
7,12,5,9,0,0,1,,4,S,0,S,15,0.015618,0.782843,0.012226
7,13,6,3,0,0,1,,3,S,0,S,16,0.786832,0.011627,0.009148
7,14,4,6,0,0,1,,2,S,0,S,20,0.022724,0.776611,0.017647
7,15,1,4,0,0,1,,3,S,0,S,16,0.009668,0.789059,0.007629
7,16,3,2,0,0,1,,1,S,0,S,20,0.774427,0.031208,0.024169
7,17,1,9,0,0,1,,8,L,0,S,13,0.007111,0.779206,0.005541
7,18,4,5,0,0,1,,1,S,0,S,22,0.018226,0.785311,0.014313
7,19,9,7,0,0,1,,2,S,0,S,21,0.789508,0.014448,0.011407
7,20,1,6,0,0,1,,5,S,0,S,14,0.00805,0.778429,0.006267
7,21,4,8,0,0,1,,4,S,0,S,15,0.032238,0.755362,0.024351
7,22,3,5,0,0,1,,2,S,0,S,16,0.037904,0.754647,0.028604
7,23,8,2,0,0,1,,6,S,0,S,13,0.763598,0.018801,0.014356
7,24,5,3,0,0,1,,2,S,0,S,29,0.782908,0.024242,0.018979
7,25,9,4,0,0,1,,5,S,0,S,14,0.789006,0.003689,0.002911
7,26,5,2,0,0,1,,3,S,0,S,18,0.795616,0.010911,0.008681
7,27,9,1,0,0,1,,8,L,0,S,13,0.784611,0.001082,0.000849
7,28,1,8,0,0,1,,7,L,0,S,13,0,0.784947,0
7,29,3,4,0,0,1,,1,S,0,S,29,0.033061,0.775623,0.025643
7,30,3,8,0,0,1,,5,S,0,S,14,0.013566,0.777677,0.01055
7,31,7,3,0,0,1,,4,S,0,S,16,0.768369,0.028116,0.021603
7,32,8,4,0,0,1,,4,S,0,S,14,0.79797,0,0
7,33,4,7,0,0,1,,3,S,0,S,15,0.036325,0.751131,0.027285
7,34,6,9,0,0,1,,3,S,0,S,20,0.018718,0.788796,0.014765
7,35,1,3,0,0,1,,2,S,0,S,15,0.020332,0.76993,0.015655
7,36,1,2,0,0,1,,1,S,0,S,17,0.011952,0.788654,0.009426
7,37,5,4,0,0,1,,1,S,0,S,20,0.781698,0.024321,0.019012
7,38,2,3,0,0,1,,1,S,0,S,17,0.006695,0.79367,0.005313
7,39,3,6,0,0,1,,3,S,0,S,16,0.021234,0.774451,0.016445
7,40,7,1,0,0,1,,6,S,0,S,14,0.78887,0.005487,0.004328
7,41,9,3,0,0,1,,6,S,0,S,14,0.764396,0.021185,0.016194
7,42,1,5,0,0,1,,4,S,0,S,14,0.015107,0.770583,0.011641
7,43,2,1,0,0,1,,1,S,0,S,21,0.79292,0.011419,0.009054
7,44,6,5,0,0,1,,1,S,0,S,18,0.760916,0.034586,0.026317
7,45,5,8,0,0,1,,3,S,0,S,15,0,0.798758,0
7,46,9,5,0,0,1,,4,S,0,S,15,0.754051,0.031813,0.023989
7,47,2,6,0,0,1,,4,S,0,S,15,0.006773,0.784762,0.005315
7,48,4,1,0,0,1,,3,S,0,S,15,0.787768,0.007936,0.006252
7,49,5,7,0,0,1,,2,S,0,S,15,0.002797,0.796041,0.002227
7,50,6,2,0,0,1,,4,S,0,S,14,0.754117,0.031602,0.023831
7,51,6,7,0,0,1,,1,S,0,S,18,0.036375,0.760241,0.027654
7,52,9,2,0,0,1,,7,L,0,S,13,0.755458,0.024209,0.018289
7,53,2,9,0,0,1,,7,L,0,S,14,0,0.800959,0
7,54,7,6,0,0,1,,1,S,0,S,21,0.769026,0.031921,0.024548
7,55,8,3,0,0,1,,5,S,0,S,14,0.774733,0.014052,0.010887
7,56,2,7,0,0,1,,5,S,0,S,13,0.023545,0.75449,0.017764
7,57,7,8,0,0,1,,1,S,0,S,17,0.027933,0.770423,0.02152
7,58,8,7,0,0,1,,1,S,0,S,19,0.753884,0.042092,0.031732
7,59,8,1,0,0,1,,7,L,0,S,13,0.791355,0,0
7,60,7,9,0,0,1,,2,S,0,S,18,0.037699,0.764902,0.028836
7,61,3,1,0,0,1,,2,S,0,S,16,0.750642,0.04221,0.031684
7,62,9,8,0,0,1,,1,S,0,S,21,0.752079,0.04329,0.032557
7,63,4,9,0,0,1,,5,S,0,S,16,0.018124,0.781674,0.014167
7,64,6,8,0,0,1,,2,S,0,S,18,0.025869,0.772438,0.019982
7,65,7,2,0,0,1,,5,S,0,S,15,0.795288,0.005453,0.004337
7,66,5,1,0,0,1,,4,S,0,S,16,0.797914,0.004044,0.003227
7,67,2,5,0,0,1,,3,S,0,S,15,0.016573,0.773535,0.01282
7,68,1,7,0,0,1,,6,S,0,S,13,0.001228,0.784051,0.000962
7,69,2,8,0,0,1,,6,S,0,S,13,0.021763,0.755889,0.01645
7,70,8,6,0,0,1,,2,S,0,S,16,0.798079,4.1E-05,3.3E-05
7,71,2,4,0,0,1,,2,S,0,S,18,0.015834,0.786014,0.012446
7,72,3,7,0,0,1,,4,S,0,S,14,0.015973,0.775534,0.012387
8,1,8,3,0,0,1,,5,S,0,S,15,0.794675,0.003489,0.002773
8,2,2,8,0,0,1,,6,S,0,S,14,0,0.794094,0
8,3,8,9,0,0,1,,1,S,0,S,18,0.007748,0.796734,0.006173
8,4,1,6,0,0,1,,5,S,0,S,13,0,0.796922,0
8,5,1,4,0,0,1,,3,S,0,S,13,0.015747,0.765697,0.012057
8,6,6,4,0,0,1,,2,S,0,S,19,0.756127,0.043535,0.032918
8,7,7,4,0,0,1,,3,S,0,S,17,0.776863,0.022698,0.017633
8,8,7,3,0,0,1,,4,S,0,S,15,0.784309,0.013069,0.01025
8,9,8,7,0,0,0,,1,S,0,S,22,0.039299,0.761613,0.029931
8,10,5,2,0,0,1,,3,S,0,S,15,0.786708,0.00976,0.007678
8,11,3,8,0,0,1,,5,S,0,S,15,0,0.799668,0
8,12,2,6,0,0,1,,4,S,0,S,15,0.007378,0.789412,0.005824
8,13,3,2,0,0,1,,1,S,0,S,18,0.795421,0.010334,0.00822
8,14,8,1,0,0,1,,7,L,0,S,14,0.784264,0.006968,0.005464
8,15,8,6,0,0,1,,2,S,0,S,21,0.785135,0.01802,0.014148
8,16,4,5,0,0,1,,1,S,0,S,20,0.046983,0.753733,0.035412
8,17,6,3,0,0,1,,3,S,0,S,16,0.787965,0.014426,0.011367
8,18,9,1,0,0,1,,8,L,0,S,13,0.76875,0.014515,0.011158
8,19,5,8,0,0,1,,3,S,0,S,17,0.019816,0.776729,0.015392
8,20,3,4,0,0,1,,1,S,0,S,19,0.045941,0.750555,0.034481
8,21,9,3,0,0,1,,6,S,0,S,14,0.791573,0.002888,0.002286
8,22,5,9,0,0,1,,4,S,0,S,16,0.026326,0.76872,0.020237
8,23,2,1,0,0,1,,1,S,0,S,20,0.7809,0.023767,0.018559
8,24,7,1,0,0,1,,6,S,0,S,14,0.777098,0.013902,0.010804
8,25,1,5,0,0,1,,4,S,0,S,14,0,0.801719,0
8,26,1,7,0,0,1,,6,S,0,S,12,0.012891,0.762072,0.009824
8,27,1,3,0,0,1,,2,S,0,S,14,0.014965,0.774698,0.011593
8,28,6,5,0,0,1,,1,S,0,S,17,0.756348,0.04061,0.030715
8,29,5,6,0,0,1,,1,S,0,S,24,0.042219,0.756509,0.031939
8,30,6,7,0,0,1,,1,S,0,S,17,0.028087,0.773225,0.021718
8,31,2,7,0,0,1,,5,S,0,S,14,0.013791,0.778453,0.010736
8,32,1,8,0,0,1,,7,L,0,S,12,0.005623,0.769199,0.004325
8,33,6,2,0,0,1,,4,S,0,S,15,0.77175,0.024071,0.018577
8,34,7,9,0,0,1,,2,S,0,S,17,0.016868,0.78531,0.013247
8,35,9,8,0,0,1,,1,S,0,S,23,0.75215,0.045069,0.033898
8,36,4,7,0,0,1,,3,S,0,S,15,0.00121,0.801071,0.000969
8,37,4,2,0,0,1,,2,S,0,S,19,0.791517,0.016788,0.013288
8,38,4,1,0,0,1,,3,S,0,S,17,0.766216,0.032983,0.025272
8,39,9,6,0,0,1,,3,S,0,S,17,0.785822,0.013948,0.010961
8,40,4,9,0,0,1,,5,S,0,S,14,0.006292,0.789496,0.004968
8,41,3,7,0,0,1,,4,S,0,S,15,0.018251,0.77685,0.014178
8,42,4,8,0,0,1,,4,S,0,S,14,0.019407,0.769745,0.014938
8,43,1,9,0,0,1,,8,L,0,S,12,0,0.780103,0
8,44,3,6,0,0,1,,3,S,0,S,16,0.026383,0.767871,0.020259
8,45,9,5,0,0,1,,4,S,0,S,14,0.756641,0.028819,0.021806
8,46,7,8,0,0,1,,1,S,0,S,18,0.018666,0.782024,0.014597
8,47,3,9,0,0,1,,6,S,0,S,14,0.019176,0.770427,0.014773
8,48,3,1,0,0,1,,2,S,0,S,17,0.798714,0.005202,0.004155
8,49,4,3,0,0,1,,1,S,0,S,22,0.781405,0.027257,0.021299
8,50,7,6,0,0,1,,1,S,0,S,23,0.754496,0.045124,0.034046
8,51,5,3,0,0,1,,2,S,0,S,15,0.757444,0.032599,0.024692
8,52,8,2,0,0,1,,6,S,0,S,14,0.766564,0.021384,0.016392
8,53,5,7,0,0,1,,2,S,0,S,18,0.037203,0.760138,0.028279
8,54,2,3,0,0,1,,1,S,0,S,21,0.036562,0.767219,0.028051
8,55,8,4,0,0,1,,4,S,0,S,16,0.750374,0.039577,0.029698
8,56,4,6,0,0,1,,2,S,0,S,15,0.038915,0.750504,0.029206
8,57,9,2,0,0,1,,7,L,0,S,13,0.75523,0.025533,0.019284
8,58,9,4,0,0,1,,5,S,0,S,15,0.779382,0.014822,0.011552
8,59,6,8,0,0,1,,2,S,0,S,16,0.024739,0.77132,0.019082
8,60,8,5,0,0,1,,3,S,0,S,16,0.795255,0.004812,0.003827
8,61,2,5,0,0,1,,3,S,0,S,18,0.009527,0.796149,0.007585
8,62,9,7,0,0,1,,2,S,0,S,19,0.77706,0.025586,0.019882
8,63,5,4,0,0,1,,1,S,0,S,18,0.77063,0.027797,0.021421
8,64,6,1,0,0,1,,5,S,0,S,15,0.796544,0.003816,0.00304
8,65,1,2,0,0,1,,1,S,0,S,14,0.032155,0.752098,0.024184
8,66,5,1,0,0,1,,4,S,0,S,14,0.757071,0.027969,0.021174
8,67,7,5,0,0,1,,2,S,0,S,16,0.779877,0.018455,0.014393
8,68,3,5,0,0,1,,2,S,0,S,25,0.048688,0.751557,0.036592
8,69,6,9,0,0,1,,3,S,0,S,15,0.03725,0.754398,0.028101
8,70,2,9,0,0,1,,7,L,0,S,13,0.024222,0.757871,0.018357
8,71,7,2,0,0,1,,5,S,0,S,14,0.757806,0.02958,0.022416
8,72,2,4,0,0,1,,2,S,0,S,16,0.035052,0.758554,0.026589
9,1,5,4,0,0,1,,1,S,0,S,25,0.756383,0.044139,0.033386
9,2,4,7,0,0,1,,3,S,0,S,16,0.011408,0.788748,0.008998
9,3,9,8,0,0,1,,1,S,0,S,25,0.767739,0.035503,0.027257
9,4,8,7,0,0,1,,1,S,0,S,20,0.764609,0.033597,0.025688
9,5,5,2,0,0,1,,3,S,0,S,14,0.775578,0.014946,0.011592
9,6,2,9,0,0,1,,7,L,0,S,14,0.00981,0.783301,0.007684
9,7,8,9,0,0,1,,1,S,0,S,21,0.04427,0.753954,0.033377
9,8,6,3,0,0,1,,3,S,0,S,17,0.753831,0.039978,0.030137
9,9,1,9,0,0,1,,8,L,0,S,12,0.007767,0.769626,0.005978
9,10,1,5,0,0,1,,4,S,0,S,13,0.024934,0.755245,0.018831
9,11,6,8,0,0,1,,2,S,0,S,16,0.034923,0.759295,0.026517
9,12,5,3,0,0,1,,2,S,0,S,19,0.754381,0.043692,0.032961
9,13,7,9,0,0,1,,2,S,0,S,20,0.047841,0.750468,0.035903
9,14,9,1,0,0,1,,8,L,0,S,13,0.778519,0.005547,0.004318
9,15,5,1,0,0,1,,4,S,0,S,15,0.798636,0.000233,0.000186
9,16,2,3,0,0,1,,1,S,0,S,20,0.03725,0.763825,0.028453
9,17,5,9,0,0,1,,4,S,0,S,15,0.018222,0.777264,0.014163
9,18,3,9,0,0,1,,6,S,0,S,13,0.017529,0.766123,0.013429
9,19,6,4,0,0,1,,2,S,0,S,19,0.754009,0.041717,0.031455
9,20,2,1,0,0,1,,1,S,0,S,16,0.773323,0.022879,0.017693
9,21,3,4,0,0,1,,1,S,0,S,16,0.010024,0.788793,0.007907
9,22,2,5,0,0,1,,3,S,0,S,18,0.01425,0.790664,0.011267
9,23,6,2,0,0,1,,4,S,0,S,14,0.795439,0,0
9,24,8,6,0,0,1,,2,S,0,S,16,0.78232,0.013368,0.010458
9,25,2,4,0,0,1,,2,S,0,S,18,0.022182,0.778684,0.017273
9,26,1,4,0,0,1,,3,S,0,S,13,0.027197,0.750449,0.02041
9,27,9,7,0,0,1,,2,S,0,S,19,0.75793,0.037836,0.028677
9,28,6,7,0,0,1,,1,S,0,S,18,0.018683,0.782017,0.01461
9,29,7,3,0,0,1,,4,S,0,S,15,0.784582,0.011325,0.008886
9,30,4,5,0,0,1,,1,S,0,S,22,0.02458,0.782779,0.01924
9,31,2,8,0,0,1,,6,S,0,S,14,0.020511,0.770327,0.0158
9,32,1,3,0,0,1,,2,S,0,S,14,0.005646,0.786481,0.00444
9,33,2,6,0,0,1,,4,S,0,S,17,0.030923,0.765279,0.023665
9,34,9,5,0,0,1,,4,S,0,S,15,0.762724,0.027353,0.020863
9,35,8,3,0,0,1,,5,S,0,S,15,0.786685,0.008392,0.006602
9,36,7,5,0,0,1,,2,S,0,S,16,0.798766,0.003473,0.002774
9,37,3,5,0,0,1,,2,S,0,S,16,0.005539,0.796385,0.004411
9,38,4,2,0,0,1,,2,S,0,S,14,0.759631,0.027812,0.021126
9,39,4,9,0,0,1,,5,S,0,S,15,0.001065,0.800029,0.000852
9,40,3,2,0,0,1,,1,S,0,S,17,0.777738,0.021697,0.016875
9,41,5,7,0,0,1,,2,S,0,S,16,0.037789,0.754187,0.0285
9,42,4,1,0,0,1,,3,S,0,S,15,0.779535,0.015748,0.012276
9,43,9,3,0,0,1,,6,S,0,S,15,0.794713,0.002054,0.001632
9,44,4,8,0,0,1,,4,S,0,S,15,0.014921,0.783253,0.011687
9,45,5,8,0,0,1,,3,S,0,S,15,0.034711,0.757022,0.026277
9,46,5,6,0,0,1,,1,S,0,S,25,0.022883,0.782683,0.01791
9,47,1,8,0,0,1,,7,L,0,S,12,0.012889,0.763538,0.009842
9,48,6,9,0,0,1,,3,S,0,S,16,0.013061,0.78621,0.010268
9,49,7,1,0,0,1,,6,S,0,S,13,0.773895,0.010281,0.007957
9,50,3,7,0,0,1,,4,S,0,S,14,0.00776,0.783818,0.006083
9,51,7,4,0,0,1,,3,S,0,S,16,0.798136,0.002492,0.001989
9,52,1,6,0,0,1,,5,S,0,S,13,0.020655,0.758935,0.015676
9,53,9,6,0,0,1,,3,S,0,S,16,0.793507,0.004509,0.003578
9,54,6,1,0,0,1,,5,S,0,S,14,0.771445,0.016629,0.012828
9,55,8,2,0,0,1,,6,S,0,S,13,0.791117,0,0
9,56,8,5,0,0,1,,3,S,0,S,15,0.752323,0.035487,0.026698
9,57,1,7,0,0,1,,6,S,0,S,13,0,0.802095,0
9,58,8,1,0,0,1,,7,L,0,S,13,0.77415,0.008923,0.006908
9,59,4,3,0,0,1,,1,S,0,S,22,0.756288,0.045193,0.034179
9,60,8,4,0,0,1,,4,S,0,S,15,0.751736,0.034429,0.025881
9,61,9,4,0,0,1,,5,S,0,S,15,0.761957,0.026455,0.020158
9,62,6,5,0,0,1,,1,S,0,S,20,0.794408,0.012163,0.009662
9,63,7,8,0,0,1,,1,S,0,S,25,0.0261,0.781542,0.020398
9,64,9,2,0,0,1,,7,L,0,S,13,0.794976,0,0
9,65,7,2,0,0,1,,5,S,0,S,13,0.79109,0,0
9,66,3,1,0,0,1,,2,S,0,S,19,0.787494,0.016163,0.012729
9,67,4,6,0,0,1,,2,S,0,S,20,0.03565,0.765021,0.027273
9,68,7,6,0,0,1,,1,S,0,S,16,0.778396,0.017802,0.013857
9,69,3,8,0,0,1,,5,S,0,S,13,0.025685,0.756245,0.019424
9,70,2,7,0,0,1,,5,S,0,S,15,0.008745,0.787836,0.00689
9,71,3,6,0,0,1,,3,S,0,S,15,0.031826,0.756888,0.024089
9,72,1,2,0,0,1,,1,S,0,S,18,0.031714,0.766082,0.024296
10,1,4,8,0,0,1,,4,S,0,S,15,0.006257,0.796867,0.004986
10,2,4,7,0,0,1,,3,S,0,S,14,0.034273,0.751979,0.025773
10,3,9,2,0,0,1,,7,L,0,S,13,0.777981,0.004961,0.00386
10,4,2,5,0,0,1,,3,S,0,S,17,0.026145,0.772174,0.020188
10,5,3,8,0,0,1,,5,S,0,S,14,0.033068,0.75584,0.024994
10,6,3,5,0,0,1,,2,S,0,S,22,0.032294,0.772772,0.024956
10,7,3,9,0,0,1,,6,S,0,S,14,0.021404,0.768139,0.016441
10,8,1,2,0,0,1,,1,S,0,S,15,0.029683,0.75649,0.022455
10,9,8,3,0,0,1,,5,S,0,S,15,0.776527,0.017631,0.013691
10,10,5,6,0,0,0,,1,S,0,S,20,0.758989,0.041734,0.031676
10,11,8,4,0,0,1,,4,S,0,S,14,0.79603,0,0
10,12,7,6,0,0,1,,1,S,0,S,17,0.762951,0.034148,0.026053
10,13,8,7,0,0,1,,1,S,0,S,27,0.752351,0.047294,0.035581
10,14,4,3,0,0,0,,1,S,0,S,20,0.039392,0.763656,0.030082
10,15,1,4,0,0,1,,3,S,0,S,14,0.026867,0.758517,0.020379
10,16,9,7,0,0,1,,2,S,0,S,20,0.772193,0.027025,0.020868
10,17,4,6,0,0,1,,2,S,0,S,17,0.013092,0.793016,0.010382
10,18,2,6,0,0,1,,4,S,0,S,15,0.010258,0.786937,0.008072
10,19,4,2,0,0,1,,2,S,0,S,16,0.773122,0.024035,0.018582
10,20,3,1,0,0,1,,2,S,0,S,17,0.772493,0.028266,0.021835
10,21,9,8,0,0,1,,1,S,0,S,19,0.796436,0.01016,0.008091
10,22,3,7,0,0,1,,4,S,0,S,14,0.025407,0.762001,0.01936
10,23,6,3,0,0,1,,3,S,0,S,17,0.750966,0.043194,0.032437
10,24,6,2,0,0,1,,4,S,0,S,14,0.767281,0.019903,0.015271
10,25,5,1,0,0,1,,4,S,0,S,14,0.773017,0.017806,0.013764
10,26,4,1,0,0,1,,3,S,0,S,16,0.755249,0.040804,0.030817
10,27,5,4,0,0,1,,1,S,0,S,15,0.79642,0.00335,0.002668
10,28,1,3,0,0,1,,2,S,0,S,13,0.019876,0.759818,0.015102
10,29,7,4,0,0,1,,3,S,0,S,14,0.779844,0.012095,0.009432
10,30,6,1,0,0,1,,5,S,0,S,14,0.760762,0.027428,0.020866
10,31,2,4,0,0,1,,2,S,0,S,22,0.01685,0.791194,0.013331
10,32,1,5,0,0,1,,4,S,0,S,14,0,0.797994,0
10,33,1,7,0,0,1,,6,S,0,S,12,0.006764,0.76808,0.005195
10,34,6,8,0,0,1,,2,S,0,S,18,0.010567,0.797412,0.008426
10,35,5,9,0,0,1,,4,S,0,S,17,0.041207,0.753229,0.031038
10,36,4,9,0,0,1,,5,S,0,S,14,0.029956,0.758537,0.022723
10,37,9,5,0,0,1,,4,S,0,S,14,0.77052,0.017002,0.0131
10,38,9,1,0,0,1,,8,L,0,S,13,0.775442,0.009169,0.00711
10,39,5,2,0,0,1,,3,S,0,S,14,0.778582,0.011055,0.008607
10,40,2,7,0,0,1,,5,S,0,S,14,0,0.801373,0
10,41,8,1,0,0,1,,7,L,0,S,13,0.762919,0.020251,0.01545
10,42,7,5,0,0,1,,2,S,0,S,15,0.77983,0.015095,0.011772
10,43,1,8,0,0,1,,7,L,0,S,12,0.009485,0.767706,0.007282
10,44,4,5,0,0,1,,1,S,0,S,29,0.042403,0.763696,0.032383
10,45,5,8,0,0,1,,3,S,0,S,18,0.046562,0.751853,0.035008
10,46,7,3,0,0,1,,4,S,0,S,16,0.799632,0.002109,0.001686
10,47,3,2,0,0,1,,1,S,0,S,17,0.794088,0.008391,0.006663
10,48,7,1,0,0,1,,6,S,0,S,14,0.802081,0,0
10,49,7,2,0,0,1,,5,S,0,S,13,0.752658,0.025399,0.019117
10,50,7,9,0,0,1,,2,S,0,S,21,0.025266,0.778579,0.019672
10,51,8,9,0,0,1,,1,S,0,S,30,0.043199,0.758878,0.032782
10,52,1,9,0,0,1,,8,L,0,S,12,0.004952,0.771351,0.003819
10,53,9,3,0,0,1,,6,S,0,S,15,0.79978,0,0
10,54,2,9,0,0,1,,7,L,0,S,13,0.026556,0.752989,0.019996
10,55,6,4,0,0,1,,2,S,0,S,15,0.781767,0.014997,0.011724
10,56,6,9,0,0,1,,3,S,0,S,17,0.015135,0.786619,0.011906
10,57,9,4,0,0,1,,5,S,0,S,13,0.757071,0.022978,0.017396
10,58,3,6,0,0,1,,3,S,0,S,16,0.030788,0.766187,0.02359
10,59,7,8,0,0,1,,1,S,0,S,27,0.037036,0.769356,0.028494
10,60,5,7,0,0,1,,2,S,0,S,18,0.016455,0.785695,0.012929
10,61,8,5,0,0,1,,3,S,0,S,14,0.750342,0.034187,0.025652
10,62,8,2,0,0,1,,6,S,0,S,13,0.766285,0.01535,0.011763
10,63,1,6,0,0,1,,5,S,0,S,13,0,0.789805,0
10,64,3,4,0,0,0,,1,S,0,S,19,0.775177,0.029063,0.022529
10,65,2,8,0,0,1,,6,S,0,S,14,0,0.798363,0
10,66,2,3,0,0,1,,1,S,0,S,16,0.026778,0.768215,0.020571
10,67,8,6,0,0,1,,2,S,0,S,16,0.758014,0.035982,0.027275
10,68,2,1,0,0,1,,1,S,0,S,23,0.783705,0.023331,0.018284
10,69,6,5,0,0,1,,1,S,0,S,16,0.75442,0.038474,0.029025
10,70,9,6,0,0,1,,3,S,0,S,16,0.795366,0.004836,0.003846
10,71,6,7,0,0,1,,1,S,0,S,17,0.024413,0.773876,0.018892
10,72,5,3,0,0,1,,2,S,0,S,17,0.78369,0.017225,0.013499
11,1,5,6,0,0,1,,1,S,0,S,24,0.031875,0.773745,0.024663
11,2,8,2,0,0,1,,6,S,0,S,13,0.75707,0.025002,0.018928
11,3,1,2,0,0,1,,1,S,0,S,22,0.016469,0.792045,0.013044
11,4,8,9,0,0,1,,1,S,0,S,20,0.029593,0.775087,0.022937
11,5,9,4,0,0,1,,5,S,0,S,14,0.755469,0.030249,0.022852
11,6,7,5,0,0,1,,2,S,0,S,21,0.783695,0.023354,0.018302
11,7,3,2,0,0,1,,1,S,0,S,17,0.769254,0.029538,0.022722
11,8,1,5,0,0,1,,4,S,0,S,14,0.023191,0.766779,0.017783
11,9,4,1,0,0,1,,3,S,0,S,14,0.763018,0.025,0.019075
11,10,7,6,0,0,1,,1,S,0,S,28,0.758947,0.043856,0.033285
11,11,3,1,0,0,1,,2,S,0,S,16,0.764267,0.032863,0.025116
11,12,2,6,0,0,1,,4,S,0,S,15,0.030146,0.760603,0.022929
11,13,8,3,0,0,1,,5,S,0,S,15,0.78665,0.011862,0.009332
11,14,1,7,0,0,1,,6,S,0,S,13,0.030008,0.750866,0.022532
11,15,8,6,0,0,1,,2,S,0,S,18,0.792519,0.012977,0.010284
11,16,4,9,0,0,1,,5,S,0,S,16,0.010268,0.788912,0.0081
11,17,7,2,0,0,1,,5,S,0,S,14,0.768267,0.021055,0.016176
11,18,7,9,0,0,1,,2,S,0,S,16,0.040736,0.752216,0.030643
11,19,6,8,0,0,1,,2,S,0,S,20,0.042349,0.760127,0.03219
11,20,9,2,0,0,1,,7,L,0,S,13,0.77894,0.008171,0.006365
11,21,5,2,0,0,1,,3,S,0,S,14,0.758956,0.028596,0.021703
11,22,3,8,0,0,1,,5,S,0,S,15,0.037519,0.754069,0.028292
11,23,3,5,0,0,1,,2,S,0,S,16,0.032414,0.763813,0.024758
11,24,3,6,0,0,1,,3,S,0,S,16,0.009299,0.791917,0.007364
11,25,7,8,0,0,1,,1,S,0,S,27,0.044048,0.760898,0.033516
11,26,9,7,0,0,1,,2,S,0,S,17,0.764298,0.034327,0.026236
11,27,2,8,0,0,1,,6,S,0,S,15,0.022942,0.77189,0.017708
11,28,4,7,0,0,1,,3,S,0,S,18,0.026824,0.77322,0.020741
11,29,1,9,0,0,1,,8,L,0,S,13,0.004383,0.78417,0.003437
11,30,2,3,0,0,1,,1,S,0,S,19,0.022999,0.781155,0.017965
11,31,4,8,0,0,1,,4,S,0,S,20,0.029814,0.773146,0.023051
11,32,8,5,0,0,1,,3,S,0,S,17,0.792971,0.012056,0.00956
11,33,8,1,0,0,1,,7,L,0,S,13,0.772538,0.014679,0.01134
11,34,2,7,0,0,1,,5,S,0,S,15,0.003141,0.796419,0.002501
11,35,5,7,0,0,1,,2,S,0,S,19,0.025134,0.779802,0.019599
11,36,7,4,0,0,1,,3,S,0,S,17,0.778851,0.020777,0.016183
11,37,6,7,0,0,1,,1,S,0,S,18,0.032294,0.768955,0.024833
11,38,9,1,0,0,1,,8,L,0,S,13,0.792452,0,0
11,39,4,3,0,0,1,,1,S,0,S,18,0.795247,0.009316,0.007409
11,40,5,3,0,0,1,,2,S,0,S,17,0.786269,0.017062,0.013415
11,41,5,1,0,0,1,,4,S,0,S,14,0.779599,0.014201,0.011071
11,42,6,9,0,0,1,,3,S,0,S,16,0.011985,0.78919,0.009458
11,43,3,9,0,0,1,,6,S,0,S,14,0.010961,0.781938,0.008571
11,44,4,5,0,0,1,,1,S,0,S,28,0.020969,0.786451,0.016491
11,45,6,2,0,0,1,,4,S,0,S,15,0.800098,0.000341,0.000273
11,46,1,8,0,0,1,,7,L,0,S,14,0.006715,0.788795,0.005296
11,47,6,5,0,0,1,,1,S,0,S,36,0.788831,0.021524,0.016979
11,48,1,6,0,0,1,,5,S,0,S,14,0.011427,0.780826,0.008923
11,49,7,1,0,0,1,,6,S,0,S,14,0.787705,0.007557,0.005952
11,50,6,3,0,0,1,,3,S,0,S,17,0.762246,0.035864,0.027337
11,51,4,6,0,0,1,,2,S,0,S,21,0.026045,0.776524,0.020225
11,52,3,7,0,0,1,,4,S,0,S,15,0.014954,0.782186,0.011697
11,53,2,9,0,0,1,,7,L,0,S,14,0.002648,0.791867,0.002097
11,54,3,4,0,0,1,,1,S,0,S,19,0.035403,0.764261,0.027057
11,55,2,4,0,0,1,,2,S,0,S,18,0.029231,0.769475,0.022493
11,56,5,8,0,0,1,,3,S,0,S,22,0.036093,0.769844,0.027786
11,57,6,4,0,0,1,,2,S,0,S,18,0.772594,0.027614,0.021334
11,58,9,6,0,0,1,,3,S,0,S,16,0.772088,0.025017,0.019316
11,59,1,3,0,0,1,,2,S,0,S,16,0.005629,0.797742,0.004491
11,60,8,4,0,0,1,,4,S,0,S,15,0.768845,0.024119,0.018544
11,61,7,3,0,0,1,,4,S,0,S,16,0.758197,0.036492,0.027668
11,62,9,5,0,0,1,,4,S,0,S,15,0.753531,0.037507,0.028262
11,63,9,8,0,0,1,,1,S,0,S,16,0.766449,0.031055,0.023802
11,64,2,1,0,0,1,,1,S,0,S,17,0.781483,0.020804,0.016258
11,65,5,9,0,0,1,,4,S,0,S,16,0.02444,0.773585,0.018907
11,66,6,1,0,0,1,,5,S,0,S,14,0.770446,0.021106,0.016261
11,67,4,2,0,0,1,,2,S,0,S,15,0.792039,0.004797,0.003799
11,68,9,3,0,0,1,,6,S,0,S,14,0.770075,0.020602,0.015865
11,69,1,4,0,0,1,,3,S,0,S,15,0.031033,0.75946,0.023568
11,70,8,7,0,0,1,,1,S,0,S,20,0.775583,0.029655,0.023
11,71,5,4,0,0,1,,1,S,0,S,17,0.753628,0.041047,0.030934
11,72,2,5,0,0,1,,3,S,0,S,16,0.013811,0.786561,0.010863
12,1,3,1,0,0,1,,2,S,0,S,15,0.774446,0.020914,0.016197
12,2,7,6,0,0,1,,1,S,0,S,17,0.781038,0.018955,0.014805
12,3,8,3,0,0,1,,5,S,0,S,15,0.758602,0.032089,0.024343
12,4,1,9,0,0,1,,8,L,0,S,13,0,0.802108,0
12,5,6,9,0,0,1,,3,S,0,S,19,0.039443,0.758407,0.029914
12,6,3,8,0,0,1,,5,S,0,S,15,0.028099,0.761593,0.0214
12,7,4,9,0,0,1,,5,S,0,S,16,0.005376,0.799138,0.004296
12,8,5,8,0,0,1,,3,S,0,S,17,0.00943,0.792622,0.007475
12,9,4,8,0,0,1,,4,S,0,S,15,0.037304,0.752208,0.02806
12,10,4,2,0,0,1,,2,S,0,S,16,0.760935,0.035081,0.026694
12,11,4,5,0,0,1,,1,S,0,S,19,0.038189,0.760818,0.029055
12,12,6,4,0,0,1,,2,S,0,S,19,0.774368,0.02702,0.020923
12,13,7,1,0,0,1,,6,S,0,S,13,0.759477,0.02181,0.016565
12,14,2,7,0,0,1,,5,S,0,S,13,0.024154,0.755853,0.018257
12,15,2,6,0,0,1,,4,S,0,S,15,0.011305,0.785413,0.008879
12,16,5,2,0,0,1,,3,S,0,S,15,0.759076,0.032148,0.024403
12,17,5,3,0,0,1,,2,S,0,S,19,0.759619,0.040627,0.030861
12,18,1,5,0,0,1,,4,S,0,S,13,0.021285,0.757315,0.01612
12,19,9,6,0,0,1,,3,S,0,S,15,0.750462,0.041504,0.031147
12,20,6,2,0,0,1,,4,S,0,S,15,0.79873,0,0
12,21,7,4,0,0,1,,3,S,0,S,17,0.757141,0.037061,0.028061
12,22,9,5,0,0,1,,4,S,0,S,16,0.775452,0.021615,0.016761
12,23,2,8,0,0,1,,6,S,0,S,13,0.027084,0.750012,0.020313
12,24,2,9,0,0,1,,7,L,0,S,14,0,0.803289,0
12,25,8,9,0,0,0,,1,S,0,S,23,0.756755,0.044327,0.033545
12,26,8,4,0,0,1,,4,S,0,S,16,0.755652,0.037454,0.028302
12,27,6,1,0,0,1,,5,S,0,S,14,0.796765,0,0
12,28,3,5,0,0,1,,2,S,0,S,19,0.008018,0.796086,0.006383
12,29,1,4,0,0,1,,3,S,0,S,13,0.020143,0.762041,0.01535
12,30,8,2,0,0,1,,6,S,0,S,14,0.78886,0.004415,0.003482
12,31,5,7,0,0,1,,2,S,0,S,16,0.038041,0.755583,0.028743
12,32,1,7,0,0,1,,6,S,0,S,12,0.022082,0.750073,0.016563
12,33,8,7,0,0,1,,1,S,0,S,31,0.770179,0.03439,0.026486
12,34,5,9,0,0,1,,4,S,0,S,17,0.016083,0.786659,0.012652
12,35,8,1,0,0,1,,7,L,0,S,13,0.774831,0.01143,0.008856
12,36,5,6,0,0,0,,1,S,0,S,24,0.788159,0.021509,0.016953
12,37,7,8,0,0,1,,1,S,0,S,22,0.040983,0.755677,0.03097
12,38,9,3,0,0,1,,6,S,0,S,15,0.780968,0.017019,0.013292
12,39,8,6,0,0,1,,2,S,0,S,16,0.774328,0.02351,0.018204
12,40,9,8,0,0,1,,1,S,0,S,21,0.751238,0.048329,0.036306
12,41,4,3,0,0,1,,1,S,0,S,35,0.779991,0.029669,0.023142
12,42,6,7,0,0,1,,1,S,0,S,19,0.010148,0.794927,0.008067
12,43,3,6,0,0,1,,3,S,0,S,19,0.035583,0.766098,0.02726
12,44,1,2,0,0,1,,1,S,0,S,15,0.02933,0.761029,0.022321
12,45,4,7,0,0,1,,3,S,0,S,15,0.031813,0.761394,0.024222
12,46,5,4,0,0,0,,1,S,0,S,35,0.029728,0.778096,0.023131
12,47,6,3,0,0,1,,3,S,0,S,17,0.779049,0.020394,0.015888
12,48,1,8,0,0,1,,7,L,0,S,13,0,0.801341,0
12,49,1,3,0,0,1,,2,S,0,S,14,0.002234,0.79189,0.001769
12,50,7,9,0,0,1,,2,S,0,S,24,0.023634,0.780966,0.018458
12,51,7,3,0,0,1,,4,S,0,S,16,0.775621,0.02034,0.015776
12,52,2,5,0,0,1,,3,S,0,S,15,0.005704,0.788462,0.004497
12,53,3,4,0,0,1,,1,S,0,S,18,0.043138,0.753998,0.032526
12,54,9,7,0,0,1,,2,S,0,S,22,0.768928,0.036651,0.028182
12,55,6,8,0,0,1,,2,S,0,S,19,0.023681,0.775713,0.01837
12,56,3,7,0,0,1,,4,S,0,S,15,0.022954,0.770316,0.017682
12,57,9,4,0,0,1,,5,S,0,S,16,0.784962,0.016884,0.013253
12,58,2,1,0,0,1,,1,S,0,S,21,0.790451,0.016786,0.013268
12,59,3,9,0,0,1,,6,S,0,S,15,0.032004,0.758956,0.02429
12,60,3,2,0,0,1,,1,S,0,S,17,0.782885,0.018031,0.014116
12,61,2,3,0,0,1,,1,S,0,S,15,0.035344,0.75354,0.026633
12,62,5,1,0,0,1,,4,S,0,S,14,0.769722,0.021266,0.016369
12,63,9,1,0,0,1,,8,L,0,S,13,0.786875,0.004297,0.003381
12,64,4,6,0,0,1,,2,S,0,S,20,0.041702,0.762365,0.031792
12,65,9,2,0,0,1,,7,L,0,S,14,0.803388,0,0
12,66,1,6,0,0,1,,5,S,0,S,13,0.024447,0.757113,0.018509
12,67,8,5,0,0,1,,3,S,0,S,17,0.793815,0.006836,0.005427
12,68,7,5,0,0,1,,2,S,0,S,18,0.792524,0.007874,0.00624
12,69,7,2,0,0,1,,5,S,0,S,14,0.769533,0.017946,0.01381
12,70,6,5,0,0,1,,1,S,0,S,19,0.758872,0.036266,0.027521
12,71,4,1,0,0,1,,3,S,0,S,15,0.791552,0.009415,0.007452
12,72,2,4,0,0,1,,2,S,0,S,15,0.004116,0.79384,0.003267
13,1,8,3,0,0,1,,5,S,0,S,15,0.765315,0.025362,0.01941
13,2,4,6,0,0,1,,2,S,0,S,19,0.009204,0.795988,0.007326
13,3,4,9,0,0,1,,5,S,0,S,15,0.03595,0.750599,0.026984
13,4,5,4,0,0,1,,1,S,0,S,19,0.764338,0.03317,0.025353
13,5,7,9,0,0,1,,2,S,0,S,19,0.042387,0.755132,0.032008
13,6,5,6,0,0,1,,1,S,0,S,18,0.023153,0.777665,0.018005
13,7,5,9,0,0,1,,4,S,0,S,15,0.02705,0.762797,0.020633
13,8,6,9,0,0,1,,3,S,0,S,18,0.007581,0.792815,0.00601
13,9,9,5,0,0,1,,4,S,0,S,15,0.783833,0.012495,0.009794
13,10,5,8,0,0,1,,3,S,0,S,15,0.004328,0.793883,0.003436
13,11,4,3,0,0,1,,1,S,0,S,22,0.781084,0.023943,0.018702
13,12,1,4,0,0,1,,3,S,0,S,16,0.018853,0.775545,0.014621
13,13,8,1,0,0,1,,7,L,0,S,13,0.773156,0.011141,0.008614
13,14,3,9,0,0,1,,6,S,0,S,14,0.024823,0.758738,0.018834
13,15,1,5,0,0,1,,4,S,0,S,14,0.014242,0.77675,0.011063
13,16,6,1,0,0,1,,5,S,0,S,14,0.787446,0.004255,0.003351
13,17,8,4,0,0,1,,4,S,0,S,15,0.791773,0.002659,0.002106
13,18,7,6,0,0,1,,1,S,0,S,19,0.775939,0.027002,0.020952
13,19,9,6,0,0,1,,3,S,0,S,15,0.773608,0.019122,0.014793
13,20,3,5,0,0,1,,2,S,0,S,16,0.022951,0.772793,0.017737
13,21,5,7,0,0,1,,2,S,0,S,16,0.026836,0.771109,0.020694
13,22,3,2,0,0,1,,1,S,0,S,26,0.77051,0.031715,0.024436
13,23,1,2,0,0,1,,1,S,0,S,16,0.038218,0.753151,0.028784
13,24,2,3,0,0,1,,1,S,0,S,15,0.03785,0.750768,0.028416
13,25,4,1,0,0,1,,3,S,0,S,15,0.79565,0.003202,0.002548
13,26,3,6,0,0,1,,3,S,0,S,16,0.017106,0.778501,0.013317
13,27,9,8,0,0,1,,1,S,0,S,19,0.766677,0.032986,0.02529
13,28,3,8,0,0,1,,5,S,0,S,14,0.008104,0.782399,0.006341
13,29,4,8,0,0,1,,4,S,0,S,15,0.011618,0.783903,0.009107
13,30,2,4,0,0,1,,2,S,0,S,17,0.005164,0.796034,0.004111
13,31,8,6,0,0,1,,2,S,0,S,17,0.757354,0.035974,0.027245
13,32,7,2,0,0,1,,5,S,0,S,15,0.791448,0.007125,0.005639
13,33,9,2,0,0,1,,7,L,0,S,13,0.760342,0.020712,0.015748
13,34,9,7,0,0,1,,2,S,0,S,16,0.778343,0.020585,0.016022
13,35,5,1,0,0,1,,4,S,0,S,15,0.78825,0.009462,0.007459
13,36,2,8,0,0,1,,6,S,0,S,13,0.006321,0.780062,0.004931
13,37,1,3,0,0,1,,2,S,0,S,15,0.021317,0.771666,0.01645
13,38,6,7,0,0,1,,1,S,0,S,20,0.030361,0.771233,0.023415
13,39,9,3,0,0,1,,6,S,0,S,14,0.782561,0.009122,0.007139
13,40,7,8,0,0,1,,1,S,0,S,18,0.00917,0.797359,0.007312
13,41,2,7,0,0,1,,5,S,0,S,14,0,0.799797,0
13,42,9,1,0,0,1,,8,L,0,S,12,0.753678,0.01992,0.015013
13,43,2,1,0,0,1,,1,S,0,S,21,0.773107,0.030802,0.023813
13,44,2,6,0,0,1,,4,S,0,S,14,0.022182,0.765181,0.016973
13,45,6,5,0,0,1,,1,S,0,S,22,0.761215,0.038498,0.029305
13,46,3,7,0,0,1,,4,S,0,S,15,0.01266,0.783494,0.009919
13,47,8,5,0,0,1,,3,S,0,S,17,0.775577,0.023109,0.017923
13,48,1,8,0,0,1,,7,L,0,S,13,0,0.788493,0
13,49,7,1,0,0,1,,6,S,0,S,13,0.761366,0.02232,0.016994
13,50,4,7,0,0,1,,3,S,0,S,16,0.039279,0.754548,0.029638
13,51,2,9,0,0,1,,7,L,0,S,13,0.018087,0.762795,0.013797
13,52,7,4,0,0,1,,3,S,0,S,15,0.768524,0.023155,0.017795
13,53,1,6,0,0,1,,5,S,0,S,14,0.011555,0.778617,0.008997
13,54,7,3,0,0,1,,4,S,0,S,16,0.784472,0.015859,0.012441
13,55,5,2,0,0,1,,3,S,0,S,18,0.780415,0.02124,0.016576
13,56,3,1,0,0,1,,2,S,0,S,16,0.769112,0.025696,0.019763
13,57,4,5,0,0,1,,1,S,0,S,19,0.024701,0.778426,0.019228
13,58,8,9,0,0,1,,1,S,0,S,25,0.035451,0.764041,0.027086
13,59,9,4,0,0,1,,5,S,0,S,14,0.798829,0,0
13,60,4,2,0,0,1,,2,S,0,S,17,0.753329,0.040371,0.030413
13,61,6,3,0,0,1,,3,S,0,S,17,0.769604,0.026122,0.020104
13,62,8,2,0,0,1,,6,S,0,S,14,0.760542,0.024797,0.018859
13,63,6,4,0,0,1,,2,S,0,S,16,0.768991,0.022112,0.017004
13,64,6,2,0,0,1,,4,S,0,S,16,0.797603,0.001643,0.00131
13,65,6,8,0,0,1,,2,S,0,S,16,0.036518,0.753185,0.027505
13,66,1,7,0,0,1,,6,S,0,S,13,0.024958,0.757157,0.018897
13,67,8,7,0,0,1,,1,S,0,S,20,0.772344,0.030499,0.023556
13,68,2,5,0,0,1,,3,S,0,S,14,0.025258,0.762844,0.019268
13,69,5,3,0,0,1,,2,S,0,S,24,0.765663,0.037554,0.028753
13,70,3,4,0,0,1,,1,S,0,S,24,0.014279,0.789127,0.011268
13,71,1,9,0,0,1,,8,L,0,S,13,0.010657,0.772254,0.00823
13,72,7,5,0,0,1,,2,S,0,S,18,0.756097,0.042929,0.032458
14,1,4,8,0,0,1,,4,S,0,S,17,0.006936,0.798398,0.005538
14,2,1,2,0,0,1,,1,S,0,S,19,0.025731,0.775577,0.019957
14,3,2,7,0,0,1,,5,S,0,S,13,0.01928,0.765662,0.014762
14,4,6,7,0,0,1,,1,S,0,S,16,0.026,0.771991,0.020072
14,5,4,9,0,0,1,,5,S,0,S,15,0.010315,0.785899,0.008107
14,6,3,8,0,0,1,,5,S,0,S,16,0.037833,0.754766,0.028555
14,7,9,1,0,0,1,,8,L,0,S,14,0.802584,0,0
14,8,6,1,0,0,1,,5,S,0,S,14,0.775221,0.013506,0.01047
14,9,6,2,0,0,1,,4,S,0,S,14,0.787301,0.005803,0.004569
14,10,5,9,0,0,1,,4,S,0,S,15,0.016659,0.774363,0.0129
14,11,6,9,0,0,1,,3,S,0,S,16,0.036705,0.75562,0.027735
14,12,2,9,0,0,1,,7,L,0,S,13,0.023495,0.757715,0.017802
14,13,5,6,0,0,1,,1,S,0,S,18,0.033582,0.761045,0.025557
14,14,8,3,0,0,1,,5,S,0,S,14,0.798374,0,0
14,15,4,5,0,0,1,,1,S,0,S,18,0.035929,0.764738,0.027476
14,16,5,1,0,0,1,,4,S,0,S,15,0.769113,0.019388,0.014911
14,17,4,2,0,0,1,,2,S,0,S,15,0.787114,0.009721,0.007651
14,18,3,5,0,0,1,,2,S,0,S,18,0.026146,0.775415,0.020274
14,19,9,2,0,0,1,,7,L,0,S,13,0.759918,0.021958,0.016686
14,20,6,5,0,0,1,,1,S,0,S,23,0.763305,0.040952,0.031259
14,21,3,7,0,0,1,,4,S,0,S,15,0.001088,0.798715,0.000869
14,22,2,4,0,0,1,,2,S,0,S,16,0.025623,0.772333,0.01979
14,23,3,2,0,0,1,,1,S,0,S,15,0.779069,0.014797,0.011528
14,24,6,8,0,0,1,,2,S,0,S,21,0.018861,0.788879,0.014879
14,25,7,4,0,0,1,,3,S,0,S,17,0.76841,0.026618,0.020453
14,26,3,6,0,0,1,,3,S,0,S,18,0.011047,0.791551,0.008744
14,27,7,2,0,0,1,,5,S,0,S,14,0.789932,0.0005,0.000395
14,28,5,4,0,0,1,,1,S,0,S,27,0.756216,0.0436,0.032971
14,29,7,1,0,0,1,,6,S,0,S,14,0.778313,0.007799,0.00607
14,30,2,3,0,0,1,,1,S,0,S,21,0.031288,0.775085,0.024251
14,31,7,6,0,0,1,,1,S,0,S,22,0.76503,0.032533,0.024889
14,32,8,1,0,0,1,,7,L,0,S,13,0.776402,0.006663,0.005174
14,33,1,6,0,0,1,,5,S,0,S,13,0.022634,0.757394,0.017143
14,34,8,2,0,0,1,,6,S,0,S,13,0.785479,0.001284,0.001009
14,35,8,9,0,0,1,,1,S,0,S,37,0.047293,0.751746,0.035553
14,36,9,7,0,0,0,,2,S,0,S,18,0.015507,0.790487,0.012258
14,37,4,1,0,0,1,,3,S,0,S,15,0.771002,0.020571,0.01586
14,38,2,6,0,0,1,,4,S,0,S,15,0.007256,0.790295,0.005735
14,39,8,7,0,0,0,,1,S,0,S,25,0.039923,0.763206,0.030469
14,40,1,3,0,0,1,,2,S,0,S,15,0.039137,0.750618,0.029377
14,41,8,5,0,0,1,,3,S,0,S,16,0.775913,0.021697,0.016835
14,42,6,3,0,0,1,,3,S,0,S,15,0.774892,0.021027,0.016294
14,43,7,5,0,0,1,,2,S,0,S,21,0.792264,0.012734,0.010088
14,44,5,7,0,0,1,,2,S,0,S,15,0.009589,0.786026,0.007537
14,45,2,1,0,0,1,,1,S,0,S,19,0.782451,0.01974,0.015445
14,46,9,8,0,0,1,,1,S,0,S,22,0.759667,0.043081,0.032727
14,47,3,4,0,0,1,,1,S,0,S,26,0.023372,0.783455,0.018311
14,48,4,7,0,0,1,,3,S,0,S,15,0.003542,0.797055,0.002823
14,49,6,4,0,0,1,,2,S,0,S,18,0.791818,0.013554,0.010732
14,50,9,6,0,0,1,,3,S,0,S,19,0.776156,0.025979,0.020164
14,51,5,3,0,0,1,,2,S,0,S,17,0.783861,0.016449,0.012893
14,52,1,7,0,0,1,,6,S,0,S,12,0.01902,0.755689,0.014373
14,53,1,4,0,0,1,,3,S,0,S,14,0.016143,0.774248,0.012499
14,54,9,3,0,0,1,,6,S,0,S,14,0.762199,0.027164,0.020704
14,55,5,2,0,0,1,,3,S,0,S,15,0.785047,0.008746,0.006866
14,56,3,1,0,0,1,,2,S,0,S,15,0.762311,0.026075,0.019877
14,57,7,9,0,0,1,,2,S,0,S,17,0.028431,0.764127,0.021725
14,58,1,8,0,0,1,,7,L,0,S,13,0.010057,0.775865,0.007803
14,59,7,8,0,0,1,,1,S,0,S,25,0.013703,0.79185,0.01085
14,60,2,5,0,0,1,,3,S,0,S,15,0.012154,0.786651,0.009561
14,61,3,9,0,0,1,,6,S,0,S,15,0.007723,0.787722,0.006084
14,62,8,4,0,0,1,,4,S,0,S,15,0.784942,0.011098,0.008711
14,63,8,6,0,0,1,,2,S,0,S,16,0.755688,0.035285,0.026664
14,64,4,3,0,0,1,,1,S,0,S,17,0.782725,0.020141,0.015765
14,65,7,3,0,0,1,,4,S,0,S,15,0.782337,0.011703,0.009156
14,66,5,8,0,0,1,,3,S,0,S,17,0.017324,0.78179,0.013544
14,67,2,8,0,0,1,,6,S,0,S,14,0.023211,0.76671,0.017796
14,68,1,5,0,0,1,,4,S,0,S,13,0.02538,0.756296,0.019195
14,69,4,6,0,0,1,,2,S,0,S,18,0.019035,0.783136,0.014907
14,70,9,5,0,0,1,,4,S,0,S,18,0.766348,0.034827,0.026689
14,71,9,4,0,0,1,,5,S,0,S,16,0.773553,0.02444,0.018905
14,72,1,9,0,0,1,,8,L,0,S,13,0,0.805221,0
15,1,1,6,0,0,1,,5,S,0,S,13,0.027159,0.751107,0.020399
15,2,9,8,0,0,0,,1,S,0,S,16,0.020862,0.776734,0.016204
15,3,6,2,0,0,1,,4,S,0,S,14,0.802095,0,0
15,4,5,3,0,0,1,,2,S,0,S,16,0.794602,0.006566,0.005217
15,5,2,8,0,0,1,,6,S,0,S,13,0,0.795524,0
15,6,8,7,0,0,1,,1,S,0,S,18,0.753559,0.041918,0.031588
15,7,1,3,0,0,1,,2,S,0,S,16,0.007159,0.790036,0.005656
15,8,5,1,0,0,1,,4,S,0,S,14,0.802245,0,0
15,9,9,6,0,0,1,,3,S,0,S,17,0.788631,0.01466,0.011562
15,10,2,6,0,0,1,,4,S,0,S,15,0.0198,0.77441,0.015333
15,11,7,1,0,0,1,,6,S,0,S,12,0.761294,0.012771,0.009722
15,12,5,4,0,0,1,,1,S,0,S,20,0.789093,0.015319,0.012088
15,13,5,2,0,0,1,,3,S,0,S,15,0.778586,0.016132,0.01256
15,14,9,2,0,0,1,,7,L,0,S,14,0.799416,0,0
15,15,4,7,0,0,1,,3,S,0,S,16,0.026522,0.764796,0.020284
15,16,4,8,0,0,1,,4,S,0,S,14,0.011621,0.776825,0.009027
15,17,4,1,0,0,1,,3,S,0,S,14,0.785368,0.004693,0.003685
15,18,6,8,0,0,1,,2,S,0,S,16,0.024067,0.773109,0.018606
15,19,9,5,0,0,1,,4,S,0,S,17,0.782907,0.017423,0.013641
15,20,3,6,0,0,1,,3,S,0,S,15,0.033154,0.756627,0.025085
15,21,7,6,0,0,1,,1,S,0,S,15,0.765927,0.025859,0.019806
15,22,7,3,0,0,1,,4,S,0,S,13,0.759188,0.020621,0.015655
15,23,1,5,0,0,1,,4,S,0,S,14,0,0.800837,0
15,24,8,3,0,0,1,,5,S,0,S,13,0.758128,0.022655,0.017175
15,25,2,7,0,0,1,,5,S,0,S,14,0.004442,0.787222,0.003497
15,26,1,8,0,0,1,,7,L,0,S,12,0,0.778809,0
15,27,6,7,0,0,0,,1,S,0,S,27,0.793675,0.015001,0.011906
15,28,4,6,0,0,1,,2,S,0,S,21,0.027009,0.775018,0.020933
15,29,6,4,0,0,1,,2,S,0,S,15,0.753357,0.034549,0.026028
15,30,4,2,0,0,1,,2,S,0,S,15,0.753124,0.032755,0.024668
15,31,4,9,0,0,1,,5,S,0,S,15,0.007171,0.787479,0.005647
15,32,8,6,0,0,1,,2,S,0,S,15,0.761773,0.030459,0.023202
15,33,5,8,0,0,1,,3,S,0,S,14,0.018222,0.771956,0.014066
15,34,4,5,0,0,1,,1,S,0,S,21,0.029118,0.769942,0.022419
15,35,2,4,0,0,1,,2,S,0,S,16,0.031387,0.759476,0.023837
15,36,3,9,0,0,1,,6,S,0,S,13,0.018824,0.762625,0.014356
15,37,9,7,0,0,1,,2,S,0,S,30,0.758777,0.042845,0.03251
15,38,2,1,0,0,1,,1,S,0,S,16,0.773229,0.022183,0.017152
15,39,7,9,0,0,1,,2,S,0,S,31,0.02178,0.784392,0.017084
15,40,5,7,0,0,1,,2,S,0,S,17,0.0067,0.796752,0.005338
15,41,9,3,0,0,1,,6,S,0,S,14,0.779902,0.011163,0.008706
15,42,3,7,0,0,1,,4,S,0,S,14,0.01267,0.775958,0.009831
15,43,9,1,0,0,1,,8,L,0,S,13,0.796654,0,0
15,44,3,5,0,0,1,,2,S,0,S,15,0.034584,0.752551,0.026026
15,45,7,8,0,0,1,,1,S,0,S,18,0.042321,0.75233,0.03184
15,46,2,5,0,0,1,,3,S,0,S,15,0.021206,0.770439,0.016338
15,47,1,4,0,0,1,,3,S,0,S,14,0.016416,0.768326,0.012613
15,48,3,1,0,0,1,,2,S,0,S,16,0.791899,0.007111,0.005631
15,49,8,1,0,0,1,,7,L,0,S,12,0.761104,0.014035,0.010682
15,50,5,6,0,0,1,,1,S,0,S,24,0.042157,0.762009,0.032124
15,51,8,9,0,0,1,,1,S,0,S,25,0.017573,0.790962,0.0139
15,52,6,1,0,0,1,,5,S,0,S,13,0.798695,0,0
15,53,6,3,0,0,1,,3,S,0,S,14,0.782923,0.009167,0.007177
15,54,8,2,0,0,1,,6,S,0,S,13,0.774327,0.010277,0.007958
15,55,2,9,0,0,1,,7,L,0,S,13,0.012427,0.77161,0.009589
15,56,7,4,0,0,1,,3,S,0,S,14,0.750521,0.031016,0.023278
15,57,1,7,0,0,1,,6,S,0,S,13,0,0.790223,0
15,58,8,4,0,0,1,,4,S,0,S,15,0.799227,0,0
15,59,7,2,0,0,1,,5,S,0,S,13,0.775038,0.008544,0.006622
15,60,9,4,0,0,1,,5,S,0,S,16,0.798284,0.002031,0.001622
15,61,1,2,0,0,1,,1,S,0,S,17,0.005424,0.79456,0.00431
15,62,6,9,0,0,1,,3,S,0,S,18,0.031448,0.768921,0.024181
15,63,6,5,0,0,1,,1,S,0,S,17,0.789715,0.012406,0.009797
15,64,4,3,0,0,1,,1,S,0,S,16,0.764075,0.027328,0.02088
15,65,3,2,0,0,1,,1,S,0,S,21,0.79586,0.009759,0.007767
15,66,8,5,0,0,1,,3,S,0,S,15,0.756975,0.032469,0.024578
15,67,3,4,0,0,1,,1,S,0,S,17,0.015543,0.781868,0.012152
15,68,1,9,0,0,1,,8,L,0,S,12,0.012509,0.761075,0.00952
15,69,2,3,0,0,1,,1,S,0,S,22,0.045068,0.753117,0.033942
15,70,7,5,0,0,1,,2,S,0,S,15,0.76114,0.027865,0.021209
15,71,5,9,0,0,1,,4,S,0,S,15,0.016272,0.779609,0.012686
15,72,3,8,0,0,1,,5,S,0,S,13,0,0.787965,0
16,1,3,2,0,0,1,,1,S,0,S,17,0.791354,0.012525,0.009912
16,2,6,3,0,0,1,,3,S,0,S,18,0.793697,0.012716,0.010093
16,3,4,6,0,0,1,,2,S,0,S,16,0.032742,0.759174,0.024857
16,4,4,3,0,0,1,,1,S,0,S,24,0.769578,0.033205,0.025554
16,5,1,9,0,0,1,,8,L,0,S,13,0,0.800368,0
16,6,3,7,0,0,1,,4,S,0,S,16,0.008048,0.790431,0.006361
16,7,8,2,0,0,1,,6,S,0,S,14,0.793371,0.001235,0.00098
16,8,8,4,0,0,1,,4,S,0,S,15,0.759364,0.031298,0.023767
16,9,5,2,0,0,1,,3,S,0,S,16,0.77144,0.024354,0.018788
16,10,1,5,0,0,1,,4,S,0,S,15,0.025141,0.766239,0.019264
16,11,9,4,0,0,1,,5,S,0,S,15,0.781097,0.013931,0.010882
16,12,6,5,0,0,1,,1,S,0,S,21,0.783004,0.02374,0.018588
16,13,3,9,0,0,1,,6,S,0,S,14,0.00354,0.790894,0.0028
16,14,8,9,0,0,1,,1,S,0,S,17,0.022808,0.77586,0.017696
16,15,7,8,0,0,1,,1,S,0,S,17,0.005832,0.795008,0.004636
16,16,5,8,0,0,1,,3,S,0,S,15,0,0.799315,0
16,17,6,7,0,0,1,,1,S,0,S,17,0.021515,0.776199,0.0167
16,18,3,8,0,0,1,,5,S,0,S,14,0.020313,0.768945,0.015619
16,19,9,8,0,0,0,,1,S,0,S,20,0.043992,0.753007,0.033126
16,20,4,8,0,0,1,,4,S,0,S,14,0.014999,0.772988,0.011594
16,21,5,6,0,0,1,,1,S,0,S,18,0.009131,0.794878,0.007258
16,22,6,1,0,0,1,,5,S,0,S,14,0.785619,0.006467,0.005081
16,23,7,5,0,0,1,,2,S,0,S,17,0.785988,0.013708,0.010774
16,24,2,9,0,0,1,,7,L,0,S,13,0.023835,0.75742,0.018053
16,25,9,6,0,0,1,,3,S,0,S,17,0.777657,0.021171,0.016464
16,26,9,1,0,0,1,,8,L,0,S,13,0.797634,0,0
16,27,1,4,0,0,1,,3,S,0,S,15,0.027442,0.763437,0.020951
16,28,3,4,0,0,1,,1,S,0,S,23,0.022905,0.7851,0.017983
16,29,5,4,0,0,1,,1,S,0,S,25,0.755759,0.045015,0.03402
16,30,6,2,0,0,1,,4,S,0,S,15,0.753457,0.037243,0.028061
16,31,8,1,0,0,1,,7,L,0,S,13,0.789207,0,0
16,32,7,3,0,0,1,,4,S,0,S,16,0.796093,0.004065,0.003236
16,33,3,1,0,0,1,,2,S,0,S,14,0.754025,0.030503,0.023
16,34,1,8,0,0,1,,7,L,0,S,13,0.000207,0.786755,0.000163
16,35,1,3,0,0,1,,2,S,0,S,16,0.027763,0.767097,0.021297
16,36,5,7,0,0,1,,2,S,0,S,16,0.032415,0.757023,0.024539
16,37,5,1,0,0,1,,4,S,0,S,14,0.766784,0.019188,0.014713
16,38,5,3,0,0,1,,2,S,0,S,19,0.773962,0.027694,0.021434
16,39,8,7,0,0,1,,1,S,0,S,21,0.769903,0.029372,0.022613
16,40,2,7,0,0,1,,5,S,0,S,15,0.015195,0.77734,0.011812
16,41,8,5,0,0,1,,3,S,0,S,15,0.755668,0.034025,0.025711
16,42,9,2,0,0,1,,7,L,0,S,13,0.752166,0.027232,0.020483
16,43,9,5,0,0,1,,4,S,0,S,15,0.777936,0.016259,0.012648
16,44,6,9,0,0,1,,3,S,0,S,14,0.026711,0.761007,0.020328
16,45,4,1,0,0,1,,3,S,0,S,15,0.788678,0.005293,0.004175
16,46,4,9,0,0,1,,5,S,0,S,14,0,0.793785,0
16,47,4,7,0,0,1,,3,S,0,S,16,0,0.798732,0
16,48,5,9,0,0,1,,4,S,0,S,14,0.015928,0.772805,0.012309
16,49,3,5,0,0,1,,2,S,0,S,22,0.03607,0.76801,0.027702
16,50,6,8,0,0,1,,2,S,0,S,15,0.011664,0.785262,0.009159
16,51,2,4,0,0,1,,2,S,0,S,19,0.014746,0.791698,0.011674
16,52,8,6,0,0,1,,2,S,0,S,18,0.779366,0.021981,0.017131
16,53,2,5,0,0,1,,3,S,0,S,18,0.04409,0.752972,0.033198
16,54,1,6,0,0,1,,5,S,0,S,14,0.012718,0.777091,0.009883
16,55,7,2,0,0,1,,5,S,0,S,14,0.757548,0.027181,0.020591
16,56,1,7,0,0,1,,6,S,0,S,14,0,0.794596,0
16,57,1,2,0,0,1,,1,S,0,S,19,0.037356,0.761149,0.028434
16,58,7,9,0,0,1,,2,S,0,S,16,0.007367,0.790671,0.005825
16,59,2,8,0,0,1,,6,S,0,S,14,0.002336,0.791933,0.00185
16,60,2,1,0,0,1,,1,S,0,S,15,0.773862,0.018765,0.014522
16,61,8,3,0,0,1,,5,S,0,S,15,0.796826,0.002383,0.001899
16,62,3,6,0,0,1,,3,S,0,S,17,0.009959,0.794026,0.007908
16,63,7,4,0,0,1,,3,S,0,S,17,0.7913,0.009649,0.007635
16,64,7,1,0,0,1,,6,S,0,S,13,0.764144,0.015265,0.011665
16,65,4,2,0,0,1,,2,S,0,S,17,0.759518,0.03515,0.026697
16,66,6,4,0,0,1,,2,S,0,S,20,0.754112,0.046214,0.03485
16,67,2,6,0,0,1,,4,S,0,S,16,0.007382,0.794215,0.005863
16,68,7,6,0,0,1,,1,S,0,S,22,0.751256,0.045795,0.034404
16,69,4,5,0,0,1,,1,S,0,S,20,0.04307,0.754223,0.032485
16,70,9,7,0,0,1,,2,S,0,S,19,0.774068,0.023955,0.018543
16,71,9,3,0,0,1,,6,S,0,S,14,0.762504,0.024702,0.018836
16,72,2,3,0,0,1,,1,S,0,S,24,0.018007,0.791411,0.014251
17,1,6,7,0,0,1,,1,S,0,S,21,0.030051,0.770449,0.023153
17,2,4,9,0,0,1,,5,S,0,S,16,0.008819,0.792169,0.006986
17,3,9,2,0,0,1,,7,L,0,S,14,0.793472,0,0
17,4,7,3,0,0,1,,4,S,0,S,15,0.75812,0.035141,0.026641
17,5,9,5,0,0,1,,4,S,0,S,15,0.794779,0.001275,0.001014
17,6,6,9,0,0,1,,3,S,0,S,21,0.013597,0.793045,0.010783
17,7,1,3,0,0,1,,2,S,0,S,14,0.023164,0.763451,0.017685
17,8,3,9,0,0,1,,6,S,0,S,14,0.029077,0.757679,0.022031
17,9,3,7,0,0,1,,4,S,0,S,14,0.032068,0.751956,0.024113
17,10,1,8,0,0,1,,7,L,0,S,12,0.006214,0.76853,0.004775
17,11,3,1,0,0,1,,2,S,0,S,14,0.781934,0.009308,0.007278
17,12,8,6,0,0,1,,2,S,0,S,18,0.787049,0.013375,0.010526
17,13,8,3,0,0,1,,5,S,0,S,14,0.758781,0.027935,0.021196
17,14,3,8,0,0,1,,5,S,0,S,14,0.006579,0.784906,0.005164
17,15,3,4,0,0,1,,1,S,0,S,19,0.027058,0.772493,0.020902
17,16,9,6,0,0,1,,3,S,0,S,16,0.772982,0.019635,0.015177
17,17,7,4,0,0,1,,3,S,0,S,17,0.777229,0.022599,0.017565
17,18,9,1,0,0,1,,8,L,0,S,12,0.778608,0,0
17,19,7,6,0,0,1,,1,S,0,S,25,0.772638,0.03206,0.024771
17,20,2,4,0,0,1,,2,S,0,S,16,0.019467,0.77657,0.015118
17,21,6,3,0,0,1,,3,S,0,S,15,0.786129,0.010325,0.008117
17,22,9,8,0,0,1,,1,S,0,S,26,0.752045,0.044938,0.033795
17,23,4,2,0,0,1,,2,S,0,S,17,0.773026,0.023392,0.018082
17,24,5,8,0,0,1,,3,S,0,S,16,0.001053,0.798916,0.000841
17,25,6,2,0,0,1,,4,S,0,S,15,0.791528,0.003269,0.002587
17,26,3,6,0,0,1,,3,S,0,S,16,0.014723,0.781748,0.01151
17,27,5,2,0,0,1,,3,S,0,S,16,0.771799,0.021449,0.016554
17,28,3,2,0,0,1,,1,S,0,S,22,0.758414,0.040101,0.030413
17,29,8,9,0,0,1,,1,S,0,S,32,0.035287,0.768884,0.027132
17,30,5,1,0,0,1,,4,S,0,S,13,0.781495,0.004026,0.003146
17,31,2,7,0,0,1,,5,S,0,S,14,0,0.801654,0
17,32,2,9,0,0,1,,7,L,0,S,13,0.028018,0.752911,0.021095
17,33,5,6,0,0,1,,1,S,0,S,21,0.044619,0.750796,0.0335
17,34,2,8,0,0,1,,6,S,0,S,13,0.011496,0.772739,0.008884
17,35,4,1,0,0,1,,3,S,0,S,13,0.767599,0.015163,0.011639
17,36,2,3,0,0,1,,1,S,0,S,18,0.011698,0.794759,0.009297
17,37,8,2,0,0,1,,6,S,0,S,14,0.763115,0.021787,0.016626
17,38,1,4,0,0,1,,3,S,0,S,14,0,0.790703,0
17,39,2,6,0,0,1,,4,S,0,S,14,0.030896,0.752916,0.023262
17,40,4,3,0,0,1,,1,S,0,S,17,0.752614,0.042594,0.032057
17,41,1,6,0,0,1,,5,S,0,S,13,0.004889,0.777739,0.003802
17,42,6,1,0,0,1,,5,S,0,S,12,0.752805,0.018959,0.014273
17,43,6,8,0,0,1,,2,S,0,S,18,0.00952,0.792472,0.007545
17,44,7,2,0,0,1,,5,S,0,S,15,0.766766,0.025447,0.019512
17,45,4,5,0,0,0,,1,S,0,S,24,0.766383,0.035833,0.027461
17,46,1,2,0,0,1,,1,S,0,S,15,0,0.795791,0
17,47,6,5,0,0,1,,1,S,0,S,16,0.761926,0.030436,0.02319
17,48,2,1,0,0,1,,1,S,0,S,15,0.778153,0.016475,0.01282
17,49,1,9,0,0,1,,8,L,0,S,12,0.016834,0.756002,0.012726
17,50,8,7,0,0,1,,1,S,0,S,30,0.755785,0.043974,0.033235
17,51,8,5,0,0,1,,3,S,0,S,16,0.798308,0.002273,0.001815
17,52,9,7,0,0,1,,2,S,0,S,19,0.785773,0.015389,0.012093
17,53,5,3,0,0,1,,2,S,0,S,16,0.759275,0.034294,0.026039
17,54,7,5,0,0,1,,2,S,0,S,17,0.75897,0.038225,0.029011
17,55,7,8,0,0,1,,1,S,0,S,16,0.028867,0.767231,0.022148
17,56,4,7,0,0,1,,3,S,0,S,16,0.013263,0.784671,0.010407
17,57,9,3,0,0,1,,6,S,0,S,14,0.791234,0.00196,0.001551
17,58,2,5,0,0,1,,3,S,0,S,16,0.007357,0.793498,0.005837
17,59,3,5,0,0,1,,2,S,0,S,18,0.034859,0.762684,0.026586
17,60,5,9,0,0,1,,4,S,0,S,17,0.008975,0.79365,0.007123
17,61,4,8,0,0,1,,4,S,0,S,15,0.010968,0.783711,0.008596
17,62,1,5,0,0,1,,4,S,0,S,14,0,0.799603,0
17,63,1,7,0,0,1,,6,S,0,S,12,0.018365,0.752309,0.013816
17,64,7,1,0,0,1,,6,S,0,S,13,0.800599,0,0
17,65,8,4,0,0,1,,4,S,0,S,15,0.757738,0.029902,0.022658
17,66,9,4,0,0,1,,5,S,0,S,15,0.800598,0,0
17,67,5,7,0,0,1,,2,S,0,S,17,0.014698,0.784519,0.011531
17,68,7,9,0,0,1,,2,S,0,S,18,0.01791,0.788302,0.014118
17,69,8,1,0,0,1,,7,L,0,S,12,0.763662,0.011197,0.008551
17,70,5,4,0,0,1,,1,S,0,S,19,0.788826,0.013049,0.010294
17,71,4,6,0,0,1,,2,S,0,S,18,0.042727,0.750595,0.032071
17,72,6,4,0,0,1,,2,S,0,S,16,0.773763,0.02001,0.015483
18,1,8,5,0,0,1,,3,S,0,S,18,0.78061,0.020355,0.015889
18,2,2,5,0,0,1,,3,S,0,S,16,0.037739,0.752518,0.028399
18,3,5,9,0,0,1,,4,S,0,S,15,0.022232,0.773432,0.017195
18,4,8,7,0,0,1,,1,S,0,S,25,0.786815,0.021116,0.016615
18,5,4,2,0,0,1,,2,S,0,S,16,0.795093,0.004477,0.00356
18,6,3,9,0,0,1,,6,S,0,S,14,0.019006,0.77114,0.014657
18,7,6,2,0,0,1,,4,S,0,S,14,0.752585,0.032635,0.024561
18,8,1,7,0,0,1,,6,S,0,S,13,0.01536,0.769294,0.011816
18,9,3,4,0,0,1,,1,S,0,S,19,0.010366,0.791613,0.008206
18,10,2,4,0,0,1,,2,S,0,S,22,0.01215,0.792343,0.009627
18,11,2,9,0,0,1,,7,L,0,S,15,0.00193,0.798474,0.001541
18,12,9,3,0,0,1,,6,S,0,S,15,0.786073,0.008221,0.006462
18,13,8,1,0,0,1,,7,L,0,S,13,0.763058,0.019075,0.014555
18,14,3,1,0,0,1,,2,S,0,S,17,0.782726,0.016473,0.012894
18,15,6,7,0,0,1,,1,S,0,S,19,0.011745,0.79686,0.009359
18,16,2,6,0,0,1,,4,S,0,S,16,0.027878,0.765514,0.021341
18,17,6,1,0,0,1,,5,S,0,S,14,0.785205,0.008536,0.006702
18,18,4,8,0,0,1,,4,S,0,S,17,0.015078,0.788265,0.011885
18,19,4,5,0,0,1,,1,S,0,S,19,0.019843,0.782309,0.015523
18,20,3,2,0,0,1,,1,S,0,S,19,0.778239,0.02167,0.016864
18,21,9,4,0,0,1,,5,S,0,S,15,0.772934,0.01714,0.013248
18,22,6,9,0,0,1,,3,S,0,S,17,0.038919,0.76102,0.029618
18,23,5,2,0,0,1,,3,S,0,S,16,0.765485,0.027981,0.021419
18,24,6,8,0,0,1,,2,S,0,S,20,0.025251,0.782887,0.019769
18,25,4,7,0,0,1,,3,S,0,S,16,0.031094,0.763505,0.023741
18,26,9,5,0,0,1,,4,S,0,S,17,0.770663,0.024872,0.019168
18,27,7,9,0,0,1,,2,S,0,S,19,0.04322,0.756243,0.032685
18,28,8,4,0,0,1,,4,S,0,S,15,0.756354,0.031536,0.023852
18,29,9,6,0,0,1,,3,S,0,S,17,0.755339,0.037126,0.028043
18,30,1,2,0,0,1,,1,S,0,S,18,0.036976,0.759415,0.02808
18,31,7,8,0,0,1,,1,S,0,S,32,0.026206,0.781794,0.020487
18,32,9,8,0,0,1,,1,S,0,S,19,0.776691,0.02578,0.020023
18,33,8,9,0,0,1,,1,S,0,S,23,0.038416,0.766815,0.029458
18,34,4,6,0,0,1,,2,S,0,S,18,0.036207,0.760423,0.027532
18,35,8,6,0,0,1,,2,S,0,S,18,0.760107,0.036821,0.027988
18,36,3,6,0,0,1,,3,S,0,S,15,0.0334,0.754099,0.025187
18,37,7,5,0,0,1,,2,S,0,S,20,0.787353,0.016175,0.012735
18,38,5,3,0,0,1,,2,S,0,S,22,0.754464,0.044735,0.033751
18,39,1,4,0,0,1,,3,S,0,S,15,0.017915,0.774407,0.013873
18,40,1,3,0,0,1,,2,S,0,S,15,0.02505,0.766826,0.019209
18,41,3,5,0,0,1,,2,S,0,S,16,0.005095,0.793806,0.004044
18,42,7,1,0,0,1,,6,S,0,S,14,0.799706,0,0
18,43,2,7,0,0,1,,5,S,0,S,15,0.018327,0.775573,0.014214
18,44,7,4,0,0,1,,3,S,0,S,16,0.771757,0.021638,0.016699
18,45,5,8,0,0,1,,3,S,0,S,16,0.021797,0.777397,0.016945
18,46,9,2,0,0,1,,7,L,0,S,14,0.799193,0,0
18,47,6,4,0,0,1,,2,S,0,S,17,0.777581,0.02165,0.016835
18,48,5,6,0,0,1,,1,S,0,S,17,0.028537,0.768494,0.021931
18,49,5,1,0,0,1,,4,S,0,S,15,0.767876,0.024261,0.018629
18,50,6,3,0,0,1,,3,S,0,S,16,0.750876,0.041685,0.0313
18,51,2,3,0,0,1,,1,S,0,S,24,0.01837,0.787195,0.01446
18,52,8,2,0,0,1,,6,S,0,S,14,0.790771,0.001909,0.00151
18,53,9,1,0,0,1,,8,L,0,S,13,0.770266,0.012216,0.009409
18,54,3,7,0,0,1,,4,S,0,S,14,0.032856,0.751192,0.024681
18,55,2,1,0,0,1,,1,S,0,S,16,0.782433,0.015008,0.011742
18,56,7,2,0,0,1,,5,S,0,S,14,0.771422,0.015991,0.012336
18,57,8,3,0,0,1,,5,S,0,S,15,0.771035,0.02146,0.016546
18,58,1,9,0,0,1,,8,L,0,S,13,0.006499,0.782692,0.005087
18,59,1,5,0,0,1,,4,S,0,S,14,0.005142,0.78748,0.004049
18,60,4,3,0,0,1,,1,S,0,S,19,0.753548,0.042873,0.032307
18,61,3,8,0,0,1,,5,S,0,S,15,0.007055,0.791081,0.005581
18,62,7,3,0,0,1,,4,S,0,S,16,0.78905,0.009413,0.007427
18,63,4,9,0,0,1,,5,S,0,S,16,0.007132,0.795955,0.005676
18,64,5,4,0,0,1,,1,S,0,S,26,0.768669,0.032993,0.025361
18,65,1,8,0,0,1,,7,L,0,S,13,0.021522,0.762602,0.016413
18,66,2,8,0,0,1,,6,S,0,S,15,0.031012,0.7608,0.023594
18,67,6,5,0,0,1,,1,S,0,S,26,0.78908,0.019615,0.015478
18,68,1,6,0,0,1,,5,S,0,S,14,0.001033,0.793105,0.000819
18,69,9,7,0,0,1,,2,S,0,S,21,0.790672,0.01482,0.011718
18,70,5,7,0,0,1,,2,S,0,S,16,0.005962,0.795935,0.004746
18,71,4,1,0,0,1,,3,S,0,S,15,0.789736,0.006961,0.005497
18,72,7,6,0,0,1,,1,S,0,S,21,0.795965,0.010181,0.008103
19,1,8,6,0,0,1,,2,S,0,S,22,0.759805,0.044169,0.03356
19,2,3,9,0,0,1,,6,S,0,S,14,0.02766,0.757633,0.020956
19,3,4,6,0,0,1,,2,S,0,S,15,0.001162,0.800359,0.00093
19,4,2,5,0,0,1,,3,S,0,S,15,0,0.798024,0
19,5,6,1,0,0,1,,5,S,0,S,14,0.792318,0.001849,0.001465
19,6,4,3,0,0,1,,1,S,0,S,19,0.753146,0.044324,0.033382
19,7,5,4,0,0,1,,1,S,0,S,16,0.765953,0.02739,0.020979
19,8,9,3,0,0,1,,6,S,0,S,14,0.799268,0,0
19,9,2,8,0,0,1,,6,S,0,S,14,0.008112,0.782831,0.00635
19,10,1,6,0,0,1,,5,S,0,S,13,0.003151,0.784892,0.002473
19,11,9,5,0,0,1,,4,S,0,S,17,0.785609,0.015983,0.012556
19,12,9,4,0,0,1,,5,S,0,S,15,0.783306,0.009908,0.007761
19,13,6,4,0,0,1,,2,S,0,S,17,0.78258,0.015611,0.012217
19,14,3,2,0,0,1,,1,S,0,S,20,0.779298,0.020117,0.015678
19,15,9,2,0,0,1,,7,L,0,S,14,0.789796,0.001626,0.001284
19,16,6,8,0,0,1,,2,S,0,S,19,0.041984,0.757627,0.031808
19,17,3,5,0,0,1,,2,S,0,S,16,0.014056,0.783471,0.011013
19,18,9,7,0,0,1,,2,S,0,S,20,0.795342,0.009852,0.007836
19,19,7,9,0,0,1,,2,S,0,S,23,0.022478,0.784108,0.017625
19,20,7,6,0,0,1,,1,S,0,S,24,0.791581,0.017937,0.014199
19,21,5,8,0,0,1,,3,S,0,S,21,0.048073,0.753344,0.036215
19,22,9,6,0,0,1,,3,S,0,S,19,0.7573,0.04277,0.03239
19,23,1,4,0,0,1,,3,S,0,S,15,0,0.799378,0
19,24,8,7,0,0,1,,1,S,0,S,22,0.753815,0.045253,0.034113
19,25,5,6,0,0,1,,1,S,0,S,21,0.032692,0.773795,0.025297
19,26,3,8,0,0,1,,5,S,0,S,15,0.010146,0.785536,0.00797
19,27,4,8,0,0,1,,4,S,0,S,15,0.003486,0.796395,0.002776
19,28,6,7,0,0,1,,1,S,0,S,19,0.041555,0.754819,0.031366
19,29,1,3,0,0,1,,2,S,0,S,16,0.027232,0.766108,0.020863
19,30,7,8,0,0,0,,1,S,0,S,23,0.772008,0.032455,0.025056
19,31,7,4,0,0,1,,3,S,0,S,15,0.754938,0.031528,0.023802
19,32,9,1,0,0,1,,8,L,0,S,13,0.782012,0.004632,0.003622
19,33,7,2,0,0,1,,5,S,0,S,14,0.770892,0.015826,0.0122
19,34,5,9,0,0,1,,4,S,0,S,19,0.013437,0.794284,0.010673
19,35,3,1,0,0,1,,2,S,0,S,16,0.771798,0.022497,0.017363
19,36,2,4,0,0,1,,2,S,0,S,17,0.004541,0.793602,0.003604
19,37,6,9,0,0,1,,3,S,0,S,18,0.011154,0.794503,0.008862
19,38,7,1,0,0,1,,6,S,0,S,13,0.767828,0.015109,0.011601
19,39,2,1,0,0,1,,1,S,0,S,19,0.783737,0.017437,0.013666
19,40,4,2,0,0,1,,2,S,0,S,20,0.754122,0.042197,0.031822
19,41,4,7,0,0,1,,3,S,0,S,15,0.004709,0.791942,0.003729
19,42,4,1,0,0,1,,3,S,0,S,16,0.767183,0.028047,0.021518
19,43,8,1,0,0,1,,7,L,0,S,13,0.772662,0.012535,0.009686
19,44,7,3,0,0,1,,4,S,0,S,14,0.781279,0.00977,0.007633
19,45,2,3,0,0,1,,1,S,0,S,22,0.042776,0.754441,0.032272
19,46,1,7,0,0,1,,6,S,0,S,13,0.005429,0.778269,0.004226
19,47,6,5,0,0,1,,1,S,0,S,25,0.764679,0.039005,0.029826
19,48,8,4,0,0,1,,4,S,0,S,15,0.763216,0.026387,0.020139
19,49,5,1,0,0,1,,4,S,0,S,13,0.751786,0.028545,0.02146
19,50,8,2,0,0,1,,6,S,0,S,14,0.776942,0.012349,0.009595
19,51,6,2,0,0,1,,4,S,0,S,15,0.780698,0.012541,0.009791
19,52,1,8,0,0,1,,7,L,0,S,13,0.004477,0.782214,0.003502
19,53,1,2,0,0,1,,1,S,0,S,16,0.020696,0.771796,0.015973
19,54,4,9,0,0,1,,5,S,0,S,14,0.021922,0.767462,0.016824
19,55,8,3,0,0,1,,5,S,0,S,14,0.787071,0.006447,0.005074
19,56,6,3,0,0,1,,3,S,0,S,15,0.793265,0.004741,0.003761
19,57,1,9,0,0,1,,8,L,0,S,13,0,0.794386,0
19,58,2,6,0,0,1,,4,S,0,S,14,0.006287,0.786188,0.004942
19,59,7,5,0,0,1,,2,S,0,S,18,0.773351,0.027027,0.020901
19,60,3,4,0,0,1,,1,S,0,S,20,0.020355,0.778603,0.015849
19,61,5,2,0,0,1,,3,S,0,S,15,0.799023,0,0
19,62,2,9,0,0,1,,7,L,0,S,14,0,0.799808,0
19,63,8,5,0,0,1,,3,S,0,S,18,0.788965,0.015943,0.012579
19,64,2,7,0,0,1,,5,S,0,S,14,0.009263,0.778487,0.007211
19,65,9,8,0,0,1,,1,S,0,S,19,0.763615,0.036849,0.028139
19,66,3,7,0,0,1,,4,S,0,S,15,0.011408,0.78096,0.008909
19,67,8,9,0,0,1,,1,S,0,S,24,0.030514,0.77624,0.023686
19,68,3,6,0,0,1,,3,S,0,S,15,0.007708,0.789684,0.006087
19,69,4,5,0,0,1,,1,S,0,S,16,0.005114,0.797247,0.004077
19,70,1,5,0,0,1,,4,S,0,S,13,0.02278,0.757408,0.017253
19,71,5,3,0,0,1,,2,S,0,S,14,0.759395,0.027951,0.021226
19,72,5,7,0,0,1,,2,S,0,S,21,0.044454,0.754485,0.03354
20,1,9,1,0,0,1,,8,L,0,S,13,0.75692,0.025456,0.019268
20,2,8,3,0,0,1,,5,S,0,S,15,0.760817,0.028405,0.021611
20,3,4,8,0,0,1,,4,S,0,S,17,0.019743,0.782842,0.015456
20,4,2,3,0,0,1,,1,S,0,S,17,0.017118,0.782075,0.013387
20,5,8,2,0,0,1,,6,S,0,S,13,0.768108,0.014408,0.011067
20,6,3,1,0,0,1,,2,S,0,S,16,0.788459,0.01049,0.008271
20,7,1,8,0,0,1,,7,L,0,S,13,0,0.80166,0
20,8,3,9,0,0,1,,6,S,0,S,13,0.007318,0.775885,0.005678
20,9,2,4,0,0,1,,2,S,0,S,16,0.028168,0.765464,0.021562
20,10,3,5,0,0,1,,2,S,0,S,18,0.013175,0.789647,0.010403
20,11,4,2,0,0,1,,2,S,0,S,14,0.774546,0.015058,0.011663
20,12,6,7,0,0,1,,1,S,0,S,18,0.035782,0.760413,0.027209
20,13,6,8,0,0,1,,2,S,0,S,17,0.042907,0.75458,0.032376
20,14,8,6,0,0,1,,2,S,0,S,21,0.785622,0.01913,0.015029
20,15,5,8,0,0,1,,3,S,0,S,16,0.038987,0.756344,0.029488
20,16,7,3,0,0,1,,4,S,0,S,14,0.795306,0,0
20,17,3,4,0,0,1,,1,S,0,S,23,0.04118,0.757084,0.031177
20,18,3,7,0,0,1,,4,S,0,S,16,0.008241,0.787719,0.006492
20,19,2,9,0,0,1,,7,L,0,S,12,0.01265,0.761513,0.009633
20,20,2,7,0,0,1,,5,S,0,S,14,0.01261,0.775318,0.009777
20,21,9,3,0,0,1,,6,S,0,S,15,0.768533,0.024115,0.018533
20,22,6,1,0,0,1,,5,S,0,S,14,0.764552,0.024633,0.018833
20,23,1,5,0,0,1,,4,S,0,S,13,0.017674,0.764859,0.013518
20,24,9,7,0,0,1,,2,S,0,S,24,0.789237,0.017028,0.013439
20,25,9,5,0,0,1,,4,S,0,S,17,0.763975,0.034511,0.026365
20,26,1,7,0,0,1,,6,S,0,S,13,0,0.789275,0
20,27,2,5,0,0,1,,3,S,0,S,15,0.013064,0.782944,0.010228
20,28,2,1,0,0,1,,1,S,0,S,20,0.7578,0.041873,0.031732
20,29,7,8,0,0,0,,1,S,0,S,16,0.767081,0.028978,0.022229
20,30,8,4,0,0,1,,4,S,0,S,16,0.788302,0.010009,0.00789
20,31,6,4,0,0,1,,2,S,0,S,18,0.773268,0.027157,0.021
20,32,1,2,0,0,1,,1,S,0,S,18,0.026538,0.771911,0.020485
20,33,8,1,0,0,1,,7,L,0,S,13,0.75163,0.02793,0.020993
20,34,9,2,0,0,1,,7,L,0,S,13,0.773079,0.01213,0.009377
20,35,4,1,0,0,1,,3,S,0,S,14,0.750528,0.034631,0.025992
20,36,6,5,0,0,1,,1,S,0,S,26,0.76968,0.036124,0.027804
20,37,3,6,0,0,1,,3,S,0,S,16,0.024613,0.769332,0.018936
20,38,4,9,0,0,1,,5,S,0,S,14,0,0.800977,0
20,39,7,6,0,0,1,,1,S,0,S,15,0.751213,0.036342,0.0273
20,40,6,3,0,0,1,,3,S,0,S,17,0.769364,0.028398,0.021849
20,41,1,6,0,0,1,,5,S,0,S,13,0.001842,0.784894,0.001446
20,42,5,3,0,0,1,,2,S,0,S,18,0.751687,0.04381,0.032931
20,43,9,4,0,0,1,,5,S,0,S,16,0.796671,0.005114,0.004075
20,44,1,3,0,0,1,,2,S,0,S,14,0.017947,0.769158,0.013804
20,45,7,1,0,0,1,,6,S,0,S,13,0.8035,0,0
20,46,8,7,0,0,1,,1,S,0,S,25,0.777036,0.025078,0.019487
20,47,5,1,0,0,1,,4,S,0,S,15,0.793246,0.006041,0.004792
20,48,2,8,0,0,1,,6,S,0,S,14,0.003512,0.791836,0.002781
20,49,3,8,0,0,1,,5,S,0,S,15,0.02925,0.762148,0.022293
20,50,8,9,0,0,1,,1,S,0,S,15,0.002753,0.793622,0.002185
20,51,9,8,0,0,1,,1,S,0,S,40,0.775974,0.033117,0.025698
20,52,5,2,0,0,1,,3,S,0,S,14,0.767171,0.021304,0.016344
20,53,5,6,0,0,1,,1,S,0,S,18,0.01594,0.787946,0.01256
20,54,7,5,0,0,1,,2,S,0,S,15,0.796838,0.001739,0.001386
20,55,9,6,0,0,1,,3,S,0,S,20,0.763311,0.038141,0.029114
20,56,4,7,0,0,1,,3,S,0,S,18,0.008237,0.794145,0.006541
20,57,4,5,0,0,1,,1,S,0,S,24,0.041996,0.760682,0.031946
20,58,4,3,0,0,1,,1,S,0,S,18,0.782131,0.019092,0.014932
20,59,3,2,0,0,1,,1,S,0,S,15,0.773616,0.018063,0.013974
20,60,6,9,0,0,1,,3,S,0,S,14,0.000392,0.793861,0.000311
20,61,5,4,0,0,1,,1,S,0,S,20,0.77281,0.029509,0.022805
20,62,7,9,0,0,1,,2,S,0,S,18,0.007958,0.794593,0.006324
20,63,1,4,0,0,1,,3,S,0,S,14,0.007427,0.783103,0.005816
20,64,2,6,0,0,1,,4,S,0,S,14,0.021206,0.766507,0.016255
20,65,8,5,0,0,1,,3,S,0,S,17,0.751816,0.042244,0.03176
20,66,5,7,0,0,1,,2,S,0,S,17,0.02392,0.773168,0.018494
20,67,1,9,0,0,1,,8,L,0,S,12,0,0.800354,0
20,68,5,9,0,0,1,,4,S,0,S,13,0.024212,0.755951,0.018303
20,69,4,6,0,0,1,,2,S,0,S,18,0.042325,0.753751,0.031902
20,70,7,4,0,0,1,,3,S,0,S,14,0.783386,0.007248,0.005678
20,71,6,2,0,0,1,,4,S,0,S,14,0.786446,0.006647,0.005227
20,72,7,2,0,0,1,,5,S,0,S,12,0.758803,0.014722,0.011171
21,1,3,1,0,0,1,,2,S,0,S,17,0.758845,0.035271,0.026765
21,2,1,3,0,0,1,,2,S,0,S,15,0.000628,0.798085,0.000501
21,3,7,1,0,0,1,,6,S,0,S,14,0.792115,0.001328,0.001052
21,4,3,9,0,0,1,,6,S,0,S,14,0.023105,0.762921,0.017627
21,5,2,5,0,0,1,,3,S,0,S,16,0.00426,0.794034,0.003383
21,6,7,3,0,0,1,,4,S,0,S,16,0.755225,0.036619,0.027656
21,7,1,2,0,0,1,,1,S,0,S,27,0.030285,0.773349,0.023421
21,8,9,7,0,0,1,,2,S,0,S,16,0.771015,0.023239,0.017917
21,9,1,8,0,0,1,,7,L,0,S,13,0,0.792302,0
21,10,1,6,0,0,1,,5,S,0,S,14,0.006504,0.787245,0.00512
21,11,8,1,0,0,1,,7,L,0,S,14,0.796389,0,0
21,12,3,7,0,0,1,,4,S,0,S,15,0.016768,0.772986,0.012961
21,13,8,3,0,0,1,,5,S,0,S,16,0.766605,0.027457,0.021049
21,14,5,7,0,0,1,,2,S,0,S,18,0.03599,0.761059,0.027391
21,15,4,8,0,0,1,,4,S,0,S,15,0.008981,0.78644,0.007063
21,16,3,2,0,0,1,,1,S,0,S,16,0.764314,0.028162,0.021525
21,17,7,6,0,0,1,,1,S,0,S,19,0.793751,0.012539,0.009953
21,18,8,6,0,0,1,,2,S,0,S,18,0.769061,0.03066,0.02358
21,19,9,1,0,0,1,,8,L,0,S,13,0.797392,0,0
21,20,2,8,0,0,1,,6,S,0,S,13,0.022762,0.756641,0.017223
21,21,7,2,0,0,1,,5,S,0,S,13,0.756621,0.02291,0.017334
21,22,2,7,0,0,1,,5,S,0,S,14,0.027714,0.756922,0.020977
21,23,2,4,0,0,1,,2,S,0,S,16,0.035897,0.758416,0.027225
21,24,5,8,0,0,1,,3,S,0,S,15,0.03431,0.75419,0.025877
21,25,6,7,0,0,1,,1,S,0,S,26,0.024585,0.778364,0.019136
21,26,7,9,0,0,1,,2,S,0,S,20,0.019949,0.783766,0.015635
21,27,3,4,0,0,1,,1,S,0,S,18,0.017974,0.782826,0.014071
21,28,3,8,0,0,1,,5,S,0,S,14,0.004104,0.78471,0.00322
21,29,7,4,0,0,1,,3,S,0,S,16,0.758058,0.034267,0.025977
21,30,2,9,0,0,1,,7,L,0,S,14,0.003197,0.791777,0.002531
21,31,6,1,0,0,1,,5,S,0,S,14,0.786304,0.006515,0.005122
21,32,6,9,0,0,1,,3,S,0,S,19,0.019016,0.784892,0.014926
21,33,5,1,0,0,1,,4,S,0,S,14,0.753167,0.033667,0.025357
21,34,4,9,0,0,1,,5,S,0,S,15,0.038754,0.751308,0.029116
21,35,6,4,0,0,1,,2,S,0,S,17,0.789873,0.012277,0.009697
21,36,1,9,0,0,1,,8,L,0,S,13,0.006487,0.77936,0.005056
21,37,7,5,0,0,1,,2,S,0,S,18,0.778753,0.017882,0.013925
21,38,8,2,0,0,1,,6,S,0,S,13,0.760472,0.019759,0.015026
21,39,5,4,0,0,1,,1,S,0,S,19,0.766126,0.035939,0.027534
21,40,7,8,0,0,1,,1,S,0,S,17,0.038939,0.751412,0.02926
21,41,3,5,0,0,1,,2,S,0,S,17,0.007465,0.789288,0.005892
21,42,4,2,0,0,1,,2,S,0,S,14,0.75094,0.034449,0.025869
21,43,5,9,0,0,1,,4,S,0,S,16,0.037071,0.757878,0.028095
21,44,1,5,0,0,1,,4,S,0,S,14,0.02032,0.763114,0.015506
21,45,5,2,0,0,1,,3,S,0,S,14,0.777118,0.014666,0.011398
21,46,6,2,0,0,1,,4,S,0,S,13,0.751462,0.027508,0.020671
21,47,4,7,0,0,1,,3,S,0,S,17,0.015991,0.783868,0.012534
21,48,2,1,0,0,1,,1,S,0,S,19,0.770971,0.031302,0.024133
21,49,8,4,0,0,1,,4,S,0,S,16,0.769177,0.025306,0.019464
21,50,5,3,0,0,1,,2,S,0,S,19,0.758378,0.042242,0.032035
21,51,8,7,0,0,1,,1,S,0,S,24,0.794354,0.010148,0.008061
21,52,6,5,0,0,1,,1,S,0,S,18,0.751108,0.04045,0.030382
21,53,8,5,0,0,1,,3,S,0,S,18,0.795134,0.004632,0.003683
21,54,4,1,0,0,1,,3,S,0,S,15,0.774047,0.021141,0.016364
21,55,9,4,0,0,1,,5,S,0,S,14,0.772306,0.017944,0.013858
21,56,3,6,0,0,1,,3,S,0,S,16,0.016,0.782369,0.012518
21,57,6,8,0,0,1,,2,S,0,S,17,0.019741,0.77703,0.01534
21,58,1,4,0,0,1,,3,S,0,S,15,0.002113,0.79601,0.001682
21,59,1,7,0,0,1,,6,S,0,S,13,0.024238,0.752967,0.01825
21,60,2,3,0,0,1,,1,S,0,S,16,0.033192,0.762061,0.025295
21,61,2,6,0,0,1,,4,S,0,S,15,0.01931,0.777535,0.015014
21,62,4,5,0,0,1,,1,S,0,S,21,0.030029,0.769929,0.02312
21,63,9,5,0,0,1,,4,S,0,S,15,0.78742,0.00647,0.005095
21,64,9,2,0,0,1,,7,L,0,S,12,0.75344,0.019998,0.015067
21,65,9,3,0,0,1,,6,S,0,S,14,0.771099,0.019002,0.014653
21,66,5,6,0,0,1,,1,S,0,S,23,0.046461,0.758221,0.035228
21,67,4,6,0,0,1,,2,S,0,S,19,0.024879,0.78135,0.019439
21,68,6,3,0,0,1,,3,S,0,S,17,0.786736,0.014907,0.011728
21,69,9,8,0,0,1,,1,S,0,S,20,0.760119,0.037626,0.028601
21,70,9,6,0,0,1,,3,S,0,S,15,0.782994,0.014758,0.011556
21,71,8,9,0,0,1,,1,S,0,S,21,0.016209,0.788871,0.012787
21,72,4,3,0,0,1,,1,S,0,S,26,0.792311,0.017974,0.014241
22,1,5,7,0,0,1,,2,S,0,S,20,0.014783,0.793862,0.011736
22,2,2,9,0,0,1,,7,L,0,S,14,0.004417,0.785406,0.003469
22,3,2,3,0,0,1,,1,S,0,S,18,0.017031,0.782091,0.01332
22,4,5,4,0,0,1,,1,S,0,S,16,0.784713,0.013841,0.010861
22,5,2,5,0,0,1,,3,S,0,S,16,0.001969,0.7998,0.001575
22,6,6,8,0,0,1,,2,S,0,S,18,0.0338,0.762281,0.025765
22,7,4,7,0,0,1,,3,S,0,S,16,0.024674,0.776135,0.01915
22,8,7,3,0,0,1,,4,S,0,S,15,0.752599,0.032806,0.02469
22,9,1,7,0,0,1,,6,S,0,S,13,0,0.793112,0
22,10,8,3,0,0,1,,5,S,0,S,15,0.779076,0.013763,0.010722
22,11,1,4,0,0,1,,3,S,0,S,15,0,0.799807,0
22,12,3,2,0,0,1,,1,S,0,S,29,0.781572,0.024627,0.019248
22,13,6,3,0,0,1,,3,S,0,S,17,0.788354,0.010339,0.008151
22,14,5,1,0,0,1,,4,S,0,S,14,0.774477,0.016652,0.012896
22,15,6,5,0,0,1,,1,S,0,S,20,0.753103,0.04456,0.033559
22,16,4,6,0,0,1,,2,S,0,S,17,0.016353,0.789239,0.012906
22,17,9,3,0,0,1,,6,S,0,S,15,0.797678,0.001524,0.001216
22,18,5,8,0,0,1,,3,S,0,S,20,0.020974,0.782951,0.016422
22,19,7,4,0,0,1,,3,S,0,S,15,0.759252,0.02904,0.022049
22,20,2,6,0,0,1,,4,S,0,S,14,0.024269,0.76386,0.018538
22,21,2,4,0,0,1,,2,S,0,S,18,0.020131,0.780001,0.015702
22,22,7,1,0,0,1,,6,S,0,S,14,0.787438,0.005072,0.003994
22,23,2,1,0,0,1,,1,S,0,S,21,0.785967,0.019829,0.015585
22,24,2,8,0,0,1,,6,S,0,S,14,0.013962,0.774695,0.010816
22,25,1,5,0,0,1,,4,S,0,S,14,0,0.798967,0
22,26,4,2,0,0,1,,2,S,0,S,18,0.759373,0.038496,0.029233
22,27,3,9,0,0,1,,6,S,0,S,15,0.002986,0.794319,0.002372
22,28,8,4,0,0,1,,4,S,0,S,15,0.785045,0.010435,0.008192
22,29,3,5,0,0,1,,2,S,0,S,17,0.042442,0.753849,0.031995
22,30,9,6,0,0,1,,3,S,0,S,19,0.794293,0.015427,0.012254
22,31,5,3,0,0,1,,2,S,0,S,16,0.777337,0.018256,0.014191
22,32,9,2,0,0,1,,7,L,0,S,14,0.752826,0.032757,0.02466
22,33,4,8,0,0,1,,4,S,0,S,16,0.027903,0.769001,0.021458
22,34,5,9,0,0,1,,4,S,0,S,18,0.037437,0.757418,0.028356
22,35,5,6,0,0,1,,1,S,0,S,23,0.021972,0.786661,0.017284
22,36,9,1,0,0,1,,8,L,0,S,13,0.763532,0.021686,0.016558
22,37,7,5,0,0,1,,2,S,0,S,17,0.760813,0.034077,0.025926
22,38,8,2,0,0,1,,6,S,0,S,15,0.786275,0.008532,0.006708
22,39,7,8,0,0,1,,1,S,0,S,24,0.030578,0.770741,0.023568
22,40,3,8,0,0,1,,5,S,0,S,15,0.01655,0.778712,0.012887
22,41,1,9,0,0,1,,8,L,0,S,13,0,0.794581,0
22,42,9,8,0,0,1,,1,S,0,S,21,0.785406,0.021881,0.017185
22,43,1,8,0,0,1,,7,L,0,S,13,0,0.788456,0
22,44,8,6,0,0,1,,2,S,0,S,20,0.775515,0.028889,0.022404
22,45,8,1,0,0,1,,7,L,0,S,13,0.750495,0.029485,0.022128
22,46,9,5,0,0,1,,4,S,0,S,16,0.783715,0.017704,0.013875
22,47,1,6,0,0,1,,5,S,0,S,13,0.004184,0.782948,0.003276
22,48,2,7,0,0,1,,5,S,0,S,14,0.011851,0.780245,0.009247
22,49,6,4,0,0,1,,2,S,0,S,17,0.796864,0.005006,0.003989
22,50,7,9,0,0,1,,2,S,0,S,20,0.041043,0.753089,0.030909
22,51,1,3,0,0,1,,2,S,0,S,15,0,0.798741,0
22,52,8,5,0,0,1,,3,S,0,S,16,0.756003,0.037054,0.028013
22,53,3,6,0,0,1,,3,S,0,S,15,0.032015,0.761547,0.024381
22,54,4,9,0,0,1,,5,S,0,S,16,0.007507,0.793074,0.005953
22,55,6,2,0,0,1,,4,S,0,S,16,0.751915,0.037078,0.02788
22,56,5,2,0,0,1,,3,S,0,S,16,0.78711,0.010971,0.008635
22,57,3,1,0,0,1,,2,S,0,S,17,0.795106,0.010293,0.008184
22,58,4,5,0,0,1,,1,S,0,S,22,0.02855,0.779173,0.022246
22,59,6,1,0,0,1,,5,S,0,S,14,0.754015,0.031129,0.023472
22,60,4,1,0,0,1,,3,S,0,S,15,0.768638,0.026818,0.020613
22,61,8,7,0,0,1,,1,S,0,S,24,0.786375,0.022307,0.017541
22,62,6,7,0,0,1,,1,S,0,S,18,0.029048,0.771506,0.02241
22,63,7,2,0,0,1,,5,S,0,S,15,0.761018,0.026697,0.020317
22,64,9,7,0,0,1,,2,S,0,S,21,0.791697,0.019395,0.015355
22,65,4,3,0,0,1,,1,S,0,S,19,0.784331,0.019554,0.015337
22,66,8,9,0,0,1,,1,S,0,S,24,0.045577,0.751778,0.034264
22,67,9,4,0,0,1,,5,S,0,S,14,0.751661,0.034599,0.026007
22,68,3,4,0,0,1,,1,S,0,S,31,0.033001,0.772705,0.0255
22,69,1,2,0,0,1,,1,S,0,S,15,0.001174,0.794082,0.000932
22,70,7,6,0,0,1,,1,S,0,S,24,0.771427,0.032505,0.025075
22,71,6,9,0,0,1,,3,S,0,S,17,0.033368,0.758714,0.025317
22,72,3,7,0,0,1,,4,S,0,S,15,0.013968,0.784912,0.010963
23,1,1,9,0,0,1,,8,L,0,S,12,0,0.779821,0
23,2,4,8,0,0,1,,4,S,0,S,15,0.028205,0.760268,0.021443
23,3,7,2,0,0,1,,5,S,0,S,15,0.792573,0.003719,0.002948
23,4,8,2,0,0,1,,6,S,0,S,14,0.800016,0,0
23,5,3,6,0,0,1,,3,S,0,S,16,0.007027,0.793328,0.005575
23,6,2,7,0,0,1,,5,S,0,S,14,0.001486,0.794993,0.001181
23,7,6,4,0,0,1,,2,S,0,S,20,0.774162,0.028653,0.022182
23,8,5,9,0,0,1,,4,S,0,S,16,0.016268,0.780075,0.01269
23,9,8,6,0,0,1,,2,S,0,S,16,0.782017,0.015611,0.012208
23,10,7,9,0,0,1,,2,S,0,S,17,0.039531,0.750625,0.029673
23,11,3,8,0,0,1,,5,S,0,S,15,0.004721,0.793306,0.003745
23,12,8,4,0,0,1,,4,S,0,S,15,0.766052,0.027386,0.020979
23,13,2,3,0,0,1,,1,S,0,S,19,0.02747,0.77457,0.021277
23,14,5,3,0,0,1,,2,S,0,S,15,0.789155,0.007676,0.006058
23,15,9,1,0,0,1,,8,L,0,S,13,0.793613,0,0
23,16,9,3,0,0,1,,6,S,0,S,14,0.777727,0.013255,0.010309
23,17,5,6,0,0,1,,1,S,0,S,47,0.03657,0.766173,0.028019
23,18,8,3,0,0,1,,5,S,0,S,13,0.766253,0.016794,0.012869
23,19,8,9,0,0,1,,1,S,0,S,36,0.048475,0.750574,0.036384
23,20,5,2,0,0,1,,3,S,0,S,15,0.753051,0.036124,0.027203
23,21,1,5,0,0,1,,4,S,0,S,14,0,0.800188,0
23,22,7,6,0,0,1,,1,S,0,S,19,0.761303,0.034744,0.026451
23,23,9,4,0,0,1,,5,S,0,S,17,0.760285,0.037478,0.028494
23,24,7,8,0,0,1,,1,S,0,S,29,0.015477,0.790193,0.01223
23,25,4,9,0,0,1,,5,S,0,S,14,0.016478,0.769326,0.012677
23,26,6,3,0,0,1,,3,S,0,S,15,0.794627,0.002313,0.001838
23,27,3,7,0,0,1,,4,S,0,S,15,0.019276,0.777005,0.014978
23,28,9,2,0,0,1,,7,L,0,S,14,0.750655,0.03444,0.025853
23,29,4,3,0,0,1,,1,S,0,S,18,0.793945,0.008536,0.006777
23,30,1,7,0,0,1,,6,S,0,S,12,0.022183,0.750933,0.016658
23,31,1,4,0,0,1,,3,S,0,S,13,0.002081,0.78627,0.001636
23,32,2,5,0,0,1,,3,S,0,S,16,0.012907,0.787512,0.010164
23,33,5,4,0,0,1,,1,S,0,S,21,0.771675,0.032643,0.02519
23,34,2,9,0,0,1,,7,L,0,S,13,0.000824,0.786216,0.000648
23,35,8,5,0,0,1,,3,S,0,S,14,0.775134,0.015642,0.012125
23,36,4,6,0,0,1,,2,S,0,S,17,0.004697,0.796038,0.003739
23,37,6,1,0,0,1,,5,S,0,S,13,0.772266,0.010761,0.008311
23,38,1,6,0,0,1,,5,S,0,S,13,0,0.792513,0
23,39,9,6,0,0,1,,3,S,0,S,19,0.786135,0.01754,0.013789
23,40,5,1,0,0,1,,4,S,0,S,13,0.769753,0.013663,0.010517
23,41,3,5,0,0,1,,2,S,0,S,20,0.030801,0.772569,0.023796
23,42,3,1,0,0,1,,2,S,0,S,15,0.789984,0.007188,0.005678
23,43,6,7,0,0,1,,1,S,0,S,23,0.018844,0.788553,0.01486
23,44,2,8,0,0,1,,6,S,0,S,13,0.028407,0.750937,0.021332
23,45,7,4,0,0,1,,3,S,0,S,18,0.790163,0.01309,0.010344
23,46,9,5,0,0,1,,4,S,0,S,15,0.76591,0.026883,0.02059
23,47,5,7,0,0,1,,2,S,0,S,21,0.026979,0.77893,0.021014
23,48,7,5,0,0,1,,2,S,0,S,15,0.754656,0.033331,0.025153
23,49,4,7,0,0,1,,3,S,0,S,16,0.010381,0.78925,0.008193
23,50,7,1,0,0,1,,6,S,0,S,13,0.787166,0,0
23,51,5,8,0,0,1,,3,S,0,S,19,0.022257,0.780167,0.017364
23,52,8,7,0,0,1,,1,S,0,S,16,0.752178,0.041367,0.031116
23,53,6,9,0,0,1,,3,S,0,S,16,0.027854,0.763705,0.021272
23,54,6,5,0,0,1,,1,S,0,S,16,0.761877,0.031328,0.023868
23,55,1,3,0,0,1,,2,S,0,S,15,0.001212,0.796416,0.000966
23,56,4,2,0,0,1,,2,S,0,S,20,0.77701,0.024533,0.019062
23,57,9,8,0,0,1,,1,S,0,S,30,0.766688,0.037083,0.028431
23,58,7,3,0,0,1,,4,S,0,S,14,0.769148,0.017726,0.013634
23,59,9,7,0,0,1,,2,S,0,S,21,0.777392,0.02874,0.022342
23,60,1,2,0,0,1,,1,S,0,S,14,0.014924,0.774485,0.011559
23,61,6,2,0,0,1,,4,S,0,S,15,0.760871,0.028918,0.022003
23,62,4,5,0,0,1,,1,S,0,S,28,0.016077,0.790828,0.012714
23,63,3,9,0,0,1,,6,S,0,S,14,0.000372,0.792996,0.000295
23,64,1,8,0,0,1,,7,L,0,S,12,0.016587,0.756361,0.012546
23,65,2,6,0,0,1,,4,S,0,S,14,0.016024,0.773342,0.012392
23,66,3,4,0,0,1,,1,S,0,S,16,0.029457,0.767629,0.022612
23,67,2,4,0,0,1,,2,S,0,S,14,0.028104,0.760331,0.021368
23,68,6,8,0,0,1,,2,S,0,S,20,0.016909,0.786396,0.013297
23,69,4,1,0,0,1,,3,S,0,S,14,0.757125,0.026676,0.020197
23,70,2,1,0,0,1,,1,S,0,S,17,0.776482,0.022701,0.017627
23,71,8,1,0,0,1,,7,L,0,S,12,0.764977,0.010972,0.008393
23,72,3,2,0,0,1,,1,S,0,S,25,0.75637,0.045627,0.034511
24,1,5,1,0,0,1,,4,S,0,S,14,0.753751,0.029545,0.022269
24,2,3,5,0,0,1,,2,S,0,S,19,0.027376,0.772029,0.021135
24,3,5,7,0,0,1,,2,S,0,S,17,0.032332,0.765974,0.024765
24,4,2,7,0,0,1,,5,S,0,S,14,0.013092,0.77681,0.01017
24,5,2,1,0,0,1,,1,S,0,S,19,0.775054,0.022605,0.01752
24,6,4,1,0,0,1,,3,S,0,S,15,0.755786,0.030689,0.023195
24,7,1,9,0,0,1,,8,L,0,S,13,0,0.801204,0
24,8,8,4,0,0,1,,4,S,0,S,15,0.780908,0.013609,0.010628
24,9,3,1,0,0,1,,2,S,0,S,17,0.793546,0.005497,0.004363
24,10,6,8,0,0,1,,2,S,0,S,17,0.019155,0.778062,0.014904
24,11,3,8,0,0,1,,5,S,0,S,16,0.00379,0.794141,0.003009
24,12,3,4,0,0,1,,1,S,0,S,22,0.037616,0.759842,0.028583
24,13,7,1,0,0,1,,6,S,0,S,14,0.765475,0.018843,0.014424
24,14,5,2,0,0,1,,3,S,0,S,15,0.789026,0.008499,0.006706
24,15,5,6,0,0,1,,1,S,0,S,24,0.034508,0.767911,0.026499
24,16,1,3,0,0,1,,2,S,0,S,16,0.012558,0.784898,0.009857
24,17,3,7,0,0,1,,4,S,0,S,15,0.008074,0.788223,0.006364
24,18,6,3,0,0,1,,3,S,0,S,18,0.794977,0.01034,0.00822
24,19,6,2,0,0,1,,4,S,0,S,16,0.783976,0.014213,0.011143
24,20,1,5,0,0,1,,4,S,0,S,15,0,0.799428,0
24,21,4,7,0,0,1,,3,S,0,S,16,0.008105,0.792468,0.006423
24,22,5,3,0,0,1,,2,S,0,S,16,0.784655,0.015855,0.012441
24,23,9,4,0,0,1,,5,S,0,S,15,0.750402,0.036553,0.02743
24,24,9,1,0,0,1,,8,L,0,S,14,0.794943,0,0
24,25,9,5,0,0,1,,4,S,0,S,16,0.768872,0.026535,0.020402
24,26,7,9,0,0,1,,2,S,0,S,16,0.020475,0.775428,0.015877
24,27,4,8,0,0,1,,4,S,0,S,17,0.016783,0.780959,0.013107
24,28,8,9,0,0,1,,1,S,0,S,19,0.014557,0.792361,0.011534
24,29,8,2,0,0,1,,6,S,0,S,14,0.802528,0,0
24,30,8,1,0,0,1,,7,L,0,S,13,0.758859,0.021133,0.016037
24,31,4,9,0,0,1,,5,S,0,S,14,0.033595,0.750597,0.025217
24,32,5,8,0,0,1,,3,S,0,S,19,0.044674,0.750742,0.033539
24,33,7,3,0,0,1,,4,S,0,S,15,0.755313,0.033929,0.025627
24,34,7,2,0,0,1,,5,S,0,S,14,0.751166,0.032102,0.024114
24,35,6,4,0,0,1,,2,S,0,S,21,0.782606,0.019789,0.015487
24,36,9,8,0,0,1,,1,S,0,S,22,0.778955,0.024281,0.018914
24,37,2,8,0,0,1,,6,S,0,S,15,0.000892,0.79435,0.000709
24,38,5,4,0,0,1,,1,S,0,S,17,0.758228,0.03581,0.027152
24,39,6,1,0,0,1,,5,S,0,S,15,0.757987,0.029085,0.022046
24,40,2,5,0,0,1,,3,S,0,S,17,0.006994,0.794134,0.005554
24,41,4,6,0,0,1,,2,S,0,S,18,0.029788,0.767154,0.022852
24,42,1,4,0,0,1,,3,S,0,S,15,0.016911,0.772074,0.013057
24,43,5,9,0,0,1,,4,S,0,S,15,0.034163,0.756492,0.025844
24,44,1,6,0,0,1,,5,S,0,S,14,0.001291,0.788501,0.001018
24,45,2,3,0,0,1,,1,S,0,S,21,0.011466,0.795864,0.009126
24,46,7,8,0,0,1,,1,S,0,S,22,0.035704,0.762123,0.027211
24,47,4,5,0,0,1,,1,S,0,S,31,0.047812,0.75167,0.035939
24,48,9,3,0,0,1,,6,S,0,S,15,0.7981,0.002335,0.001864
24,49,2,9,0,0,1,,7,L,0,S,13,0.021044,0.759506,0.015983
24,50,3,2,0,0,1,,1,S,0,S,17,0.753993,0.039163,0.029529
24,51,9,7,0,0,0,,2,S,0,S,22,0.043942,0.757779,0.033299
24,52,8,7,0,0,1,,1,S,0,S,24,0.790741,0.018957,0.01499
24,53,2,6,0,0,1,,4,S,0,S,15,0.021262,0.768657,0.016343
24,54,7,6,0,0,1,,1,S,0,S,24,0.764324,0.035195,0.026901
24,55,8,3,0,0,1,,5,S,0,S,14,0.770333,0.020733,0.015971
24,56,2,4,0,0,1,,2,S,0,S,18,0.014515,0.784773,0.011391
24,57,4,2,0,0,1,,2,S,0,S,16,0.781401,0.016144,0.012615
24,58,9,6,0,0,1,,3,S,0,S,19,0.786563,0.016709,0.013142
24,59,8,6,0,0,1,,2,S,0,S,17,0.763214,0.033038,0.025215
24,60,3,6,0,0,1,,3,S,0,S,16,0.033535,0.756661,0.025375
24,61,6,5,0,0,1,,1,S,0,S,35,0.779333,0.025857,0.020151
24,62,8,5,0,0,1,,3,S,0,S,15,0.755582,0.034575,0.026124
24,63,7,5,0,0,1,,2,S,0,S,18,0.790205,0.011644,0.009201
24,64,1,7,0,0,1,,6,S,0,S,13,0.008168,0.775505,0.006334
24,65,7,4,0,0,1,,3,S,0,S,17,0.790791,0.00826,0.006532
24,66,3,9,0,0,1,,6,S,0,S,14,0.008442,0.782689,0.006607
24,67,9,2,0,0,1,,7,L,0,S,14,0.78403,0.008546,0.0067
24,68,1,2,0,0,1,,1,S,0,S,18,0.010322,0.790835,0.008163
24,69,1,8,0,0,1,,7,L,0,S,13,0.023966,0.751616,0.018013
24,70,6,7,0,0,1,,1,S,0,S,16,0.009738,0.790505,0.007698
24,71,4,3,0,0,1,,1,S,0,S,18,0.790587,0.013748,0.010869
24,72,6,9,0,0,1,,3,S,0,S,15,0,0.800678,0
25,1,9,5,0,0,1,,4,S,0,S,17,0.775269,0.026231,0.020336
25,2,3,9,0,0,1,,6,S,0,S,14,0.023205,0.762695,0.017698
25,3,8,1,0,0,1,,7,L,0,S,13,0.752455,0.026526,0.019959
25,4,9,8,0,0,1,,1,S,0,S,20,0.758647,0.044101,0.033457
25,5,2,1,0,0,1,,1,S,0,S,16,0.785069,0.012018,0.009435
25,6,6,8,0,0,1,,2,S,0,S,19,0.039982,0.758307,0.030318
25,7,2,9,0,0,1,,7,L,0,S,14,0,0.793472,0
25,8,3,4,0,0,1,,1,S,0,S,25,0.020002,0.790092,0.015804
25,9,7,2,0,0,1,,5,S,0,S,14,0.761827,0.02487,0.018947
25,10,7,9,0,0,1,,2,S,0,S,16,0.036319,0.75557,0.027441
25,11,5,6,0,0,1,,1,S,0,S,18,0.010176,0.795271,0.008092
25,12,4,1,0,0,1,,3,S,0,S,15,0.773076,0.018487,0.014291
25,13,4,7,0,0,1,,3,S,0,S,17,0.006755,0.795594,0.005374
25,14,5,2,0,0,1,,3,S,0,S,16,0.771636,0.023469,0.01811
25,15,7,1,0,0,1,,6,S,0,S,13,0.754883,0.024474,0.018475
25,16,2,4,0,0,1,,2,S,0,S,18,0.038799,0.76103,0.029527
25,17,1,4,0,0,1,,3,S,0,S,15,0.034054,0.759188,0.025854
25,18,8,4,0,0,1,,4,S,0,S,17,0.798097,0.008802,0.007025
25,19,7,6,0,0,1,,1,S,0,S,22,0.7872,0.020551,0.016177
25,20,7,4,0,0,1,,3,S,0,S,16,0.756849,0.038884,0.029429
25,21,7,3,0,0,1,,4,S,0,S,16,0.799998,0.003397,0.002717
25,22,1,3,0,0,1,,2,S,0,S,16,0.035119,0.759764,0.026682
25,23,5,9,0,0,1,,4,S,0,S,14,0.032567,0.750764,0.02445
25,24,2,3,0,0,1,,1,S,0,S,22,0.024088,0.781754,0.018831
25,25,4,5,0,0,1,,1,S,0,S,17,0.039548,0.755144,0.029865
25,26,1,6,0,0,1,,5,S,0,S,14,0.017895,0.772945,0.013832
25,27,5,1,0,0,1,,4,S,0,S,15,0.79817,0,0
25,28,1,8,0,0,1,,7,L,0,S,14,0.002787,0.792881,0.00221
25,29,6,2,0,0,1,,4,S,0,S,15,0.782422,0.01124,0.008795
25,30,3,8,0,0,1,,5,S,0,S,16,0.0213,0.776494,0.016539
25,31,5,4,0,0,1,,1,S,0,S,25,0.778877,0.02936,0.022868
25,32,6,9,0,0,1,,3,S,0,S,16,0.004522,0.794195,0.003591
25,33,3,7,0,0,1,,4,S,0,S,17,0.021826,0.776665,0.016952
25,34,6,5,0,0,1,,1,S,0,S,24,0.765034,0.036856,0.028196
25,35,8,7,0,0,1,,1,S,0,S,23,0.77417,0.030358,0.023502
25,36,3,6,0,0,1,,3,S,0,S,17,0.021142,0.779086,0.016472
25,37,9,7,0,0,1,,2,S,0,S,18,0.766561,0.033899,0.025986
25,38,9,3,0,0,1,,6,S,0,S,15,0.792435,0.007946,0.006296
25,39,4,2,0,0,1,,2,S,0,S,17,0.776125,0.021714,0.016853
25,40,6,3,0,0,1,,3,S,0,S,16,0.751589,0.039753,0.029878
25,41,4,6,0,0,1,,2,S,0,S,17,0.006001,0.798056,0.004789
25,42,3,2,0,0,1,,1,S,0,S,17,0.795618,0.006435,0.00512
25,43,5,7,0,0,1,,2,S,0,S,18,0.010843,0.792885,0.008597
25,44,6,7,0,0,1,,1,S,0,S,23,0.043676,0.754816,0.032967
25,45,8,9,0,0,1,,1,S,0,S,16,0.029904,0.764129,0.02285
25,46,4,8,0,0,1,,4,S,0,S,16,0.009892,0.790865,0.007823
25,47,9,1,0,0,1,,8,L,0,S,13,0.777301,0.008825,0.006859
25,48,2,6,0,0,1,,4,S,0,S,16,0.004671,0.797236,0.003724
25,49,1,2,0,0,1,,1,S,0,S,20,0.045571,0.752176,0.034277
25,50,6,4,0,0,1,,2,S,0,S,18,0.785866,0.018284,0.014369
25,51,3,1,0,0,1,,2,S,0,S,15,0.783968,0.010155,0.007961
25,52,9,2,0,0,1,,7,L,0,S,14,0.7911,0.003715,0.002939
25,53,8,2,0,0,1,,6,S,0,S,14,0.758355,0.027764,0.021055
25,54,2,8,0,0,1,,6,S,0,S,15,0.01644,0.778992,0.012806
25,55,5,8,0,0,1,,3,S,0,S,16,0.039498,0.753578,0.029765
25,56,8,6,0,0,1,,2,S,0,S,23,0.786491,0.021788,0.017136
25,57,6,1,0,0,1,,5,S,0,S,14,0.785719,0.004511,0.003544
25,58,7,8,0,0,1,,1,S,0,S,24,0.049021,0.752946,0.03691
25,59,3,5,0,0,1,,2,S,0,S,18,0.023883,0.777298,0.018565
25,60,8,3,0,0,1,,5,S,0,S,16,0.794545,0.007949,0.006316
25,61,1,7,0,0,1,,6,S,0,S,14,0.018475,0.77077,0.01424
25,62,8,5,0,0,1,,3,S,0,S,20,0.794291,0.013594,0.010798
25,63,1,9,0,0,1,,8,L,0,S,13,0.002243,0.784911,0.00176
25,64,1,5,0,0,1,,4,S,0,S,14,0.031631,0.754705,0.023872
25,65,4,9,0,0,1,,5,S,0,S,14,0.016939,0.770755,0.013056
25,66,9,4,0,0,1,,5,S,0,S,15,0.7609,0.034091,0.02594
25,67,2,5,0,0,1,,3,S,0,S,16,0.028185,0.76691,0.021616
25,68,7,5,0,0,1,,2,S,0,S,19,0.767139,0.034086,0.026149
25,69,4,3,0,0,1,,1,S,0,S,23,0.784585,0.022092,0.017333
25,70,2,7,0,0,1,,5,S,0,S,16,0.005414,0.794819,0.004303
25,71,5,3,0,0,1,,2,S,0,S,19,0.765069,0.035541,0.027191
25,72,9,6,0,0,1,,3,S,0,S,18,0.772184,0.030705,0.02371
26,1,8,5,0,0,1,,3,S,0,S,14,0.770894,0.016876,0.01301
26,2,7,9,0,0,1,,2,S,0,S,14,0.030168,0.754633,0.022766
26,3,1,7,0,0,1,,6,S,0,S,14,0,0.799952,0
26,4,8,7,0,0,1,,1,S,0,S,16,0.771416,0.021163,0.016325
26,5,2,1,0,0,1,,1,S,0,S,17,0.797072,0.007659,0.006104
26,6,6,4,0,0,1,,2,S,0,S,19,0.769319,0.031466,0.024207
26,7,7,1,0,0,1,,6,S,0,S,14,0.792871,0.00122,0.000967
26,8,4,9,0,0,1,,5,S,0,S,14,0.008957,0.784367,0.007025
26,9,5,9,0,0,1,,4,S,0,S,14,0,0.795762,0
26,10,7,4,0,0,1,,3,S,0,S,17,0.752458,0.040236,0.030276
26,11,8,1,0,0,1,,7,L,0,S,12,0.768674,0.008438,0.006486
26,12,8,6,0,0,1,,2,S,0,S,15,0.800359,0,0
26,13,4,8,0,0,1,,4,S,0,S,17,0.020817,0.777382,0.016183
26,14,5,1,0,0,1,,4,S,0,S,15,0.794976,0.001992,0.001584
26,15,2,4,0,0,1,,2,S,0,S,17,0.031741,0.765074,0.024284
26,16,3,5,0,0,1,,2,S,0,S,18,0.043294,0.752297,0.03257
26,17,8,4,0,0,1,,4,S,0,S,14,0.798121,0,0
26,18,4,1,0,0,1,,3,S,0,S,14,0.773185,0.017963,0.013889
26,19,8,2,0,0,1,,6,S,0,S,13,0.783867,0.001687,0.001322
26,20,5,8,0,0,1,,3,S,0,S,16,0.025243,0.765041,0.019312
26,21,1,2,0,0,1,,1,S,0,S,19,0.008379,0.793657,0.00665
26,22,9,8,0,0,1,,1,S,0,S,17,0.773114,0.021951,0.016971
26,23,5,4,0,0,1,,1,S,0,S,24,0.758571,0.039766,0.030165
26,24,5,6,0,0,1,,1,S,0,S,18,0.039591,0.75247,0.029791
26,25,9,2,0,0,1,,7,L,0,S,13,0.760622,0.018779,0.014284
26,26,4,7,0,0,1,,3,S,0,S,16,0.037185,0.753014,0.028001
26,27,7,6,0,0,1,,1,S,0,S,26,0.771876,0.03,0.023156
26,28,1,6,0,0,1,,5,S,0,S,14,0.027472,0.754746,0.020734
26,29,9,6,0,0,1,,3,S,0,S,15,0.756825,0.030413,0.023018
26,30,1,9,0,0,1,,8,L,0,S,12,0.017272,0.754949,0.01304
26,31,4,2,0,0,1,,2,S,0,S,16,0.778914,0.01825,0.014215
26,32,7,5,0,0,1,,2,S,0,S,20,0.763142,0.035448,0.027052
26,33,3,1,0,0,1,,2,S,0,S,15,0.781375,0.015089,0.011791
26,34,6,2,0,0,1,,4,S,0,S,16,0.78427,0.013751,0.010785
26,35,4,5,0,0,1,,1,S,0,S,29,0.033278,0.77156,0.025676
26,36,4,6,0,0,1,,2,S,0,S,21,0.013057,0.793585,0.010362
26,37,5,3,0,0,1,,2,S,0,S,18,0.774988,0.024379,0.018893
26,38,5,7,0,0,1,,2,S,0,S,16,0.0104,0.783505,0.008149
26,39,3,4,0,0,1,,1,S,0,S,24,0.014672,0.793647,0.011644
26,40,6,7,0,0,1,,1,S,0,S,17,0.007608,0.7931,0.006034
26,41,6,8,0,0,1,,2,S,0,S,17,0.028256,0.767522,0.021687
26,42,2,7,0,0,1,,5,S,0,S,14,0.016471,0.770665,0.012693
26,43,9,7,0,0,1,,2,S,0,S,18,0.78811,0.011157,0.008793
26,44,9,4,0,0,1,,5,S,0,S,14,0.767374,0.019359,0.014856
26,45,6,5,0,0,1,,1,S,0,S,29,0.756585,0.04491,0.033978
26,46,1,5,0,0,1,,4,S,0,S,15,0.008035,0.785639,0.006312
26,47,5,2,0,0,1,,3,S,0,S,17,0.774715,0.020564,0.015931
26,48,3,8,0,0,1,,5,S,0,S,15,0.036368,0.750376,0.02729
26,49,1,3,0,0,1,,2,S,0,S,17,0.028233,0.768204,0.021689
26,50,9,5,0,0,1,,4,S,0,S,15,0.784446,0.009679,0.007593
26,51,7,2,0,0,1,,5,S,0,S,15,0.765361,0.024214,0.018532
26,52,2,8,0,0,1,,6,S,0,S,14,0.024788,0.760367,0.018848
26,53,2,6,0,0,1,,4,S,0,S,15,0.028317,0.761723,0.02157
26,54,6,3,0,0,1,,3,S,0,S,16,0.753155,0.040454,0.030468
26,55,8,9,0,0,1,,1,S,0,S,25,0.022832,0.783022,0.017878
26,56,1,4,0,0,1,,3,S,0,S,16,0.004838,0.793452,0.003839
26,57,8,3,0,0,1,,5,S,0,S,13,0.776143,0.009477,0.007356
26,58,9,3,0,0,1,,6,S,0,S,13,0.750822,0.028209,0.02118
26,59,6,9,0,0,1,,3,S,0,S,14,0.011667,0.780496,0.009106
26,60,1,8,0,0,1,,7,L,0,S,14,0,0.792196,0
26,61,3,6,0,0,1,,3,S,0,S,17,0.030411,0.765685,0.023286
26,62,2,9,0,0,1,,7,L,0,S,13,0,0.792911,0
26,63,7,8,0,0,1,,1,S,0,S,19,0.016787,0.783609,0.013155
26,64,2,5,0,0,1,,3,S,0,S,16,0.015785,0.782309,0.012349
26,65,3,9,0,0,1,,6,S,0,S,13,0.021666,0.760714,0.016482
26,66,4,3,0,0,1,,1,S,0,S,17,0.795114,0.009938,0.007902
26,67,3,2,0,0,1,,1,S,0,S,18,0.784921,0.016847,0.013224
26,68,3,7,0,0,1,,4,S,0,S,15,0.023858,0.765976,0.018274
26,69,9,1,0,0,1,,8,L,0,S,12,0.750842,0.021273,0.015972
26,70,6,1,0,0,1,,5,S,0,S,14,0.775957,0.015551,0.012067
26,71,2,3,0,0,1,,1,S,0,S,21,0.023095,0.783681,0.018099
26,72,7,3,0,0,1,,4,S,0,S,16,0.791981,0.008555,0.006775
27,1,1,2,0,0,1,,1,S,0,S,19,0.019784,0.780762,0.015447
27,2,4,6,0,0,1,,2,S,0,S,17,0.02886,0.768367,0.022175
